time,lat,lng,bearing,spd,acc,alt,accx,accy,accz,stable,
0,35.322,-97.424,359.7,19.23,13.653,336,-0.795,2.961,8.997,1
1,35.322,-97.424,0,19.68,13.653,336,-0.885,2.889,8.929,1
2,35.322,-97.424,0.5,20.31,13.653,336,-0.905,2.955,9.236,0
3,35.322,-97.424,0.1,20.86,13.653,336,-0.923,2.941,9.14,1
4,35.322,-97.424,359.9,21.54,13.653,336,-0.852,2.912,9.071,1
5,35.323,-97.424,359.7,22,13.653,337,-0.788,2.729,9.154,1
6,35.323,-97.424,0.1,22.72,13.653,338,-0.883,2.186,9.66,1
7,35.323,-97.424,0,22.75,13.653,337,-0.88,2.123,9.494,1
8,35.323,-97.424,359.8,22.76,13.653,338,-0.983,2.359,9.307,1
10,35.323,-97.424,359.9,22.25,13.653,338,-0.605,2.424,9.22,1
10,35.323,-97.424,359.9,22.25,13.653,338,-0.605,2.424,9.22,1
11,35.324,-97.424,359.8,22.38,13.653,340,-0.72,2.404,9.244,1
12,35.324,-97.424,0.2,22.64,13.653,340,-0.907,2.416,9.202,1
13,35.324,-97.424,359.4,22.93,13.653,341,-0.722,2.336,9.495,1
14,35.324,-97.424,359.4,22.9,13.653,342,-0.7,2.383,9.289,1
15,35.325,-97.424,0,22.59,13.653,343,-0.91,2.34,9.124,1
16,35.325,-97.424,0.1,22.8,13.653,342,-0.843,2.317,8.876,1
17,35.325,-97.424,359.7,22.73,13.653,343,-0.765,2.345,9.214,1
18,35.325,-97.424,359.9,22.76,13.653,345,-0.766,2.344,9.31,1
19,35.325,-97.424,359.8,22.72,13.653,345,-0.598,2.336,8.99,1
20,35.326,-97.424,0.1,22.63,13.653,344,-0.684,2.288,9.252,1
21,35.326,-97.424,0.1,23.2,13.653,344,-0.821,2.193,9.18,1
22,35.326,-97.424,0.2,22.97,13.653,344,-0.935,2.116,9.439,1
23,35.326,-97.424,0.5,22.75,13.653,344,-0.952,1.174,9.7,1
24,35.327,-97.424,0.1,22.52,13.653,342,-0.767,2.007,9.363,0
25,35.327,-97.424,359.8,21.72,13.653,342,-0.942,2.072,9.298,1
26,35.327,-97.424,359.9,21.61,13.653,343,-0.816,2.46,9.436,0
27,35.327,-97.424,359.6,21.55,13.653,342,-0.632,2.2,9.521,1
28,35.327,-97.424,359.7,21.67,13.653,342,-0.832,2.225,9.433,1
29,35.327,-97.424,359.8,21.6,13.653,341,-0.878,2.379,9.358,1
30,35.328,-97.424,359.9,21.92,13.653,341,-0.782,2.366,9.237,1
31,35.328,-97.424,0,22.03,13.653,341,-1.029,2.422,9.213,1
32,35.328,-97.424,0.3,22.1,13.653,341,-0.812,2.335,9.323,1
33,35.328,-97.424,359.8,22.49,13.653,339,-0.795,2.089,9.267,1
34,35.328,-97.424,359.7,22.56,13.653,340,-0.82,2.504,9.262,1
35,35.329,-97.424,359.8,22.67,13.653,340,-0.446,2.101,9.084,1
36,35.329,-97.424,359.5,23.26,13.653,340,-0.811,2.056,9.338,1
38,35.329,-97.424,0,23.32,13.653,335,-0.932,1.974,9.403,1
38,35.329,-97.424,0,23.32,13.653,335,-0.932,1.974,9.403,1
39,35.33,-97.424,359.8,23.2,13.653,336,-0.906,2.093,9.491,1
40,35.33,-97.424,359.6,23.29,13.653,335,-0.804,2.171,9.865,0
41,35.33,-97.424,359.5,23.48,13.653,336,-0.739,2.059,9.736,0
42,35.33,-97.424,359.6,23.42,13.653,335,-0.85,2.111,9.611,0
43,35.33,-97.424,359.1,23.13,13.653,335,-0.634,2.163,9.924,0
44,35.331,-97.424,358.3,22.75,13.653,336,-0.485,2.313,9.605,0
45,35.331,-97.424,357.7,22.64,13.653,336,-1.006,2.54,9.508,0
46,35.331,-97.424,357,22.49,13.653,337,-0.854,2.543,9.602,0
47,35.331,-97.424,356.8,22.64,13.653,337,-0.658,2.982,9.45,1
48,35.331,-97.424,355.1,22.92,15.17,336,-0.869,2.45,9.235,1
49,35.332,-97.424,354.3,22.98,15.17,336,-0.693,2.071,9.207,1
50,35.332,-97.424,353.7,22.64,16.687,336,-0.989,2.085,9.441,1
51,35.332,-97.424,353.4,22.62,18.204,336,-0.761,2.072,9.551,1
52,35.332,-97.424,352.5,22.06,19.721,336,-0.934,2.051,9.681,1
53,35.332,-97.424,351.1,22.13,19.721,335,-0.709,1.278,9.564,1
54,35.333,-97.424,347.5,20.56,16.687,336,-0.519,1.427,9.449,1
55,35.333,-97.424,346.6,19.78,15.17,337,-0.589,1.621,9.21,1
56,35.333,-97.424,346.6,18.86,15.17,338,-0.718,1.88,9.51,1
57,35.333,-97.424,345.9,17.75,15.17,339,-0.572,1.785,9.538,0
58,35.333,-97.424,345,17.49,15.17,341,-0.598,2.118,9.467,1
59,35.333,-97.424,344.3,16.97,15.17,342,-0.686,2.533,9.216,1
60,35.334,-97.424,344.8,16.78,15.17,342,-0.659,2.613,9.288,1
61,35.334,-97.424,343,17.07,15.17,342,-0.68,2.66,9.57,1
62,35.334,-97.424,343.7,17.03,16.687,342,-0.72,2.6,9.263,1
63,35.334,-97.424,342,16.38,18.204,341,-0.738,2.58,8.993,1
64,35.334,-97.424,342.6,16.43,19.721,340,-0.665,2.725,9.417,1
65,35.334,-97.424,341.9,16.46,19.721,340,-0.662,2.804,9.018,1
66,35.334,-97.425,338.3,18.72,16.687,341,-0.65,2.875,9.077,1
67,35.335,-97.425,337.8,19.51,15.17,341,-0.686,2.915,9.156,1
68,35.335,-97.425,334.6,20.12,15.17,340,-0.706,2.882,9.033,1
69,35.335,-97.425,334.8,20.94,15.17,342,-1.337,2.479,9.299,0
70,35.335,-97.425,334.4,22.12,15.17,340,-1.264,2.261,9.975,0
71,35.335,-97.425,331.4,22.42,15.17,340,-0.564,1.749,9.301,1
72,35.335,-97.425,330.6,22.44,15.17,340,-0.225,1.412,10.006,0
73,35.336,-97.425,330.3,22.69,16.687,339,-0.577,1.969,9.577,1
74,35.336,-97.425,328.9,22.25,16.687,337,-0.355,2.117,9.773,0
76,35.336,-97.426,329.9,22.95,16.687,338,-0.59,2.059,9.286,0
76,35.336,-97.426,329.9,22.95,16.687,338,-0.59,2.059,9.286,0
77,35.336,-97.426,330.1,22.52,16.687,340,-0.763,2.343,9.45,0
78,35.337,-97.426,330.1,22.21,15.17,339,-0.825,2.145,9.446,1
79,35.337,-97.426,328.9,21.8,15.17,337,-0.815,2.112,9.317,1
80,35.337,-97.426,329.6,21.86,15.17,338,-0.68,2.116,9.493,0
81,35.337,-97.426,329.3,22.01,15.17,337,-0.474,2.237,9.153,0
82,35.337,-97.426,330.3,22.2,15.17,337,-0.264,2.249,9.14,1
83,35.337,-97.427,332.2,22.26,15.17,335,-0.649,2.37,9.302,0
84,35.338,-97.427,333.7,22.1,15.17,334,-0.339,2.502,9.209,1
85,35.338,-97.427,335.2,22.23,15.17,332,-0.69,2.596,9.234,1
86,35.338,-97.427,336.9,22.47,15.17,331,-0.405,2.691,9.063,1
87,35.338,-97.427,337.7,22.68,16.687,331,-0.293,2.824,9.441,1
88,35.338,-97.427,339.7,23.96,15.17,331,-0.313,2.072,9.263,1
89,35.339,-97.427,341.1,23.85,15.17,330,-0.317,2.143,9.55,1
90,35.339,-97.427,342.5,24.13,15.17,330,-0.297,1.983,9.435,0
91,35.339,-97.427,344.3,23.41,13.653,331,-0.257,2.241,9.285,1
92,35.339,-97.427,346.1,23.69,15.17,330,-0.716,2.542,9.283,1
93,35.339,-97.427,347.5,23.72,15.17,330,-0.489,2.422,9.481,0
94,35.34,-97.427,349.1,23.52,15.17,331,-0.202,2.37,9.467,1
95,35.34,-97.427,350,23.74,15.17,330,-0.171,2.306,9.496,1
96,35.34,-97.428,352.4,23.89,15.17,331,-0.235,2.3,9.189,0
97,35.34,-97.428,353.6,24.09,15.17,331,-0.235,2.415,9.438,0
98,35.34,-97.428,354.9,24.21,15.17,330,-0.06,2.277,9.029,1
99,35.341,-97.428,357.3,24.13,15.17,332,-0.333,2.27,9.22,0
100,35.341,-97.428,359.2,24.23,15.17,331,-0.399,2.201,9.371,0
101,35.341,-97.428,0.8,24.16,13.653,331,-0.336,2.284,9.407,1
102,35.341,-97.428,1.6,23.88,15.17,330,-0.506,2.371,9.391,0
103,35.341,-97.428,4.5,24.14,13.653,329,-0.614,2.305,9.131,1
104,35.342,-97.428,5.1,24.01,15.17,329,-0.494,2.476,9.409,0
105,35.342,-97.427,6.7,24.52,13.653,330,-0.229,2.46,9.435,1
106,35.342,-97.427,7.3,24.46,15.17,329,-0.01,2.366,9.459,0
107,35.342,-97.427,9.1,24.83,13.653,329,-0.241,2.081,9.135,1
108,35.343,-97.427,9.8,24.77,15.17,329,-0.792,2.465,9.564,0
109,35.343,-97.427,11.1,24.66,16.687,330,-0.109,2.426,9.12,0
110,35.343,-97.427,15.2,24.05,16.687,330,-0.312,2.441,9.328,1
111,35.343,-97.427,15.8,24.51,15.17,332,-0.197,2.476,9.446,1
113,35.343,-97.427,18.2,24.55,15.17,331,-0.225,2.515,9.213,1
113,35.343,-97.427,18.2,24.55,15.17,331,-0.225,2.515,9.213,1
114,35.344,-97.427,22.2,26.12,15.17,332,-0.849,2.48,9.321,1
115,35.344,-97.427,22.8,26.05,15.17,332,-0.879,2.207,9.157,0
116,35.344,-97.427,22.9,26,15.17,333,-0.516,2.036,9.378,1
117,35.344,-97.426,23,25.35,15.17,332,-0.866,1.946,9.549,1
118,35.345,-97.426,23.4,25.31,15.17,332,-0.72,1.946,9.358,0
119,35.345,-97.426,23.3,25.44,15.17,332,-0.811,2.485,9.25,0
120,35.345,-97.426,23.1,24.8,15.17,331,-0.877,2.679,9.372,1
121,35.345,-97.426,23.5,25.22,15.17,331,-0.964,2.723,9.116,1
122,35.346,-97.426,23.4,25.64,15.17,330,-0.777,2.049,9.059,1
123,35.346,-97.426,23.4,25.91,15.17,330,-0.849,2.137,9.435,1
124,35.346,-97.426,22.9,26.33,15.17,330,-0.664,2.161,9.207,0
125,35.346,-97.426,23.1,26.11,15.17,330,-0.902,2.297,9.29,1
126,35.346,-97.425,23.1,25.85,15.17,330,-0.857,2.147,9.178,1
127,35.347,-97.425,22.9,25.57,15.17,331,-0.615,2.172,9.478,1
128,35.347,-97.425,22.3,25.47,15.17,333,-0.805,2.298,9.1,1
129,35.347,-97.425,22.3,25.71,15.17,332,-0.773,2.034,9.427,1
130,35.347,-97.425,22.2,25.9,15.17,334,-0.724,1.451,9.727,0
131,35.348,-97.425,21.9,25.45,15.17,334,-0.669,0.129,10.428,0
132,35.348,-97.425,21.1,24.04,15.17,335,-0.984,-0.129,10.437,0
133,35.348,-97.425,21.2,21.69,15.17,335,-0.965,-0.3,10.562,0
134,35.348,-97.425,19.7,19.32,15.17,336,-1.386,0.348,9.68,0
135,35.348,-97.425,18.3,16.63,15.17,333,-1.177,0.448,9.797,0
136,35.348,-97.425,14.5,15.11,15.17,333,0.257,1.253,9.818,1
137,35.348,-97.425,12.9,13.41,15.17,333,0.061,0.833,9.532,0
138,35.349,-97.424,15.4,12.09,15.17,333,-0.36,0.692,9.792,0
139,35.349,-97.424,16.1,10.55,15.17,333,-2.334,1.056,9.64,0
140,35.349,-97.424,17.8,8.56,15.17,333,-4.581,1.703,9.286,0
141,35.349,-97.424,3.8,7.71,15.17,334,-4.736,2.159,9.124,0
142,35.349,-97.424,355,6.92,15.17,335,-3.869,2.834,8.691,0
143,35.349,-97.424,352.1,5.64,16.687,335,-1.722,3.315,8.942,0
145,35.349,-97.425,292,8.09,15.17,334,-0.962,3.524,9.222,0
145,35.349,-97.425,292,8.09,15.17,334,-0.962,3.524,9.222,0
146,35.349,-97.425,272.4,10.05,15.17,335,-0.244,2.74,8.666,0
147,35.349,-97.425,269.6,10.35,16.687,336,-0.48,2.164,9.508,0
148,35.349,-97.425,267.3,10.1,18.204,336,-0.838,2.033,9.201,0
149,35.349,-97.425,268,11.54,18.204,336,-0.787,2.245,9.574,0
150,35.349,-97.425,267.6,11.95,18.204,335,-0.781,2.209,9.746,0
151,35.349,-97.425,265.8,10.96,19.721,335,-0.845,2.076,9.581,1
152,35.349,-97.426,270.7,13.17,16.687,334,-0.798,2.482,9.633,0
153,35.349,-97.426,271.5,13.31,16.687,333,-0.995,2.944,9.441,0
154,35.349,-97.426,272.4,13.74,16.687,330,-0.649,2.767,9.108,0
155,35.349,-97.426,269.4,14.04,16.687,330,-0.905,2.698,8.953,0
156,35.349,-97.426,269,14.19,16.687,331,-0.768,2.836,9.47,0
157,35.349,-97.427,269.4,14.82,16.687,331,-1,2.94,9.547,0
158,35.349,-97.427,270,15.15,16.687,331,-0.451,2.561,8.291,1
159,35.349,-97.427,269.9,15.37,16.687,332,-1.123,2.851,9.285,0
160,35.349,-97.427,270.2,14.82,16.687,333,-0.913,2.858,9.619,0
161,35.349,-97.427,270.2,16.02,18.204,332,-1.248,2.585,9.347,0
162,35.349,-97.428,271.2,16.88,16.687,333,-1.125,2.717,8.302,1
163,35.349,-97.428,269,16.48,16.687,333,-0.961,2.398,9.771,0
164,35.349,-97.428,269.9,17.46,15.17,332,-1.036,2.333,9.017,0
165,35.349,-97.428,270.3,17.36,15.17,334,-0.939,2.227,8.945,0
166,35.349,-97.428,270.2,17.3,15.17,334,-0.988,2.598,9.599,0
167,35.349,-97.428,271.1,16.82,16.687,334,-0.624,2.807,8.901,0
168,35.349,-97.429,269.8,16.99,16.687,334,-1.021,2.694,8.963,0
169,35.349,-97.429,270.7,17.06,16.687,334,-0.847,2.515,8.405,0
170,35.349,-97.429,269.5,17.06,15.17,337,-0.943,2.948,9.594,0
171,35.349,-97.429,268.6,16.58,15.17,337,-0.805,2.814,8.891,0
172,35.349,-97.429,269.5,17.23,15.17,337,-0.855,3.181,9.889,0
174,35.349,-97.43,269,17.97,15.17,336,-0.98,2.098,8.864,0
174,35.349,-97.43,269,17.97,15.17,336,-0.98,2.098,8.864,0
175,35.349,-97.43,269.3,16.74,15.17,339,-0.718,2.477,9.118,0
176,35.349,-97.43,269,16.96,15.17,338,-0.295,2.611,9.524,0
177,35.349,-97.43,271,16.52,15.17,340,-0.815,2.775,9.203,0
178,35.349,-97.431,271.9,16.62,15.17,339,-1.093,2.795,9.14,0
179,35.349,-97.431,272.1,17.07,15.17,341,-0.997,2.758,9.357,0
180,35.349,-97.431,271.9,17.11,15.17,339,-0.975,2.613,9.225,0
181,35.349,-97.431,270,17.45,16.687,339,-0.802,2.181,9.276,0
182,35.349,-97.431,270.1,17.04,15.17,341,-0.903,2.192,9.73,0
183,35.349,-97.431,270.1,16.78,15.17,339,-0.916,2.331,9.198,0
184,35.349,-97.432,268.7,16.55,15.17,341,-0.957,2.534,9.199,0
185,35.349,-97.432,269.8,16.36,15.17,342,-1.577,3.01,10.474,0
186,35.349,-97.432,271.3,16.43,15.17,343,-1.195,2.601,8.447,0
187,35.349,-97.432,270.5,16.34,15.17,343,-1.492,3.044,10.644,0
188,35.349,-97.432,270.6,16.65,15.17,344,-0.873,3,9.765,0
189,35.349,-97.433,270.4,17.15,15.17,344,-0.894,2.87,8.981,0
190,35.349,-97.433,269.3,17.57,15.17,346,-1.35,2.937,9.363,0
191,35.349,-97.433,270.5,17.94,15.17,349,-0.745,2.045,9.481,1
192,35.349,-97.433,270,18.61,15.17,348,-0.676,2.007,9.018,0
193,35.349,-97.433,270,18.45,15.17,350,-0.834,2.505,9.355,0
194,35.349,-97.434,271.2,18.21,16.687,351,-0.939,2.571,9.631,0
195,35.349,-97.434,270.3,18.39,18.204,350,-0.912,2.599,9.629,0
196,35.349,-97.434,270.1,18.52,19.721,351,-0.747,2.202,8.987,0
197,35.349,-97.434,269.6,19.03,19.721,351,-0.637,2.164,9.949,0
198,35.349,-97.434,271,19.96,19.721,350,-0.701,2.075,9.589,0
199,35.349,-97.435,274.3,19.88,19.721,348,-1.096,2.133,9.242,0
200,35.349,-97.435,270.5,17.61,16.687,348,-0.715,2.242,9.325,0
201,35.349,-97.435,271,17.31,16.687,350,-0.428,2.212,9.13,1
202,35.349,-97.435,270.6,16.98,16.687,349,-0.993,2.216,9.352,1
203,35.349,-97.435,269.7,16.79,16.687,349,-0.854,2.202,8.977,0
204,35.349,-97.435,270.6,17.18,15.17,350,-0.981,2.279,9.219,0
205,35.349,-97.436,270.8,17.25,15.17,352,-0.837,2.06,9.483,0
207,35.349,-97.436,268.7,17.77,16.687,352,-0.807,2.018,9.537,0
207,35.349,-97.436,268.7,17.77,16.687,352,-0.807,2.018,9.537,0
208,35.349,-97.436,267.7,17.95,18.204,353,-1.309,1.443,10.506,0
209,35.349,-97.436,266,17.02,19.721,352,-0.473,0.261,9.07,0
210,35.349,-97.437,269.7,17.26,19.721,351,-1.331,0.93,9.633,0
211,35.349,-97.437,268.6,15.76,16.687,351,-1.285,1.681,10.386,0
212,35.349,-97.437,269.8,15.67,16.687,351,-1.202,2.244,9.515,0
213,35.349,-97.437,269.6,15.55,18.204,351,-1.175,2.212,10.287,0
214,35.349,-97.437,270.7,14.28,16.687,350,-0.627,2.105,9.03,0
215,35.349,-97.437,267.7,13.52,16.687,350,-0.301,2.22,8.988,1
216,35.349,-97.438,269.5,13.06,16.687,349,-0.933,2.341,8.916,1
217,35.349,-97.438,268.4,13.34,18.204,350,-0.662,2.345,8.44,0
218,35.349,-97.438,270.8,13.86,19.721,349,-1.453,2.865,10.029,0
219,35.349,-97.438,269.1,13.34,16.687,350,-0.772,2.979,9.11,0
220,35.349,-97.438,269.1,13.45,16.687,351,-0.946,3.276,8.992,1
221,35.349,-97.438,269.9,14.22,16.687,353,-1.204,3.319,9.266,0
222,35.349,-97.438,270.2,14.98,15.17,354,-1.088,3.369,9.262,0
223,35.349,-97.439,270.9,15.64,15.17,355,-0.69,3.165,8.98,0
224,35.349,-97.439,272.4,16.51,15.17,356,-0.578,2.229,8.716,0
225,35.349,-97.439,270.4,16.52,15.17,355,-0.903,2.53,9.057,0
226,35.349,-97.439,269.8,16.3,15.17,356,-1.125,2.535,9.178,0
227,35.349,-97.439,270.7,15.78,15.17,354,-0.783,2.423,9.133,0
228,35.349,-97.44,268.4,16.29,15.17,356,-1.264,2.839,9.3,0
229,35.349,-97.44,269.8,15.79,15.17,356,-1.395,2.621,10.353,0
230,35.349,-97.44,270.1,15.84,15.17,358,-1.659,2.256,9.403,0
231,35.349,-97.44,270.6,15.94,15.17,358,-1.509,2.149,9.837,0
232,35.349,-97.44,270.5,15.93,15.17,358,-1.005,1.216,9.519,0
233,35.349,-97.44,270.8,15.69,15.17,359,-0.993,1.264,9.736,0
234,35.349,-97.441,273.8,15.6,16.687,357,-0.868,0.612,9.329,0
235,35.349,-97.441,273.1,13.94,16.687,358,-0.981,1.374,9.641,0
236,35.349,-97.441,274.8,13.09,16.687,357,-0.863,1.091,9.8,0
237,35.349,-97.441,276.6,12.22,16.687,358,-1.267,0.705,9.938,0
238,35.349,-97.441,277.5,10.68,16.687,357,-1.624,0.963,10.509,0
239,35.349,-97.441,277.2,10.27,18.204,356,-1.454,0.757,10.526,0
240,35.349,-97.441,280.3,9.61,18.204,355,-1.436,0.748,9.888,0
241,35.349,-97.441,283.7,8.77,19.721,355,-0.94,1.295,10.019,0
242,35.349,-97.441,280.1,6.61,21.238,355,-1.22,2.05,9.381,1
243,35.349,-97.441,274.8,3.69,21.238,355,-1.252,4.123,8.642,1
244,35.349,-97.441,260.8,1.35,19.721,356,-1.569,4.372,8.61,0
245,35.349,-97.441,242.2,1.63,19.721,354,-3.088,3.406,9.235,0
246,35.349,-97.441,243.1,2.26,18.204,355,-5.238,2.97,8.881,0
248,35.349,-97.441,232.2,5.95,18.204,354,-2.84,3.521,8.713,0
248,35.349,-97.441,232.2,5.95,18.204,354,-2.84,3.521,8.713,0
249,35.349,-97.441,186.2,8.21,16.687,355,-1.115,3.976,8.679,1
250,35.349,-97.441,178.6,10.6,16.687,355,-0.832,3.325,8.962,1
251,35.348,-97.441,180.7,11.53,15.17,356,-0.961,3.437,8.972,1
252,35.348,-97.441,180.7,12.93,15.17,356,-0.999,3.458,8.876,1
253,35.348,-97.441,182.1,14.57,15.17,340,-1.037,3.388,8.987,1
254,35.348,-97.441,180.5,15.49,15.17,342,-0.98,2.641,9.221,1
255,35.348,-97.441,177.8,16.28,15.17,344,-0.986,2.646,9.31,1
256,35.348,-97.441,180.4,17.01,15.17,346,-0.997,2.779,9.113,0
257,35.348,-97.441,179,17.63,15.17,347,-0.861,2.822,9.018,1
258,35.347,-97.441,178.2,17.97,15.17,351,-0.75,2.929,9.099,1
259,35.347,-97.441,180.3,18.76,15.17,352,-0.986,2.917,9.089,1
260,35.347,-97.441,179.9,19.45,15.17,354,-1.072,2.984,9.227,0
261,35.347,-97.441,180.1,20.11,15.17,356,-0.887,2.904,9.167,1
262,35.347,-97.441,179.9,20.94,15.17,356,-0.909,2.583,9.405,1
263,35.346,-97.441,178.7,21.58,15.17,356,-1.086,2.428,9.412,0
264,35.346,-97.441,178.2,21.7,15.17,356,-1.043,2.42,9.298,0
265,35.346,-97.441,180,21.5,15.17,355,-0.831,2.26,8.542,0
266,35.346,-97.441,178.8,21.57,15.17,354,-0.879,2.587,9.541,0
267,35.346,-97.441,180,22.05,15.17,354,-0.793,2.148,9.334,1
268,35.345,-97.441,180.2,22.62,15.17,354,-0.679,2.119,9.266,1
269,35.345,-97.441,180.4,22.91,15.17,354,-0.81,2.144,9.235,1
270,35.345,-97.441,179.5,22.55,15.17,354,-0.877,2.199,9.532,1
271,35.345,-97.441,181.3,22.04,15.17,354,-1.056,2.216,9.603,1
272,35.345,-97.441,180.7,22.34,15.17,355,-0.565,2.351,9.342,0
273,35.344,-97.441,180.1,22.24,15.17,356,-0.994,2.561,9.853,0
274,35.344,-97.441,181.4,22.27,15.17,356,-1.027,2.893,9.471,1
275,35.344,-97.441,181.4,22.56,15.17,358,-1.082,2.797,9.174,0
276,35.344,-97.441,180.4,23.53,15.17,356,-0.553,2.526,8.923,0
277,35.344,-97.441,179.4,24.19,15.17,354,-0.877,2.069,9.441,0
278,35.343,-97.441,179.7,24.53,15.17,354,-0.519,2.287,9.946,0
279,35.343,-97.441,180.4,24.62,15.17,353,-1.052,2.104,9.808,0
280,35.343,-97.441,180.6,24.58,15.17,353,-0.995,2.09,9.863,0
281,35.343,-97.441,178.8,24.45,15.17,353,-0.733,1.823,8.87,0
282,35.342,-97.441,179.8,24.65,15.17,352,-1.005,2.15,9.55,0
283,35.342,-97.441,180.7,23.97,15.17,349,-0.794,2.251,9.232,1
284,35.342,-97.441,178.8,24.37,15.17,349,-0.747,2.212,9.022,0
285,35.342,-97.441,179.5,24.47,15.17,349,-1.003,2.317,9.338,0
286,35.342,-97.441,179.5,23.84,15.17,349,-1.113,2.171,9.652,0
287,35.341,-97.441,179.5,24.03,15.17,348,-0.643,2.011,9.2,0
288,35.341,-97.441,178.6,23.66,16.687,347,-0.562,2.05,9.145,1
290,35.341,-97.441,179.8,23.4,15.17,347,-0.98,2.278,9.318,0
290,35.341,-97.441,179.8,23.4,15.17,347,-0.98,2.278,9.318,0
291,35.34,-97.441,179.6,23.15,15.17,347,-0.882,2.433,9.407,1
292,35.34,-97.441,180,23.33,15.17,347,-0.863,2.204,9.182,1
293,35.34,-97.441,179.6,23.84,15.17,349,-0.94,2.04,9.39,1
294,35.34,-97.441,180.2,23.85,15.17,349,-0.777,1.933,9.541,0
295,35.34,-97.441,180,23.32,15.17,348,-0.687,1.921,9.423,1
296,35.339,-97.441,180.4,23.15,15.17,348,-0.944,2.364,9.418,0
297,35.339,-97.441,179.8,22.84,15.17,347,-1.246,2.354,9.45,0
298,35.339,-97.441,180.3,23.17,15.17,346,-1.03,2.353,9.311,1
299,35.339,-97.441,180.3,23.34,15.17,347,-0.949,2.393,9.279,0
300,35.339,-97.441,179.5,23.59,15.17,348,-0.888,2.294,9.24,0
301,35.338,-97.441,179.3,24.06,15.17,348,-0.435,2.134,9.703,1
302,35.338,-97.441,179.4,24.05,15.17,347,-0.817,1.969,9.496,1
303,35.338,-97.441,179.5,23.99,15.17,348,-0.836,1.889,9.336,1
304,35.338,-97.441,180,23.82,15.17,348,-1.014,1.902,9.324,0
305,35.338,-97.441,179.3,23.45,15.17,349,-0.957,1.916,9.313,0
306,35.337,-97.441,178.5,23.44,15.17,346,-0.987,1.933,9.407,0
307,35.337,-97.441,180.4,23.1,15.17,347,-0.864,1.875,9.243,1
308,35.337,-97.441,180.1,22.81,15.17,347,-1.118,2.116,9.943,0
309,35.337,-97.441,179.6,22.85,15.17,349,-0.932,1.779,9.108,0
310,35.337,-97.441,180,23.2,15.17,349,-0.982,1.941,9.328,1
311,35.336,-97.441,179.8,23.19,15.17,349,-0.774,2.14,9.487,0
312,35.336,-97.441,179.3,22.66,15.17,349,-0.899,2.163,9.757,0
313,35.336,-97.441,180.5,22.5,15.17,349,-0.855,2.51,9.379,1
314,35.336,-97.441,179.3,22.39,15.17,349,-1.052,2.624,9.319,0
315,35.335,-97.441,180.3,23.19,15.17,348,-1.157,2.871,10.007,0
316,35.335,-97.441,181,23.4,15.17,347,-0.941,2.038,9.348,0
317,35.335,-97.441,181.5,24.04,15.17,346,-1.299,1.851,10.061,0
318,35.335,-97.441,181,24.15,15.17,348,-1.226,1.719,9.779,0
319,35.335,-97.441,180.7,23.63,15.17,348,-0.807,1.809,9.878,0
320,35.334,-97.441,180.3,23.03,15.17,347,-0.915,1.882,9.624,0
322,35.334,-97.441,179.7,22.88,15.17,338,-0.943,1.919,9.781,0
322,35.334,-97.441,179.7,22.88,15.17,338,-0.943,1.919,9.781,0
323,35.334,-97.441,178.4,22.45,15.17,341,-0.759,1.803,9.343,0
324,35.334,-97.441,178.3,22.07,15.17,341,-0.706,2.221,9.26,0
325,35.333,-97.441,179.4,21.67,15.17,342,-0.946,2.286,9.448,1
326,35.333,-97.441,180.5,22.28,15.17,341,-0.872,2.334,9.147,0
327,35.333,-97.441,179.2,21.85,15.17,341,-0.68,2.304,9.127,0
328,35.333,-97.441,179.4,22.03,15.17,342,-0.719,2.075,9.041,0
329,35.333,-97.441,180.5,21.84,15.17,342,-0.623,1.932,9.067,0
330,35.332,-97.441,179.5,22.11,15.17,341,-0.739,2.331,9.722,0
331,35.332,-97.441,179.5,22.23,15.17,340,-0.887,2.088,9.556,1
332,35.332,-97.441,180,22.07,15.17,341,-0.89,1.921,9.179,0
333,35.332,-97.441,178.9,22,15.17,340,-0.628,2.184,9.414,0
334,35.332,-97.441,180.5,21.78,15.17,341,-1.048,2.254,9.289,1
335,35.331,-97.441,180.7,21.71,15.17,340,-1.033,2.273,9.577,0
336,35.331,-97.441,179.9,22.56,15.17,337,-0.622,2.05,9.425,0
337,35.331,-97.441,179.1,22.25,15.17,337,-0.713,1.914,9.168,1
338,35.331,-97.441,178.8,21.63,15.17,337,-0.611,2.272,9.149,0
339,35.331,-97.441,180.1,22.16,15.17,337,-0.518,2.357,9.215,1
340,35.33,-97.441,179.2,22.44,15.17,337,-0.757,2.45,9.509,0
341,35.33,-97.441,180.3,22.25,15.17,337,-0.735,2.252,8.878,0
342,35.33,-97.441,180.9,22.56,15.17,338,-0.806,2.127,9.199,1
343,35.33,-97.441,180.5,22.5,15.17,337,-0.785,2.259,9.504,0
344,35.33,-97.441,179.9,22.39,15.17,336,-0.876,2.386,9.447,1
345,35.329,-97.441,181.3,22.68,15.17,337,-0.77,2.368,9.037,0
346,35.329,-97.441,180.3,22.58,15.17,336,-0.824,2.367,8.963,0
347,35.329,-97.441,180.7,22.83,15.17,336,-0.681,2.458,9.444,0
348,35.329,-97.441,179.4,22.83,13.653,337,-0.804,2.328,9.382,1
350,35.329,-97.441,180.5,23.41,13.653,337,-0.747,2.274,9.363,0
350,35.329,-97.441,180.5,23.41,13.653,337,-0.747,2.274,9.363,0
351,35.328,-97.441,179.2,23.38,15.17,337,-0.623,2.342,9.019,0
352,35.328,-97.441,180.1,23.39,15.17,336,-0.705,2.483,9.484,1
353,35.328,-97.441,180.3,23.66,15.17,337,-0.744,2.495,9.637,1
354,35.328,-97.441,180.1,24.14,15.17,335,-0.897,2.478,9.383,0
355,35.327,-97.441,181.2,23.89,15.17,335,-1.011,2.47,9.294,1
356,35.327,-97.441,180.2,24.13,13.653,335,-0.586,2.423,9.352,1
357,35.327,-97.441,179.8,24.7,13.653,335,-0.835,2.316,9.096,1
358,35.327,-97.441,179.6,24.8,13.653,335,-1.02,2.455,9.586,0
359,35.326,-97.441,180,25.3,13.653,336,-0.945,2.108,9.529,0
360,35.326,-97.441,180.3,25.06,15.17,336,-0.878,1.883,9.287,1
361,35.326,-97.441,180,25.21,13.653,335,-0.83,1.764,8.615,0
362,35.326,-97.441,179.7,24.77,15.17,337,-0.849,2.237,9.651,0
363,35.326,-97.441,180.2,24.72,15.17,337,-0.951,2.158,9.829,0
364,35.325,-97.441,179.1,24.93,15.17,338,-0.479,1.907,9.057,0
365,35.325,-97.441,179.8,24.82,15.17,338,-1.064,1.967,9.237,1
366,35.325,-97.441,180.3,24.36,15.17,337,-0.827,2.105,9.509,0
367,35.325,-97.441,180,24.35,15.17,336,-0.961,1.904,9.152,1
368,35.324,-97.441,179.6,24.32,15.17,336,-0.911,2.265,9.859,0
369,35.324,-97.441,179.5,23.9,15.17,334,-0.966,2.041,9.391,0
370,35.324,-97.441,179.3,23.73,15.17,337,-0.915,2.101,9.84,0
371,35.324,-97.441,182,23.59,15.17,335,-0.949,2.06,9.594,0
372,35.324,-97.441,182.1,23.43,15.17,334,-1.112,2.062,9.691,0
373,35.323,-97.441,180.1,23.45,15.17,334,-0.715,1.904,9.036,0
374,35.323,-97.441,178.7,23.39,15.17,334,-0.755,2.116,9.244,0
375,35.323,-97.441,179.3,23.02,15.17,335,-0.965,2.228,9.463,0
376,35.323,-97.441,180.4,22.66,15.17,337,-1.048,2.068,9.397,0
377,35.322,-97.441,179.4,22.74,15.17,338,-1.247,2.041,9.446,1
378,35.322,-97.441,180.4,22.46,15.17,336,-1.166,1.977,9.189,1
380,35.322,-97.441,180,21.9,15.17,337,-1.002,2.119,9.679,1
380,35.322,-97.441,180,21.9,15.17,337,-1.002,2.119,9.679,1
381,35.322,-97.441,180.2,22.01,15.17,339,-1.203,2.065,9.585,1
382,35.322,-97.441,179.8,21.88,15.17,339,-0.912,2.06,9.619,0
383,35.321,-97.441,178.7,21.5,15.17,338,-1.069,1.852,9.8,0
384,35.321,-97.441,178.7,20.8,15.17,338,-1.19,1.217,10.087,0
385,35.321,-97.441,179.5,19.75,15.17,337,-0.976,1.057,9.403,0
386,35.321,-97.441,180.5,18.66,15.17,337,-1.151,1.16,9.65,0
387,35.321,-97.441,179.6,17.77,15.17,336,-0.986,1.339,9.728,0
388,35.32,-97.441,180,15.67,15.17,337,-1.047,1.187,9.696,0
389,35.32,-97.441,179.2,14.91,15.17,338,-1.015,0.957,9.647,1
390,35.32,-97.441,180.6,13.13,15.17,337,-0.974,1.013,9.607,1
391,35.32,-97.441,181,11.43,15.17,335,-0.9,0.379,9.897,0
392,35.32,-97.441,184.6,9.43,16.687,334,-0.957,1.817,9.34,1
393,35.32,-97.441,181.2,8.34,16.687,335,-0.926,1.851,9.401,1
394,35.32,-97.441,179.5,7.3,16.687,333,-0.932,1.194,9.579,1
395,35.32,-97.441,177.7,6.21,16.687,334,-0.846,1.229,9.585,1
396,35.32,-97.441,174.6,5.31,16.687,335,-0.952,1.575,9.613,1
397,35.32,-97.441,184.5,4.01,16.687,335,-1.008,1.671,9.581,1
398,35.32,-97.441,181.7,3.12,16.687,335,-1.071,1.608,9.679,0
399,35.32,-97.441,181.7,3.12,16.687,335,-1.039,2.301,9.367,1
400,35.32,-97.441,181.7,3.12,16.687,335,-1.045,2.28,9.321,1
401,35.32,-97.441,180.7,1.08,16.687,336,-1.063,2.362,9.298,1
402,35.32,-97.441,180.7,1.08,16.687,336,-1.058,2.613,9.265,1
403,35.32,-97.441,180.7,1.08,16.687,336,-1.042,3.443,8.97,1
404,35.32,-97.441,175.3,0.6,15.17,337,-1.06,2.922,9.094,1
405,35.32,-97.441,175.1,0.65,15.17,337,-0.982,2.358,9.309,1
406,35.32,-97.441,185,1.09,15.17,337,-0.958,1.729,9.465,1
407,35.32,-97.441,189.1,1.66,15.17,337,-0.983,1.994,9.373,1
408,35.32,-97.441,206.6,1.04,15.17,338,-0.987,2.548,9.277,1
409,35.32,-97.441,206.6,1.04,15.17,338,-0.984,2.639,9.166,1
410,35.32,-97.441,206.6,1.04,15.17,338,-0.967,4.107,8.743,1
411,35.32,-97.441,0,0,15.17,338,-0.865,4.571,8.355,1
412,35.32,-97.441,0,0,15.17,338,-0.844,3.929,8.932,1
414,35.32,-97.441,0,0,15.17,338,-0.828,3.887,8.872,1
414,35.32,-97.441,0,0,15.17,338,-0.828,3.887,8.872,1
415,35.32,-97.441,176.8,6.28,15.17,337,-0.776,3.911,8.65,1
416,35.32,-97.441,178.5,7.68,15.17,336,-0.876,3.751,8.567,1
417,35.32,-97.441,178.6,9.57,15.17,336,-1.077,3.721,8.829,0
418,35.319,-97.441,180.4,10.92,15.17,338,-1.073,3.486,8.89,1
419,35.319,-97.441,178.5,12.35,15.17,338,-0.934,3.545,9.02,1
420,35.319,-97.441,176.3,13.34,15.17,338,-0.713,3.353,8.779,1
421,35.319,-97.441,176.2,14.63,15.17,338,-0.762,3.451,9.017,1
422,35.319,-97.441,179.1,15.61,15.17,337,-0.886,3.02,8.931,1
423,35.319,-97.441,180.8,17.11,15.17,335,-0.999,2.961,9.228,1
424,35.319,-97.441,180.5,17.69,15.17,333,-1.065,2.836,8.997,0
425,35.318,-97.441,180.2,18.72,15.17,333,-1.014,2.795,9.022,1
426,35.318,-97.441,181.4,19.57,15.17,334,-1.099,2.145,9.441,0
427,35.318,-97.441,179.7,19.78,15.17,333,-1.154,2.06,9.31,1
428,35.318,-97.441,181,19.39,15.17,332,-1.311,2.16,9.563,0
429,35.318,-97.441,180.7,19.69,15.17,334,-0.902,2.337,9.369,1
430,35.318,-97.441,180.3,19.75,15.17,333,-1.203,2.484,9.637,0
431,35.317,-97.441,180.4,19.88,15.17,334,-1.04,2.464,9.416,1
432,35.317,-97.441,180.6,20.13,15.17,333,-0.851,2.602,9.254,1
433,35.317,-97.441,180,20.5,15.17,334,-0.987,2.62,9.28,0
434,35.317,-97.441,179.2,21.4,15.17,334,-0.975,2.632,9.047,1
435,35.317,-97.441,181.6,21.7,15.17,333,-0.753,2.503,8.989,1
436,35.316,-97.441,180.4,22.48,15.17,333,-0.826,2.102,9.296,0
437,35.316,-97.441,179.7,23,15.17,332,-1.127,2.015,9.212,0
438,35.316,-97.441,179.8,23.08,15.17,329,-0.89,2.067,9.138,0
439,35.316,-97.441,180.8,23.23,15.17,329,-0.907,2.162,9.409,1
440,35.315,-97.441,181.4,23.07,15.17,328,-0.887,2.175,9.256,1
441,35.315,-97.441,180.4,23.15,15.17,327,-1.135,2.226,9.395,1
442,35.315,-97.441,179.5,23.01,15.17,326,-1.198,2.171,9.48,1
443,35.315,-97.441,179.9,23.23,15.17,326,-1.105,1.892,8.89,0
444,35.315,-97.441,180.8,23.77,15.17,326,-1.351,2.004,9.453,1
445,35.314,-97.441,180,23.54,15.17,325,-1.033,1.964,9.48,0
446,35.314,-97.441,180.9,23.16,15.17,322,-1.32,2.005,9.496,0
447,35.314,-97.441,179.9,23.19,15.17,321,-0.998,1.794,8.833,0
448,35.314,-97.441,180.3,22.93,15.17,321,-1.008,2.027,9.62,0
449,35.314,-97.441,180.3,23.12,15.17,320,-1.207,1.983,9.517,0
451,35.313,-97.441,180.6,23.08,15.17,321,-1.033,2.085,9.383,0
451,35.313,-97.441,180.6,23.08,15.17,321,-1.033,2.085,9.383,0
452,35.313,-97.441,180,22.63,15.17,321,-0.95,2.167,9.324,1
453,35.313,-97.441,180.1,22.49,15.17,321,-0.947,2.174,9.396,1
454,35.313,-97.441,180.3,22.44,13.653,320,-0.792,2.082,8.692,0
455,35.312,-97.441,181.4,22.49,15.17,322,-1.143,2.255,8.85,0
456,35.312,-97.441,180.3,22.13,13.653,322,-0.671,2.439,9.435,0
457,35.312,-97.441,180.5,21.99,15.17,320,-0.88,2.095,9.135,0
458,35.312,-97.441,181.2,22.49,15.17,321,-1.279,2.156,9.412,1
459,35.312,-97.441,180.9,22.21,15.17,319,-1.136,2.085,9.424,1
460,35.311,-97.441,180.3,22.02,15.17,319,-1.232,2.082,9.282,1
461,35.311,-97.441,180.3,21.87,15.17,319,-1.049,2.281,9.433,1
462,35.311,-97.441,180.2,21.95,15.17,319,-0.772,2.258,9.341,0
463,35.311,-97.441,180.2,22,15.17,320,-0.808,2.197,9.485,0
464,35.311,-97.441,179.7,22.1,15.17,320,-0.95,2.258,9.234,1
465,35.31,-97.441,181.6,21.8,15.17,321,-1.011,2.288,9.247,1
466,35.31,-97.441,180.8,21.42,15.17,320,-0.858,2.284,9.247,0
467,35.31,-97.441,180.1,21.74,16.687,320,-0.818,2.106,9.446,1
468,35.31,-97.441,180.8,22.04,16.687,320,-0.85,2.038,9.311,0
469,35.31,-97.441,180.1,21.91,16.687,320,-0.991,2.043,9.453,1
470,35.309,-97.441,181.2,22.01,15.17,320,-1.214,2.111,9.838,0
471,35.309,-97.441,181.1,21.51,15.17,322,-1.172,1.992,9.244,0
472,35.309,-97.441,181.6,21.17,15.17,322,-1.098,2.076,9.697,0
473,35.309,-97.441,181.6,20.98,15.17,323,-0.968,2.019,9.556,1
474,35.309,-97.441,180.4,20.84,15.17,323,-0.831,2.39,9.253,0
475,35.308,-97.441,179,20.17,15.17,323,-1.171,2.532,9.412,0
476,35.308,-97.441,179.6,20.05,15.17,325,-1.066,2.084,9.233,0
477,35.308,-97.441,180.8,20.93,15.17,326,-1.027,1.921,9.387,1
478,35.308,-97.441,180.4,20.87,15.17,329,-1.047,1.945,9.532,1
479,35.308,-97.441,180.5,20.31,15.17,327,-1.111,1.874,9.608,1
480,35.308,-97.441,179.7,20.17,15.17,326,-1.068,1.853,9.386,1
481,35.307,-97.441,180.8,19.43,15.17,325,-0.885,1.893,9.457,1
482,35.307,-97.441,180.2,19.31,15.17,325,-0.953,1.922,9.454,1
484,35.307,-97.441,179.1,19.12,15.17,323,-0.951,2.07,9.299,1
484,35.307,-97.441,179.1,19.12,15.17,323,-0.951,2.07,9.299,1
485,35.307,-97.441,179.9,19.03,15.17,323,-0.95,1.977,9.431,1
486,35.307,-97.441,180.6,18.77,15.17,322,-1.017,1.957,9.172,1
487,35.306,-97.441,180.2,18.77,15.17,321,-1.404,1.993,9.436,0
488,35.306,-97.441,180.3,18.71,13.653,320,-1.135,1.195,9.823,0
489,35.306,-97.441,179.8,18.02,15.17,320,-1.008,0.513,9.689,1
490,35.306,-97.441,178.9,16.87,15.17,319,-1.088,0.459,9.844,0
491,35.306,-97.441,180.1,15.25,15.17,318,-1.008,0.185,9.876,0
492,35.306,-97.441,179.8,13.65,15.17,317,-1.067,-0.52,10.115,0
493,35.306,-97.441,179.6,13.45,15.17,318,-1.019,0.192,10.093,0
494,35.305,-97.441,177.6,10.64,16.687,318,-1.134,0.734,9.832,0
495,35.305,-97.441,183.4,6.67,15.17,317,-1.173,0.728,9.801,0
496,35.305,-97.441,180.7,5.29,15.17,318,-1.077,-0.128,9.972,0
497,35.305,-97.441,182.5,3.39,15.17,318,-1.051,0.581,9.826,0
498,35.305,-97.441,183.5,1.83,15.17,314,-1.093,1.428,9.605,1
499,35.305,-97.441,183.3,0.53,15.17,314,-1.104,3.174,9.04,1
500,35.305,-97.441,183.3,0.53,15.17,314,-1.046,4.03,8.729,1
501,35.305,-97.441,184.8,1.75,15.17,315,-0.976,4.095,8.788,1
502,35.305,-97.441,183.4,3.43,15.17,314,-0.937,3.288,8.9,1
503,35.305,-97.441,179.1,5.29,15.17,314,-1.097,3.48,9.096,1
504,35.305,-97.441,182.3,6.85,15.17,313,-1.089,3.688,9.094,1
505,35.305,-97.441,179.5,7.95,15.17,313,-1.284,3.193,8.765,0
506,35.305,-97.441,178.2,9.86,15.17,313,-1.199,2.996,9.288,1
507,35.305,-97.441,178.3,10.94,15.17,312,-0.995,2.808,9.246,1
508,35.305,-97.441,179.7,11.62,15.17,312,-0.979,2.74,9.118,1
509,35.305,-97.441,179.2,12.06,15.17,312,-0.944,2.818,9.177,1
510,35.305,-97.441,181.3,13.41,15.17,312,-0.762,2.869,8.986,0
511,35.304,-97.441,179.4,13.24,15.17,312,-0.714,3.106,9.048,1
513,35.304,-97.441,178.3,14.02,15.17,312,-0.97,3.164,9.018,0
513,35.304,-97.441,178.3,14.02,15.17,312,-0.97,3.164,9.018,0
514,35.304,-97.441,180.3,15.32,15.17,311,-0.627,3.187,9.227,1
515,35.304,-97.441,181.3,16.73,15.17,310,-0.539,2.985,8.968,1
516,35.304,-97.441,182,17.38,15.17,310,-0.938,2.983,8.966,1
517,35.304,-97.441,184.2,18.64,15.17,312,-0.89,2.909,9.254,0
518,35.303,-97.441,184.1,19.01,15.17,313,-0.813,2.391,9.709,0
519,35.303,-97.441,184.6,19.17,15.17,313,-0.623,2.3,9.511,0
520,35.303,-97.441,186.7,19.64,15.17,314,-0.85,2.337,9.202,1
521,35.303,-97.441,186,19.45,15.17,313,-0.915,2.678,9.06,1
522,35.303,-97.442,188.2,20.24,15.17,314,-0.895,2.114,9.422,1
523,35.303,-97.442,187.7,19.9,15.17,314,-0.607,2.019,9.429,1
524,35.302,-97.442,187.1,18.86,15.17,314,-0.491,1.904,9.393,1
525,35.302,-97.442,187.4,19.04,16.687,314,-0.651,1.958,9.441,0
526,35.302,-97.442,189.9,18.8,16.687,314,-0.914,2.493,9.422,0
527,35.302,-97.442,187.4,18.74,16.687,314,-0.784,2.202,9.112,0
528,35.302,-97.442,189.1,18.98,16.687,312,-0.812,2.445,9.583,1
529,35.302,-97.442,188.5,19.11,16.687,312,-0.715,2.246,9.608,0
530,35.301,-97.442,189.1,18.59,16.687,314,-0.611,2.262,8.866,1
531,35.301,-97.442,188.7,18.01,16.687,313,-0.717,2.541,9.274,1
532,35.301,-97.442,189.3,17.82,16.687,312,-0.785,2.663,9.199,1
533,35.301,-97.442,187.7,17.75,16.687,313,-0.765,2.466,9.277,1
534,35.301,-97.442,189.1,17.74,16.687,315,-0.462,2.12,9.405,1
535,35.301,-97.442,188.5,17.4,16.687,316,-0.739,2.317,9.03,1
536,35.3,-97.442,187,18.43,15.17,316,-0.455,2.633,9.354,1
537,35.3,-97.442,188.1,17.76,15.17,314,-0.506,2.502,9.045,1
538,35.3,-97.442,186.5,19.07,15.17,314,-0.62,2.627,9.135,1
539,35.3,-97.442,185.3,18.66,15.17,315,-0.618,2.724,9.57,1
540,35.3,-97.442,185.3,19.59,15.17,314,-0.765,2.495,8.94,0
541,35.3,-97.442,184.9,20.01,15.17,316,-1.013,2.604,9.168,1
542,35.299,-97.442,181.7,20.36,16.687,316,-0.861,2.2,9.257,1
543,35.299,-97.442,180.2,20.67,16.687,316,-0.91,2.487,9.584,1
544,35.299,-97.442,179.2,20.41,16.687,317,-0.795,2.44,8.916,1
545,35.299,-97.442,178,21.34,16.687,318,-1.005,2.246,9.808,0
546,35.299,-97.442,177,21.88,16.687,317,-1.036,2.073,9.437,1
547,35.298,-97.442,176.1,22.46,16.687,318,-0.934,2.007,9.495,0
548,35.298,-97.442,173.2,22.66,16.687,318,-0.808,2.108,9.795,0
549,35.298,-97.442,171.7,21.56,16.687,319,-0.856,2.24,9.898,0
550,35.298,-97.442,169.4,21.72,16.687,319,-0.883,2.022,9.267,0
551,35.298,-97.442,171.3,21.47,16.687,320,-1.119,2.319,9.665,0
553,35.297,-97.442,172.3,21.24,16.687,320,-0.624,2.298,9.296,1
553,35.297,-97.442,172.3,21.24,16.687,320,-0.624,2.298,9.296,1
554,35.297,-97.442,171.7,21.15,16.687,325,-0.994,2.392,9.489,0
555,35.297,-97.442,171.6,21.16,16.687,325,-0.969,2.432,9.254,0
556,35.297,-97.442,172.1,21,15.17,326,-0.999,2.428,9.406,1
557,35.297,-97.442,172.1,21.17,15.17,326,-0.748,2.38,9.166,0
558,35.296,-97.442,172.4,20.81,15.17,326,-0.827,2.311,9.475,1
559,35.296,-97.442,171,20.64,15.17,327,-1.166,2.018,9.34,0
560,35.296,-97.442,171.7,20.56,16.687,326,-1.059,1.931,9.35,0
561,35.296,-97.441,171,20.27,15.17,326,-0.907,2.382,9.277,1
562,35.296,-97.441,171.8,20.29,15.17,325,-0.611,2.428,9.39,0
563,35.295,-97.441,171.7,19.95,15.17,323,-0.41,2.43,9.23,0
564,35.295,-97.441,173.1,19.71,15.17,325,-0.7,2.394,8.874,1
565,35.295,-97.441,173.2,20.02,15.17,324,-0.769,2.463,9.076,1
566,35.295,-97.441,173.2,20.17,15.17,324,-1.016,2.575,9.437,0
567,35.295,-97.441,175.5,19.97,15.17,324,-0.639,2.18,9.448,0
568,35.295,-97.441,175.7,20.19,15.17,324,-0.459,2.393,9.278,0
569,35.294,-97.441,175.5,20.08,15.17,323,-0.785,2.479,8.972,0
570,35.294,-97.441,177.8,20.29,15.17,322,-1.165,2.105,9.561,1
571,35.294,-97.441,179.6,19.89,15.17,323,-1.049,1.3,9.764,0
572,35.294,-97.441,178.1,19.9,15.17,323,-0.806,0.919,9.612,1
573,35.294,-97.441,179.9,18.95,15.17,322,-0.868,0.176,9.803,0
574,35.293,-97.441,181.2,16.9,15.17,322,-1.053,1.032,9.313,0
575,35.293,-97.441,180.2,15.12,16.687,323,-1.257,2.299,9.29,1
576,35.293,-97.441,179.7,13.37,16.687,325,-1.132,3.195,8.908,1
577,35.293,-97.441,177.2,13.35,16.687,326,-0.851,3.398,8.869,1
578,35.293,-97.441,180.6,13.62,16.687,325,-1.324,3.306,8.885,1
579,35.293,-97.441,179.3,14.43,16.687,326,-1.168,3.343,9.142,1
580,35.293,-97.441,179.1,14.96,16.687,327,-0.898,3.275,8.932,1
581,35.293,-97.441,177.2,15.99,16.687,328,-0.714,3.301,8.984,1
582,35.292,-97.441,176.7,16.67,16.687,328,-0.749,2.624,9.376,1
583,35.292,-97.441,179.6,17.35,16.687,327,-1.019,1.598,9.414,1
584,35.292,-97.441,179.1,17.7,16.687,326,-0.986,1.176,9.767,1
585,35.292,-97.441,179.9,17.25,16.687,325,-0.932,0.876,9.808,0
586,35.292,-97.441,181,15.95,16.687,325,-0.978,1.652,9.441,0
587,35.292,-97.441,180.3,14.88,16.687,325,-1.017,1.52,9.494,1
588,35.292,-97.441,179.2,13.89,16.687,326,-1.09,1.358,9.388,1
589,35.291,-97.441,178.1,13.11,16.687,322,-0.944,1.668,9.513,0
591,35.291,-97.441,179.5,12.03,16.687,322,-0.993,1.656,9.365,1
591,35.291,-97.441,179.5,12.03,16.687,322,-0.993,1.656,9.365,1
592,35.291,-97.441,179.4,11.17,15.17,323,-0.977,-0.055,9.879,0
593,35.291,-97.441,178.1,10.37,15.17,324,-1.017,-0.004,9.891,0
594,35.291,-97.441,175.8,8.56,16.687,325,-1,-1.644,10.471,0
595,35.291,-97.441,175,8.32,16.687,324,-0.944,0.844,9.619,0
596,35.291,-97.441,176,7.41,18.204,324,-1.017,2.825,9.134,1
597,35.291,-97.441,181.6,2.22,18.204,324,-0.88,4.582,8.581,1
598,35.291,-97.441,187.1,2.93,16.687,325,-0.938,4.32,8.354,1
599,35.291,-97.441,182.5,4.81,16.687,325,-0.926,3.897,8.77,1
600,35.291,-97.441,180.7,6.92,16.687,324,-1.133,3.944,8.61,1
601,35.291,-97.441,180.5,9.62,16.687,322,-1.52,3.002,8.508,1
602,35.291,-97.441,179.7,10.69,16.687,321,-0.791,3.471,8.98,0
603,35.29,-97.441,179.1,12.34,16.687,322,-0.523,3.465,9.195,1
604,35.29,-97.441,179.7,13.04,16.687,322,-0.994,3.437,8.727,0
605,35.29,-97.441,180.4,14.57,16.687,322,-1.008,3.217,8.811,0
606,35.29,-97.441,182.5,15.37,18.204,320,-0.999,3,8.786,0
607,35.29,-97.441,183.3,16.76,18.204,321,-0.867,2.55,8.926,0
608,35.29,-97.441,182.6,17.91,18.204,319,-0.873,2.673,9.196,0
609,35.289,-97.441,181.7,18.86,18.204,320,-1.118,2.629,9.131,0
610,35.289,-97.441,183.6,18.88,18.204,322,-1.344,2.608,9.359,0
611,35.289,-97.441,179.3,21.17,16.687,321,-1.045,2.337,8.872,0
612,35.289,-97.441,179.4,21.41,16.687,316,-1.112,2.255,9.606,0
613,35.289,-97.441,179.5,22.29,16.687,313,-1.267,2.161,9.616,0
614,35.289,-97.441,179.8,22.39,16.687,314,-1.132,1.913,9.592,0
615,35.288,-97.441,179.3,22.74,15.17,314,-1.355,1.982,9.812,0
616,35.288,-97.441,179,22.81,16.687,313,-1.147,1.924,9.243,0
617,35.288,-97.441,179.6,22.45,16.687,312,-1.255,2.416,9.976,0
618,35.288,-97.441,180,22.58,15.17,313,-1.037,2.44,9.479,0
619,35.288,-97.441,179.2,22.55,15.17,311,-1.297,2.558,9.562,0
620,35.287,-97.441,179.4,22.73,15.17,310,-0.978,2.339,9.203,0
621,35.287,-97.441,178.9,22.4,15.17,311,-0.754,2.336,9.145,0
622,35.287,-97.441,179.4,23.28,15.17,311,-1.136,2.302,9.501,0
623,35.287,-97.441,179.7,23.23,15.17,311,-0.51,2.232,9.492,0
625,35.286,-97.441,179.9,23.21,16.687,311,-0.433,2.185,9.865,0
625,35.286,-97.441,179.9,23.21,16.687,311,-0.433,2.185,9.865,0
626,35.286,-97.441,180.8,23.16,15.17,310,-0.672,2.098,9.339,0
627,35.286,-97.441,180.3,23.01,15.17,311,-0.91,2.114,9.322,1
628,35.286,-97.441,180.9,23.06,16.687,308,-0.93,2.069,9.456,1
629,35.285,-97.441,180.8,23.13,16.687,307,-1.217,1.925,8.616,0
630,35.285,-97.441,179.7,22.99,16.687,306,-1.069,2.314,9.615,0
631,35.285,-97.441,179.7,22.9,16.687,306,-1.179,2.531,10.459,0
632,35.285,-97.441,179.4,22.6,18.204,306,-0.946,1.951,9.335,1
633,35.285,-97.441,178.4,22.74,19.721,306,-0.764,2.085,9.762,0
634,35.284,-97.441,180.2,22.91,16.687,304,-0.776,1.986,9.729,0
635,35.284,-97.441,179.9,22.81,18.204,305,-0.841,2.019,9.59,0
636,35.284,-97.441,179.7,22.55,18.204,305,-0.916,1.933,8.791,1
637,35.284,-97.441,180.2,22.35,18.204,304,-1.207,2.175,9.396,0
638,35.284,-97.441,180.3,22.4,18.204,304,-0.956,2.309,9.418,0
639,35.283,-97.441,180.5,22.23,19.721,304,-0.858,2.37,9.728,0
