time,lat,lng,bearing,spd,acc,alt,accx,accy,accz,stable,
0,35.204,-97.479,300.3,9.6501,3,321,-4.251,-0.309,9.127,0
1,35.204,-97.479,312.4,10.431,3,320,-4.808,0.072,8.834,0
2,35.204,-97.479,325.3,11.06,3,321,-4.249,-0.472,8.894,0
3,35.204,-97.479,336.8,11.9,3,321,-3.412,-1.403,8.721,1
4,35.204,-97.479,341.9,12.571,3,321,-2.967,-1.779,8.796,1
5,35.205,-97.479,342.2,13.274,3,321,-2.904,-1.576,8.979,1
6,35.205,-97.479,342.1,14.138,3,320,-3.093,-2.132,9.011,1
7,35.205,-97.479,342,15.487,3,320,-2.958,-2.162,8.583,1
8,35.205,-97.479,341.6,16.879,3,319,-3.058,-2.07,8.724,1
9,35.205,-97.48,341.4,18.261,3,318,-2.996,-2.099,8.749,0
10,35.205,-97.48,341.3,19.4,3,317,-2.954,-1.764,9.03,0
11,35.205,-97.48,341.5,20.457,3,316,-2.681,-1.607,9.188,0
12,35.206,-97.48,341.3,21.183,3,316,-2.533,-1.891,9.13,0
13,35.206,-97.48,341,21.771,3,315,-3.127,-1.571,9.261,0
14,35.206,-97.48,341.1,22.84,3,314,-3.022,-1.464,9.256,0
15,35.206,-97.48,341,23.35,3,314,-2.67,-1.673,8.39,1
16,35.206,-97.48,339.8,23.82,3,314,-3.245,-2.227,7.796,0
17,35.207,-97.48,338.9,24.51,3,314,-3.697,-2.092,9.047,0
19,35.207,-97.48,338,25.73,3,315,-3.337,-1.643,9.005,1
19,35.207,-97.48,338,25.73,3,315,-3.337,-1.643,9.005,1
20,35.207,-97.48,337.8,26.48,3,315,-2.775,-1.65,9.04,0
21,35.207,-97.481,337.3,26.88,4,316,-2.738,-1.765,9.01,1
22,35.208,-97.481,336,27.181,4,316,-2.28,-1.801,9.574,0
23,35.208,-97.481,334.2,27.272,3,317,-2.899,-1.749,9.242,1
24,35.208,-97.481,332.6,27.522,3,316,-3.355,-1.348,9.165,1
25,35.208,-97.481,332.2,28.152,3,316,-3.033,-1.414,8.899,0
26,35.208,-97.481,331.8,28.372,3,317,-3.095,-1.366,8.809,0
27,35.209,-97.481,331.4,28.653,3,317,-2.83,-1.766,8.894,1
28,35.209,-97.481,331,28.903,3,318,-2.787,-1.704,9.186,1
29,35.209,-97.482,330.3,29.222,3,318,-3.044,-1.807,9.006,0
30,35.21,-97.482,330.7,30.232,3,319,-3.247,-1.866,8.781,1
31,35.21,-97.482,331.8,31.041,3,320,-3.318,-1.501,8.671,1
32,35.21,-97.482,332,31.82,3,319,-2.647,-2.401,8.475,1
33,35.21,-97.482,331.4,32.52,3,320,-2.764,-2.542,9.59,0
34,35.211,-97.483,330.8,33.3,3,320,-3.055,-2.246,9.403,0
35,35.211,-97.483,330.5,34.1,3,320,-3.179,-2.134,9.709,0
36,35.211,-97.483,331,34.86,3,320,-3.696,-1.467,9.108,1
37,35.211,-97.483,331.8,35.74,3,320,-3.279,-1.667,8.453,1
38,35.212,-97.483,332,36.54,3,320,-2.463,-2.272,8.419,0
39,35.212,-97.484,330.9,37.16,3,320,-2.494,-2.069,7.837,0
40,35.212,-97.484,330.5,37.91,3,320,-2.705,-1.759,8.033,0
41,35.213,-97.484,331.1,38.72,3,321,-4.107,-0.828,8.771,0
42,35.213,-97.484,333.1,39.51,3,322,-3.207,-0.191,9.937,0
43,35.213,-97.484,335.5,39.12,3,322,-3.425,0.195,9.293,0
44,35.214,-97.485,337.6,38.501,3,323,-2.967,0.001,9.277,0
45,35.214,-97.485,339.4,37.661,3,324,-2.928,-0.219,9.617,0
46,35.214,-97.485,341.1,37.011,3,325,-2.694,-0.54,9.339,0
47,35.214,-97.485,342.7,36.411,3,325,-3.297,0.156,9.595,0
48,35.215,-97.485,345.1,35.77,3,324,-2.963,-0.64,9.23,1
49,35.215,-97.485,346.8,35.35,3,324,-2.532,-0.292,8.217,0
50,35.215,-97.485,348.5,35.06,3,325,-3.178,-0.834,9.529,0
51,35.216,-97.485,350,34.9,3,325,-3.258,-0.716,9.372,0
52,35.216,-97.485,351.7,34.841,3,325,-3.394,-0.445,9.234,0
53,35.216,-97.485,353.7,34.771,3,325,-3.307,-0.425,8.758,0
54,35.217,-97.485,355.7,34.7,3,325,-2.814,-0.744,8.353,0
55,35.217,-97.485,357.2,34.622,3,325,-2.968,-0.698,8.347,1
56,35.217,-97.485,358.9,34.551,3,325,-2.557,-0.724,9.693,0
57,35.218,-97.485,359.7,34.04,3,325,-2.473,-0.731,9.356,0
58,35.218,-97.485,0.3,33.561,3,326,-2.195,-1.244,8.981,1
59,35.218,-97.485,359.8,33.14,3,326,-2.842,-0.918,9.052,0
60,35.218,-97.485,0,32.74,3,326,-2.478,-1.079,9.261,0
61,35.219,-97.485,359.6,32.33,3,326,-2.588,-1.138,8.403,0
62,35.219,-97.485,359.7,32.07,4,326,-2.842,-1.293,9.249,0
63,35.219,-97.485,359.5,31.981,5,327,-2.923,-0.987,8.87,1
64,35.22,-97.485,359.6,32.031,4,327,-3.065,-0.896,9.1,1
65,35.22,-97.485,359.9,32.171,3,327,-2.911,-1.196,9.395,0
66,35.22,-97.485,0,32.331,3,327,-2.845,-1.261,9.071,0
67,35.221,-97.485,0.1,32.911,3,324,-2.633,-1.336,8.826,1
68,35.221,-97.485,359.9,33.06,3,326,-2.917,-0.947,8.921,1
69,35.221,-97.485,0,33.15,3,326,-2.746,-1.021,8.612,0
70,35.221,-97.485,0.1,33.151,3,327,-2.903,-1.172,9.068,1
71,35.222,-97.485,0.1,33.161,4,327,-2.729,-1.16,8.876,1
72,35.222,-97.485,0.1,33.16,4,328,-2.704,-1.133,8.936,1
73,35.222,-97.485,0.1,33.16,4,328,-2.72,-1.146,8.99,1
74,35.223,-97.485,0,33.3,3,332,-2.731,-1.287,9.322,1
75,35.223,-97.485,359.6,33.2,3,332,-3.013,-1.11,9.331,1
76,35.223,-97.485,359.8,33.04,3,332,-2.791,-1.245,9.372,1
77,35.224,-97.485,359.8,33.1,3,334,-2.789,-1.101,8.848,1
78,35.224,-97.485,359.8,33.12,3,335,-2.94,-0.96,8.82,1
79,35.224,-97.485,0,33.26,3,336,-2.88,-0.992,8.915,1
80,35.224,-97.485,0.3,33.33,3,336,-2.685,-0.939,8.747,1
82,35.225,-97.485,0.1,33.27,3,336,-2.867,-1.102,8.988,1
82,35.225,-97.485,0.1,33.27,3,336,-2.867,-1.102,8.988,1
83,35.225,-97.485,0,33.2,4,338,-2.822,-1.099,8.995,1
84,35.225,-97.485,0,33.41,4,339,-2.706,-1.16,9.146,1
85,35.226,-97.485,0.1,33.351,4,340,-2.868,-1.035,9.032,1
86,35.226,-97.485,359.9,33.32,4,341,-2.731,-0.992,8.985,1
87,35.226,-97.485,0.1,33.16,4,340,-2.777,-1.218,9.286,1
88,35.227,-97.485,0,33.33,4,341,-2.842,-0.998,8.94,1
89,35.227,-97.485,0.1,33.29,4,342,-2.893,-0.98,9.015,1
90,35.227,-97.485,0,33.24,4,343,-2.894,-1.067,9.046,1
91,35.227,-97.485,0,33.281,4,344,-2.919,-1.078,9.127,1
92,35.228,-97.485,0.1,33.381,3,344,-2.828,-0.942,8.97,1
93,35.228,-97.485,0.1,33.401,3,344,-2.817,-1.088,9.072,1
94,35.228,-97.485,0,33.301,3,345,-3.053,-1.021,9.231,1
95,35.229,-97.485,0.1,33.381,4,347,-2.897,-1.025,8.81,1
96,35.229,-97.485,0.1,33.381,4,347,-2.874,-1.117,9.048,1
97,35.229,-97.485,0.1,33.29,3,347,-2.817,-1.114,8.997,1
98,35.23,-97.485,0,33.45,4,347,-2.88,-1.033,9.176,1
99,35.23,-97.485,359.9,33.44,4,347,-2.936,-1.05,9.031,1
100,35.23,-97.485,359.7,33.26,4,348,-2.94,-0.969,9.141,1
101,35.231,-97.485,359.7,33.27,4,348,-2.807,-1.139,9.001,1
102,35.231,-97.485,359.6,33.34,4,349,-2.77,-1.11,8.929,1
103,35.231,-97.485,359.9,33.42,4,350,-2.827,-1.063,9.08,1
104,35.232,-97.485,359.8,33.4,4,350,-2.888,-1.017,8.83,1
105,35.232,-97.485,359.9,33.43,4,351,-2.914,-0.855,8.716,1
106,35.232,-97.485,359.9,33.47,4,352,-2.936,-0.973,8.925,1
107,35.233,-97.485,359.9,33.49,5,353,-2.89,-1.055,8.917,1
108,35.233,-97.485,0.7,33.47,4,353,-2.791,-1.175,9.14,1
109,35.233,-97.485,0.2,33.38,5,353,-2.875,-1.053,9.057,1
110,35.233,-97.485,359.9,33.47,5,352,-2.755,-0.991,8.783,1
111,35.234,-97.485,359.8,33.54,5,352,-2.664,-1.13,8.909,1
112,35.234,-97.485,0.2,33.37,5,352,-2.868,-1.062,9.119,1
113,35.234,-97.485,359.6,33.37,5,352,-2.656,-1.029,9.038,1
114,35.235,-97.485,0,33.14,5,353,-2.763,-0.98,8.885,1
115,35.235,-97.485,0,33.08,5,352,-2.793,-1.099,8.807,1
116,35.235,-97.485,359.7,33.23,5,351,-2.866,-1.025,8.899,1
117,35.236,-97.485,359.7,33.11,5,351,-2.849,-0.989,8.987,1
118,35.236,-97.485,359.6,33.04,5,351,-2.861,-1.068,9.17,1
119,35.236,-97.485,0,33.2,5,352,-2.968,-0.888,9.067,1
120,35.236,-97.486,359.6,33.25,5,352,-2.776,-1.005,9.077,1
121,35.237,-97.486,359.9,33.28,5,352,-2.612,-1.248,9.065,1
122,35.237,-97.486,359.6,33.26,5,352,-2.841,-1,8.652,1
123,35.237,-97.486,359.8,33.31,5,352,-2.851,-0.994,9.015,1
124,35.238,-97.485,0.2,33.32,4,352,-2.736,-0.979,9.05,1
125,35.238,-97.485,0.2,33.24,4,352,-2.772,-0.966,9.083,1
126,35.238,-97.485,0,32.88,4,352,-2.751,-1.04,9.312,1
127,35.239,-97.485,0.2,32.86,4,351,-2.737,-0.906,9.373,1
128,35.239,-97.485,359.8,32.7,4,352,-2.67,-0.863,9.132,1
129,35.239,-97.486,359.7,32.61,4,353,-2.534,-0.937,9.109,1
130,35.239,-97.486,359.8,32.14,4,352,-2.671,-0.902,9.275,1
131,35.24,-97.485,0.2,31.78,4,352,-2.718,-0.884,9.305,1
132,35.24,-97.485,0.3,31.65,4,352,-2.675,-0.858,9.153,1
133,35.24,-97.485,0.2,31.27,3,352,-2.717,-0.751,8.844,1
134,35.241,-97.485,0.2,31.12,3,352,-2.516,-1.017,9.135,1
135,35.241,-97.485,359.9,30.93,3,352,-2.617,-0.913,8.939,1
136,35.241,-97.485,359.9,30.62,3,353,-2.881,-0.658,9.094,1
137,35.241,-97.485,0.1,30.35,3,353,-2.707,-0.761,9.11,1
138,35.242,-97.485,359.8,30.2,4,354,-2.886,-0.761,8.927,1
139,35.242,-97.485,359.9,29.85,4,353,-2.956,-0.971,9.416,1
141,35.242,-97.486,359.6,29.89,4,355,-2.747,-1.029,9.123,1
141,35.242,-97.486,359.6,29.89,4,355,-2.747,-1.029,9.123,1
142,35.242,-97.485,0.2,29.74,4,354,-3.008,-0.914,9.075,1
143,35.243,-97.485,0.1,29.57,4,354,-2.803,-1.011,8.957,1
144,35.243,-97.486,359.8,29.55,5,353,-2.529,-1.24,9.099,1
145,35.243,-97.485,0.1,29.54,4,354,-2.686,-1.121,9.108,1
146,35.243,-97.485,0.4,29.57,4,354,-2.868,-1.087,9.202,1
147,35.244,-97.485,359.8,29.78,4,353,-3.034,-0.951,8.952,1
148,35.244,-97.485,0.1,29.73,4,353,-2.92,-1.101,9.079,1
149,35.244,-97.485,359.8,29.71,4,353,-2.907,-1.115,8.892,1
150,35.245,-97.485,359.8,29.83,4,354,-2.819,-1.16,9.223,1
151,35.245,-97.485,359.7,29.87,4,353,-2.87,-1.288,9.133,1
152,35.245,-97.485,0.5,29.96,4,353,-2.938,-1.296,8.915,1
153,35.245,-97.485,0.1,30.19,4,352,-2.962,-1.158,9.039,1
154,35.246,-97.485,359.8,30.43,4,353,-2.92,-1.14,9.198,1
155,35.246,-97.485,359.8,30.55,4,354,-2.865,-1.228,9.196,1
156,35.246,-97.485,359.7,30.79,4,356,-2.939,-1.267,9.187,1
157,35.247,-97.485,359.8,31.09,4,356,-2.891,-1.283,8.95,1
158,35.247,-97.486,359.4,31.39,4,356,-2.949,-1.194,8.882,1
159,35.247,-97.486,0,31.41,4,357,-2.917,-1.057,8.905,1
160,35.247,-97.486,0,31.41,4,357,-2.843,-1.322,9.087,1
161,35.248,-97.485,1.2,31.46,4,350,-2.888,-1.296,9.019,1
162,35.248,-97.485,0.4,32.65,5,349,-2.94,-1.305,9.14,1
163,35.248,-97.485,0,32.41,4,348,-3.021,-1.374,9.254,1
164,35.249,-97.485,0,32.4,4,349,-2.904,-1.237,9.141,1
165,35.249,-97.485,359.9,32.53,4,349,-2.98,-1.369,9.023,1
166,35.249,-97.485,359.7,32.7,3,351,-2.825,-1.183,8.923,1
167,35.25,-97.485,0.2,32.82,3,349,-2.986,-1.031,8.939,1
168,35.25,-97.485,359.9,33.06,3,350,-2.828,-1.158,8.889,1
169,35.25,-97.485,359.8,33.08,3,350,-2.815,-1.234,9.109,1
170,35.251,-97.485,359.7,33.12,3,350,-2.796,-1.127,9.197,1
171,35.251,-97.485,0,33.21,3,352,-2.786,-0.84,8.756,1
172,35.251,-97.485,359.8,33.06,3,351,-2.602,-0.686,9.113,1
173,35.251,-97.485,359.6,32.79,3,351,-1.929,0.069,9.339,1
174,35.252,-97.485,0,31.77,3,350,-1.325,0.575,9.813,1
175,35.252,-97.486,359.5,29.7,3,344,-1.335,0.766,9.965,0
176,35.252,-97.485,0,27.5,3,345,-2.39,-0.584,9.243,0
177,35.252,-97.485,359.8,26.43,3,347,-2.513,-0.847,9.009,0
178,35.253,-97.485,359.9,25.86,3,347,-2.631,-1.045,9.096,0
179,35.253,-97.485,359.8,25.57,3,348,-2.655,-0.83,9.066,0
180,35.253,-97.485,0,25.15,3,349,-2.653,-0.921,9.337,0
181,35.253,-97.485,359.7,24.89,3,349,-2.731,-1.078,9.123,0
182,35.254,-97.486,359.6,24.61,3,350,-2.873,-1.137,8.72,0
183,35.254,-97.485,359.8,24.45,3,350,-2.858,-1.142,8.668,1
184,35.254,-97.486,359.8,24.56,3,351,-2.904,-1.278,8.828,1
185,35.254,-97.485,0,24.7,3,350,-2.983,-1.258,8.796,1
186,35.254,-97.485,0.1,24.96,3,351,-3.113,-1.341,8.766,1
187,35.255,-97.485,0,25.19,3,352,-3.224,-1.423,8.834,1
188,35.255,-97.485,0.1,25.57,3,350,-3.089,-1.328,9.041,1
189,35.255,-97.485,0.1,26.06,3,350,-3.094,-1.413,8.988,1
190,35.255,-97.485,0.1,26.45,3,351,-2.989,-1.26,8.727,1
191,35.256,-97.485,359.8,26.71,3,350,-3.01,-1.25,9.145,1
192,35.256,-97.485,0.1,27.03,3,350,-2.987,-1.125,8.994,1
193,35.256,-97.485,0.4,27.13,3,350,-2.99,-1.232,8.695,1
194,35.256,-97.485,0,27.53,3,350,-3.017,-1.149,8.758,1
195,35.257,-97.485,0.4,27.73,3,349,-2.809,-1.159,8.886,1
196,35.257,-97.486,359.1,28.06,3,347,-2.779,-1.05,9.084,1
197,35.257,-97.486,359.7,27.97,3,348,-2.915,-0.811,8.799,1
198,35.257,-97.485,0.1,28.07,4,348,-2.672,-0.826,9.109,1
199,35.258,-97.485,359.9,27.92,4,348,-2.778,-0.871,9.011,1
200,35.258,-97.485,0,27.63,4,349,-2.826,-0.936,8.987,1
201,35.258,-97.485,0.2,27.36,4,348,-2.738,-0.936,8.998,1
202,35.258,-97.486,359.7,27.33,4,349,-2.757,-1.056,9.094,1
203,35.259,-97.486,359.5,27.4,4,350,-2.611,-0.92,9.115,1
205,35.259,-97.486,359.6,27.15,4,350,-2.493,-0.947,9.219,1
205,35.259,-97.486,359.6,27.15,4,350,-2.493,-0.947,9.219,1
206,35.259,-97.486,359.8,26.89,4,351,-2.436,-0.89,9.021,1
207,35.259,-97.486,0,26.42,4,351,-2.547,-0.931,8.896,1
208,35.26,-97.486,359.8,26.2,4,351,-2.8,-1.013,8.993,1
209,35.26,-97.486,0,26.06,3,351,-2.831,-1.136,8.88,1
210,35.26,-97.486,0.6,25.97,4,350,-2.86,-1.123,8.932,1
211,35.26,-97.486,0.2,25.95,4,349,-2.805,-1.153,8.911,1
212,35.261,-97.485,0.4,26.16,4,350,-2.838,-1.109,8.88,1
213,35.261,-97.486,359.8,26.09,4,351,-2.799,-1.084,8.856,1
214,35.261,-97.486,359.4,26.15,4,353,-2.881,-1.101,9.073,1
215,35.261,-97.486,0,26.23,5,354,-2.924,-1.079,8.945,1
216,35.261,-97.486,0.1,26.25,4,354,-3.114,-1.349,8.824,1
217,35.262,-97.486,0,26.6,4,354,-3.106,-1.371,8.964,1
218,35.262,-97.486,359.7,26.69,4,354,-3.02,-1.382,8.578,1
219,35.262,-97.486,0.1,27.64,3,353,-3.07,-1.238,8.879,1
220,35.262,-97.486,0.1,27.64,3,353,-3.072,-1.295,8.928,1
221,35.263,-97.486,359.4,28.27,3,353,-2.9,-0.972,8.858,1
222,35.263,-97.486,359.3,28.66,3,351,-2.863,-0.998,9.177,1
223,35.263,-97.486,359.4,28.59,3,351,-2.764,-0.984,9.062,1
224,35.264,-97.486,0.2,28.71,3,351,-2.792,-1.088,9.011,1
225,35.264,-97.486,0.5,28.75,3,351,-2.786,-1.208,8.772,1
226,35.264,-97.486,359.9,28.86,3,352,-2.891,-1.2,8.907,1
227,35.265,-97.486,0.6,28.99,3,350,-2.809,-1.177,8.955,1
228,35.265,-97.485,0.6,29.03,3,350,-3.059,-1.267,9.014,1
229,35.265,-97.485,0.2,29.19,3,350,-2.985,-1.247,9.005,1
230,35.265,-97.485,0.1,29.56,3,351,-2.899,-1.08,9.288,1
231,35.266,-97.485,359.8,29.75,3,351,-2.951,-1.08,8.914,1
232,35.266,-97.486,359.6,29.88,3,351,-2.838,-1.16,8.97,1
233,35.266,-97.486,0.1,30.12,3,351,-2.937,-1.21,9.223,1
234,35.266,-97.486,359.9,30.39,3,351,-2.779,-1.399,9.26,1
235,35.267,-97.486,0.1,30.4,3,351,-2.692,-1.161,9.147,1
236,35.267,-97.486,359.8,30.45,3,349,-2.806,-1.215,9.054,1
237,35.267,-97.486,0.4,30.63,3,349,-2.739,-1.325,9.029,1
238,35.268,-97.486,359.9,30.73,3,348,-2.758,-1.156,8.97,1
239,35.268,-97.486,359.8,30.83,3,349,-2.788,-1.14,9.063,1
240,35.268,-97.486,359.9,30.92,3,350,-2.971,-1.139,8.995,1
241,35.268,-97.486,0.1,31.06,3,350,-2.999,-1.075,8.943,1
242,35.269,-97.485,0.1,31.11,3,350,-2.968,-1.134,9.015,1
243,35.269,-97.485,0,31.16,3,351,-2.913,-1.093,9.065,1
244,35.269,-97.485,0.3,31.29,3,349,-2.931,-1.027,9.04,1
245,35.27,-97.485,359.7,31.45,3,350,-2.878,-1.145,9.003,1
246,35.27,-97.486,359.6,31.6,3,351,-2.857,-1.112,9.129,1
247,35.27,-97.486,359.7,31.6,3,351,-2.821,-1.14,9.207,1
248,35.27,-97.486,359.7,31.68,3,350,-2.813,-1.041,8.859,1
249,35.271,-97.486,359.5,31.91,3,351,-2.835,-1.084,9.049,1
250,35.271,-97.486,359.4,31.97,3,351,-2.939,-1.112,9.18,1
251,35.271,-97.486,0.1,32.09,3,352,-3.006,-1.142,8.997,1
252,35.272,-97.486,359.8,32.24,3,353,-2.946,-1.034,8.883,1
253,35.272,-97.486,0.1,32.46,3,351,-2.835,-1.157,9.036,1
254,35.272,-97.486,0.1,32.65,3,351,-2.925,-1.134,9.09,1
255,35.272,-97.486,359.8,33.22,3,352,-2.857,-1.093,9.195,1
256,35.273,-97.486,358.7,33.23,3,352,-2.674,-0.723,9.33,1
257,35.273,-97.486,359.3,33.2,3,352,-2.788,-0.855,8.998,1
258,35.273,-97.486,359.4,33.06,3,353,-2.744,-0.967,9.039,1
259,35.274,-97.486,359.7,32.92,3,355,-2.825,-0.965,8.925,1
260,35.274,-97.486,0.3,32.98,3,352,-2.686,-0.863,9.074,1
261,35.274,-97.485,0.4,33.14,3,350,-2.596,-1.04,9.372,1
262,35.274,-97.485,0.2,32.83,3,350,-2.887,-0.973,8.931,1
263,35.275,-97.486,359.6,33.05,4,349,-2.686,-0.978,9.05,1
264,35.275,-97.486,359.7,32.97,4,347,-2.625,-0.831,9.055,1
265,35.275,-97.486,0,32.95,5,346,-2.526,-0.817,9.244,1
266,35.276,-97.485,0.5,32.95,6,344,-2.584,-0.727,9.26,1
267,35.276,-97.486,359.4,32.25,5,344,-2.521,-0.731,9.38,1
268,35.276,-97.486,359.6,31.83,5,341,-2.581,-0.574,9.362,1
269,35.277,-97.486,359.6,31.13,4,342,-2.708,-0.584,9.271,1
271,35.277,-97.486,1.6,30.32,3,342,-2.837,-0.547,9.261,1
271,35.277,-97.486,1.6,30.32,3,342,-2.837,-0.547,9.261,1
272,35.277,-97.485,3.4,29.76,3,342,-3.475,-0.081,9.261,1
273,35.277,-97.485,6.4,29.201,3,342,-3.594,0.154,9.099,0
274,35.278,-97.485,10.3,28.662,3,338,-3.467,-0.101,9.095,0
275,35.278,-97.485,14.4,28.371,3,339,-2.983,-0.659,8.946,0
276,35.278,-97.485,17.2,28.141,3,338,-2.643,-1.104,9.041,0
277,35.278,-97.485,18.4,27.98,3,334,-2.481,-0.971,8.265,0
278,35.279,-97.485,18.8,27.87,3,335,-2.528,-1.195,8.765,0
279,35.279,-97.485,18.6,27.83,3,335,-2.595,-1.337,9.198,0
280,35.279,-97.485,18.7,27.75,3,334,-2.646,-1.303,9.091,1
281,35.279,-97.485,18.4,27.73,3,334,-2.794,-1.147,8.908,1
282,35.28,-97.485,18.1,27.7,3,333,-2.831,-1.213,9.026,1
283,35.28,-97.484,16.6,27.87,3,332,-2.379,-1.719,9.054,1
284,35.28,-97.484,14,28.01,3,331,-2.076,-2.108,8.97,1
285,35.281,-97.484,11.1,28.29,3,331,-2.243,-1.972,8.852,1
286,35.281,-97.484,8.8,28.33,3,331,-2.38,-1.829,8.799,1
287,35.281,-97.484,6.1,28.65,3,332,-2.403,-1.954,9.01,1
288,35.281,-97.484,4.8,28.74,3,332,-2.245,-2.073,8.887,1
289,35.282,-97.484,3,29.05,4,332,-2.066,-2.154,8.846,1
290,35.282,-97.484,357.9,29.38,3,332,-2.294,-2.152,9.163,1
291,35.282,-97.484,354.9,29.66,3,331,-2.446,-2.072,9.122,1
292,35.282,-97.484,352.5,29.93,3,329,-2.263,-2.097,9.132,1
293,35.283,-97.484,350,30.1,3,328,-2.06,-2.056,9.007,1
294,35.283,-97.484,347.2,30.08,3,329,-2.149,-1.99,9.005,1
295,35.283,-97.485,346,30.34,3,329,-2.471,-1.617,8.983,1
296,35.283,-97.485,344.1,30.51,4,329,-2.794,-1.289,9.211,1
297,35.284,-97.485,343,30.251,3,330,-2.928,-1.191,9.064,1
298,35.284,-97.485,343.1,30.39,3,330,-2.911,-1.243,8.912,1
299,35.284,-97.485,343.4,30.55,3,331,-2.966,-1.171,9.251,1
300,35.285,-97.485,343.6,30.68,3,331,-2.781,-1.316,8.859,1
301,35.285,-97.485,343.5,30.89,3,331,-2.753,-1.421,8.944,1
302,35.285,-97.485,343.2,31.08,3,331,-2.742,-1.362,8.968,1
303,35.285,-97.485,343.1,31.22,3,331,-2.858,-1.322,9.033,1
304,35.286,-97.485,343.2,31.35,3,331,-2.861,-1.318,9.085,1
305,35.286,-97.486,343.3,31.5,3,331,-2.729,-1.324,9.199,1
306,35.286,-97.486,343.2,31.59,3,331,-2.783,-1.216,8.992,1
307,35.286,-97.486,343.1,31.67,3,331,-2.757,-1.216,9.056,1
308,35.287,-97.486,343.1,31.75,3,331,-2.85,-1.192,9.126,1
309,35.287,-97.486,343.2,31.8,3,331,-2.853,-1.249,8.96,1
310,35.287,-97.486,343.4,31.88,3,331,-2.591,-1.408,8.938,1
311,35.288,-97.486,343.3,31.9,3,331,-2.636,-1.283,8.981,1
312,35.288,-97.486,343.2,31.93,3,331,-2.823,-1.052,8.891,1
313,35.288,-97.486,343.4,31.94,3,331,-2.718,-1.137,8.925,1
314,35.288,-97.486,343.5,31.99,3,331,-2.677,-1.181,8.845,1
315,35.289,-97.487,343.7,31.99,3,331,-2.506,-1.371,8.95,1
316,35.289,-97.487,343.5,32.03,3,332,-2.551,-1.375,9.09,1
317,35.289,-97.487,343.3,32.04,3,332,-2.568,-1.411,9.035,1
318,35.289,-97.487,343.1,32.03,3,332,-2.725,-1.205,9.061,1
319,35.29,-97.487,343.1,32.02,3,332,-2.679,-1.331,9.073,1
320,35.29,-97.487,343.3,32.07,3,332,-2.67,-1.267,8.884,1
321,35.29,-97.487,343.2,32.08,3,333,-2.629,-1.352,8.998,1
322,35.291,-97.487,343.2,32.12,3,333,-2.596,-1.298,8.85,1
323,35.291,-97.487,343,32.15,3,333,-2.658,-1.155,9.07,1
324,35.291,-97.487,343.5,32.38,3,333,-2.595,-1.104,8.504,1
325,35.291,-97.488,343.4,31.892,3,333,-2.539,-1.337,9.044,1
326,35.292,-97.488,343.3,32.17,3,333,-2.553,-1.202,8.999,1
327,35.292,-97.488,343.4,32.1,3,332,-2.414,-1.164,9.023,1
328,35.292,-97.488,343.4,32.06,3,331,-2.315,-1.086,9.075,1
329,35.293,-97.488,343.3,31.88,3,331,-2.336,-1.216,9.049,1
331,35.293,-97.488,343.3,31.631,3,331,-2.448,-1.443,9.023,1
331,35.293,-97.488,343.3,31.631,3,331,-2.448,-1.443,9.023,1
332,35.293,-97.488,343.2,31.71,3,330,-2.56,-1.544,8.857,1
333,35.293,-97.488,343.1,31.93,3,330,-2.693,-1.421,8.883,1
334,35.294,-97.488,343,32.181,3,330,-2.793,-1.45,9.117,1
335,35.294,-97.488,343,32.47,3,330,-2.632,-1.483,9.151,1
336,35.294,-97.489,343.1,32.691,3,330,-2.634,-1.342,8.966,1
337,35.294,-97.489,343.2,32.91,3,329,-2.593,-1.404,9.052,1
338,35.295,-97.489,343.3,33.081,3,329,-2.594,-1.355,8.812,1
339,35.295,-97.489,343.3,33.2,3,328,-2.55,-1.364,9.053,1
340,35.295,-97.489,343.4,33.331,3,328,-2.653,-1.223,9.049,1
341,35.296,-97.489,343.4,33.401,3,328,-2.882,-1.166,9.504,0
342,35.296,-97.489,344.2,33.44,3,327,-2.835,-1.116,9.045,0
343,35.296,-97.489,344.9,33.5,3,328,-2.779,-1.088,9.426,0
344,35.296,-97.489,345.8,33.45,3,328,-2.738,-0.779,9.286,0
345,35.297,-97.489,346.7,33.19,3,328,-2.612,-0.904,9.383,0
346,35.297,-97.49,348.7,32.45,3,328,-2.829,-0.532,9.273,0
347,35.298,-97.49,349.2,31.96,4,328,-2.376,-0.227,9.759,0
348,35.298,-97.49,350.3,30.98,5,328,-2.453,-0.39,9.257,0
349,35.298,-97.49,350.3,30.98,5,328,-2.708,-0.913,9.141,0
350,35.298,-97.49,352.3,29.86,5,329,-2.724,-1.059,8.932,0
351,35.299,-97.49,353.4,29.48,4,330,-2.829,-1.26,9.085,0
352,35.299,-97.49,354.1,29.2,4,331,-2.908,-1.337,9.028,0
353,35.299,-97.49,355.3,29.14,4,331,-2.91,-1.221,9.056,0
354,35.299,-97.49,356.8,29.26,4,331,-2.836,-1.065,9.092,0
355,35.3,-97.49,357.3,29.01,5,332,-2.888,-0.776,9.116,1
356,35.3,-97.49,358.4,28.79,5,334,-2.711,-1.317,9.031,1
357,35.3,-97.49,359.8,28.63,4,334,-2.553,-1.481,8.752,1
358,35.3,-97.49,359.9,28.64,4,335,-2.653,-1.408,8.958,1
359,35.301,-97.49,359.9,28.69,3,336,-2.776,-1.374,8.97,1
360,35.301,-97.49,0.1,28.75,3,336,-2.714,-1.366,9.011,1
361,35.301,-97.49,0.4,28.84,3,337,-2.802,-1.478,8.867,1
362,35.302,-97.49,0.4,29.03,3,338,-2.775,-1.697,8.763,1
363,35.302,-97.49,0.2,29.4,3,339,-3.091,-1.872,8.82,1
364,35.302,-97.49,0.3,30.08,3,339,-2.949,-1.968,8.755,1
365,35.302,-97.49,0.3,30.43,3,339,-2.981,-1.877,8.823,1
366,35.303,-97.49,359.9,31.15,4,340,-3.158,-1.734,8.89,1
367,35.303,-97.49,359.2,31.61,4,340,-2.316,-1.057,8.922,1
368,35.303,-97.49,0.2,31.47,3,342,-2.201,-1.077,9.083,1
369,35.303,-97.49,0.4,31.03,3,342,-2.466,-0.691,9.111,1
370,35.304,-97.49,0.9,30.58,3,343,-2.286,-1.098,9.292,1
371,35.304,-97.49,1,30.2,3,343,-2.161,-1.267,9.427,1
372,35.304,-97.49,0.7,29.78,3,344,-2.107,-1.264,9.28,1
373,35.305,-97.49,0.3,29.38,3,344,-2.04,-1.232,9.091,1
374,35.305,-97.49,0,28.98,3,343,-2.146,-1.145,9.094,1
375,35.305,-97.49,0.4,28.35,3,344,-2.354,-1.224,9.256,1
376,35.305,-97.49,0.2,28.74,3,345,-2.326,-1.338,8.923,1
377,35.306,-97.49,359.7,28.13,3,344,-2.183,-1.495,8.976,1
378,35.306,-97.49,359.2,27.86,3,346,-2.42,-1.518,9.054,1
379,35.306,-97.49,358.9,27.87,3,347,-2.345,-1.489,8.954,1
380,35.306,-97.49,358.5,27.9,3,347,-2.804,-1.36,8.94,1
381,35.307,-97.49,358.8,28.06,3,346,-2.802,-1.204,8.737,1
382,35.307,-97.49,359.4,28.22,3,347,-2.771,-1.496,8.906,1
383,35.307,-97.49,359.8,28.5,3,348,-2.661,-1.555,8.945,1
384,35.307,-97.49,359.9,28.78,3,347,-2.697,-1.674,8.826,1
385,35.308,-97.49,359.7,29.14,3,347,-3.012,-1.523,8.974,1
386,35.308,-97.49,359.9,29.62,3,347,-2.819,-1.697,8.831,1
387,35.308,-97.49,0,30.04,3,347,-2.828,-1.598,8.969,1
388,35.308,-97.49,0,30.4,3,347,-2.779,-1.771,8.933,1
389,35.309,-97.49,0,30.76,3,347,-2.792,-1.538,8.864,1
390,35.309,-97.49,359.9,31.03,3,348,-2.662,-1.411,8.963,1
391,35.309,-97.49,0,31.14,3,348,-2.635,-1.418,9.132,1
392,35.31,-97.49,0,31.22,3,348,-2.592,-1.555,9.228,1
393,35.31,-97.49,0,31.36,3,349,-2.807,-1.335,9.085,1
394,35.31,-97.49,0,31.47,3,348,-2.477,-1.134,9.226,1
395,35.31,-97.49,0.3,31.37,3,349,-2.333,-1.448,9.055,1
396,35.311,-97.49,0.1,31.28,3,347,-2.447,-1.441,8.969,1
397,35.311,-97.49,359.8,31.27,3,347,-2.616,-1.363,9.004,1
399,35.311,-97.49,359.8,31.31,3,346,-2.642,-1.408,9.212,1
399,35.311,-97.49,359.8,31.31,3,346,-2.642,-1.408,9.212,1
400,35.311,-97.49,359.9,31.31,3,346,-2.647,-1.407,9.453,1
401,35.312,-97.49,0.2,31.36,3,347,-2.607,-1.462,9.088,1
402,35.312,-97.49,0.1,31.36,3,347,-2.429,-1.413,9.069,1
403,35.312,-97.49,0.1,31.31,3,346,-2.298,-1.275,9.2,1
404,35.313,-97.49,0.1,30.99,3,347,-2.327,-1.341,8.954,1
405,35.313,-97.49,0,30.59,3,348,-2.451,-1.473,8.916,1
406,35.313,-97.49,359.8,30.48,3,347,-2.445,-1.581,9.195,1
407,35.313,-97.49,359.6,30.44,3,346,-2.583,-1.3,9.028,1
408,35.314,-97.49,359.6,30.35,3,348,-2.621,-1.371,8.912,1
409,35.314,-97.49,359.9,30.35,3,347,-2.582,-1.451,8.958,1
410,35.314,-97.49,359.9,30.32,3,348,-2.594,-1.419,8.953,1
411,35.315,-97.49,0,30.3,3,348,-2.59,-1.274,8.881,1
412,35.315,-97.49,0.2,30.27,3,347,-2.646,-1.413,9.34,1
413,35.315,-97.49,0,30.21,3,349,-2.499,-1.448,9.137,1
414,35.316,-97.49,359.9,30.15,3,348,-2.294,-1.427,8.825,1
415,35.316,-97.49,0,30.06,3,347,-2.6,-1.216,8.869,1
416,35.316,-97.49,0,29.82,3,347,-2.388,-1.218,9.025,1
417,35.316,-97.49,0,29.62,3,347,-2.336,-1.398,9.066,1
418,35.317,-97.49,359.9,29.371,3,348,-2.486,-1.251,8.858,1
419,35.317,-97.49,0.3,29.25,3,348,-2.674,-1.272,8.98,1
420,35.317,-97.49,0.3,29.14,3,347,-2.491,-1.427,8.8,1
421,35.317,-97.49,0.1,29.13,3,348,-2.592,-1.518,9.192,1
422,35.318,-97.49,0.1,29.05,3,347,-2.536,-1.467,8.996,1
423,35.318,-97.49,0.1,29.07,3,347,-2.566,-1.544,9.199,1
424,35.318,-97.49,0,29.06,3,347,-2.558,-1.528,9.071,1
425,35.319,-97.49,359.7,28.96,3,347,-2.538,-1.537,8.946,1
426,35.319,-97.49,359.8,28.93,3,348,-2.701,-1.335,9.03,1
427,35.319,-97.49,359.9,28.91,3,348,-2.501,-1.359,9.086,1
428,35.319,-97.49,359.8,28.89,3,348,-2.683,-1.311,9.06,1
429,35.32,-97.49,359.9,28.89,3,349,-2.579,-1.431,9.022,1
430,35.32,-97.49,359.9,28.96,3,350,-2.568,-1.539,8.877,1
431,35.32,-97.49,359.9,29.3,3,350,-2.76,-1.499,8.969,1
432,35.32,-97.49,359.9,28.882,3,350,-2.637,-1.571,8.912,1
433,35.321,-97.49,0,29.55,3,350,-2.602,-1.612,8.88,1
434,35.321,-97.49,359.8,29.73,3,350,-2.561,-1.479,9.075,1
435,35.321,-97.49,359.6,29.82,3,350,-2.722,-1.474,9.037,1
436,35.321,-97.49,359.7,29.93,3,350,-2.763,-1.406,8.987,1
437,35.322,-97.49,0,30.08,3,351,-2.765,-1.52,9.283,1
438,35.322,-97.49,0.1,30.27,3,352,-2.518,-1.61,9.235,1
439,35.322,-97.49,0,30.45,3,351,-2.628,-1.534,9.162,1
440,35.323,-97.49,0,30.63,3,351,-2.627,-1.467,9.031,1
441,35.323,-97.49,0,30.76,3,352,-2.517,-1.553,9.114,1
442,35.323,-97.49,359.9,30.85,3,352,-2.493,-1.502,9.055,1
443,35.323,-97.49,359.9,30.9,3,351,-2.534,-1.399,8.95,1
444,35.324,-97.49,359.9,30.94,3,351,-2.627,-1.386,8.988,1
445,35.324,-97.49,0,30.95,3,351,-2.603,-1.319,8.943,1
446,35.324,-97.49,0.1,30.95,3,351,-2.609,-1.431,8.952,1
447,35.324,-97.49,0.2,30.96,3,352,-2.636,-1.489,8.996,1
448,35.325,-97.49,0.1,30.95,3,352,-2.494,-1.46,8.842,1
449,35.325,-97.49,0.2,30.94,3,351,-2.471,-1.562,8.988,1
450,35.325,-97.49,0.1,30.92,3,350,-2.554,-1.512,8.94,1
451,35.326,-97.49,359.9,30.92,3,351,-2.571,-1.54,9.263,1
452,35.326,-97.49,359.9,30.96,3,351,-2.483,-1.537,9.292,1
453,35.326,-97.49,359.7,30.931,3,353,-2.561,-1.527,9.245,1
454,35.326,-97.49,359.6,30.96,3,352,-2.395,-1.44,8.751,1
455,35.327,-97.49,359.6,30.98,3,352,-2.765,-1.391,8.96,1
456,35.327,-97.49,359.8,31,3,352,-2.66,-1.382,9.149,1
457,35.327,-97.49,0,31.01,3,352,-2.636,-1.388,9.008,1
458,35.328,-97.49,0.4,31.11,3,352,-2.65,-1.427,9.142,1
459,35.328,-97.49,0,31.06,3,352,-2.684,-1.432,9.095,1
460,35.328,-97.49,0,31.08,3,353,-2.549,-1.44,8.985,1
461,35.328,-97.49,0,31.1,3,354,-2.551,-1.423,8.902,1
462,35.329,-97.49,0.1,31.1,3,354,-2.471,-1.504,8.969,1
463,35.329,-97.49,0.1,31.12,3,355,-2.554,-1.496,8.989,1
464,35.329,-97.49,359.8,31.12,3,355,-2.734,-1.431,9.09,1
465,35.33,-97.49,359.8,31.14,3,355,-2.717,-1.477,9.261,1
467,35.33,-97.49,0,31.15,3,355,-2.535,-1.535,9.309,1
467,35.33,-97.49,0,31.15,3,355,-2.535,-1.535,9.309,1
468,35.33,-97.49,0.1,31.15,3,355,-2.549,-1.625,9.183,0
469,35.33,-97.49,0,31.13,3,356,-2.628,-1.339,9.121,0
470,35.331,-97.49,359.9,31.13,3,356,-2.477,-1.458,8.791,0
471,35.331,-97.49,359.8,31.13,3,356,-2.596,-1.424,8.935,0
472,35.331,-97.49,359.7,31.12,3,357,-2.711,-1.211,8.724,0
473,35.331,-97.49,359.9,31.12,3,356,-2.741,-1.347,8.902,0
474,35.332,-97.49,0,31.11,3,357,-2.628,-1.366,8.888,0
475,35.332,-97.49,0.2,31.16,3,358,-2.541,-1.419,9.037,1
476,35.332,-97.49,359.9,31.15,3,358,-2.57,-1.428,9.071,1
477,35.333,-97.49,359.4,31.14,3,359,-2.312,-1.594,8.77,1
478,35.333,-97.49,358.5,31.12,3,357,-2.269,-1.627,8.829,1
479,35.333,-97.49,355.8,31.14,3,356,-2.559,-1.397,8.827,1
480,35.334,-97.49,354.7,31.14,3,355,-2.468,-1.555,8.943,1
481,35.334,-97.49,354,30.87,3,352,-2.376,-1.701,9.062,1
482,35.334,-97.49,352.7,30.82,3,353,-2.33,-1.735,9.067,1
483,35.335,-97.49,350.3,31.12,3,351,-2.271,-1.799,9.309,1
484,35.335,-97.49,348.7,31.11,3,349,-2.232,-1.745,9.177,1
485,35.335,-97.49,347.3,31.12,3,347,-2.378,-1.632,9.081,1
486,35.335,-97.49,346.1,31.12,3,348,-2.457,-1.549,9.061,1
487,35.336,-97.49,345.6,31.32,4,348,-2.464,-1.66,9.126,1
488,35.336,-97.491,344.8,31.64,6,348,-2.702,-1.502,9.278,1
489,35.336,-97.491,342.7,31.091,4,348,-2.638,-1.589,9.365,1
490,35.336,-97.491,342.2,31.011,4,349,-2.624,-1.447,9.051,1
491,35.337,-97.491,341.8,30.842,4,350,-2.682,-1.513,9.202,1
492,35.337,-97.491,341.7,30.722,3,351,-2.85,-1.24,9.184,1
493,35.337,-97.491,341.9,30.574,3,352,-2.842,-1.199,8.939,1
494,35.338,-97.491,342.4,30.433,3,353,-2.652,-1.412,8.747,1
495,35.338,-97.491,342.3,30.452,3,354,-2.494,-1.847,9.14,1
496,35.338,-97.491,341.9,30.541,3,354,-2.438,-1.856,8.985,1
497,35.338,-97.492,341.5,30.691,3,354,-2.809,-1.69,9.178,0
498,35.339,-97.492,341.3,30.831,3,356,-1.929,-1.481,8.385,0
499,35.339,-97.492,341.3,30.961,3,356,-2.585,-1.5,8.599,0
500,35.339,-97.492,341.4,31.1,3,356,-2.608,-1.571,8.828,0
501,35.339,-97.492,341.5,31.26,3,356,-2.512,-1.596,9.077,0
502,35.34,-97.492,341.5,31.38,3,357,-2.394,-1.641,9.168,0
503,35.34,-97.492,341.4,31.43,3,357,-2.379,-1.639,9.038,0
504,35.34,-97.492,341.3,31.44,3,357,-2.415,-1.482,8.825,1
505,35.34,-97.492,341.3,31.46,3,357,-2.412,-1.402,8.977,1
506,35.341,-97.492,341.3,31.43,3,356,-2.534,-1.391,8.974,1
507,35.341,-97.493,341.4,31.39,3,356,-2.442,-1.409,8.872,1
508,35.341,-97.493,341.4,31.38,3,356,-2.392,-1.4,8.951,1
509,35.342,-97.493,341.4,31.37,3,357,-2.487,-1.389,9.231,1
510,35.342,-97.493,341.5,31.4,3,358,-2.455,-1.422,9.085,1
511,35.342,-97.493,341.4,31.41,3,357,-2.499,-1.383,9.003,1
512,35.342,-97.493,341.3,31.44,3,357,-2.514,-1.344,9.094,1
513,35.343,-97.493,341.3,31.46,3,358,-2.31,-1.229,9.287,1
514,35.343,-97.493,341.2,31.26,3,358,-2.523,-1.019,9.192,1
515,35.343,-97.493,341.4,30.99,3,358,-2.696,-1.314,9.523,0
516,35.343,-97.494,341.9,31.06,3,357,-2.842,-1.059,9.275,0
517,35.344,-97.494,342.2,30.97,3,357,-2.302,-0.796,8.65,0
518,35.344,-97.494,342.8,30.761,3,357,-2.831,-1.087,9.076,0
519,35.344,-97.494,343.9,30.771,3,358,-2.813,-1.107,8.934,0
520,35.344,-97.494,344.7,30.882,3,357,-2.871,-1.142,9.097,0
521,35.345,-97.494,345.6,31.121,3,355,-2.954,-1.019,9.189,0
522,35.345,-97.494,346.8,31.26,3,355,-3.114,-0.898,9.273,0
523,35.345,-97.494,348.1,31.38,3,355,-2.784,-0.867,9.382,0
524,35.346,-97.494,349.1,31.33,3,355,-2.812,-0.94,9.252,0
525,35.346,-97.494,350,31.16,3,355,-2.892,-1.024,9.105,0
527,35.346,-97.494,351,31.1,3,355,-2.85,-0.813,9.057,0
527,35.346,-97.494,351,31.1,3,355,-2.85,-0.813,9.057,0
528,35.346,-97.494,352.1,30.94,3,355,-2.996,-1.007,8.947,0
529,35.347,-97.494,353.4,30.72,3,355,-2.94,-1.239,9.106,0
530,35.347,-97.495,354.3,30.741,3,355,-2.868,-1.227,8.887,0
531,35.347,-97.495,355,30.811,3,355,-2.873,-1.217,9.062,1
532,35.347,-97.495,355.9,30.871,3,355,-2.958,-1.166,9.121,1
533,35.348,-97.495,356.7,30.93,3,356,-2.959,-1.113,9.009,1
534,35.348,-97.495,357.6,30.98,3,356,-2.991,-1.063,8.974,1
535,35.348,-97.495,358.8,30.951,3,356,-2.75,-1.231,9.092,1
536,35.349,-97.495,359.4,30.96,3,357,-2.636,-1.433,8.981,1
537,35.349,-97.495,0.4,31.141,3,357,-2.855,-1.525,9.596,0
538,35.349,-97.495,359.8,30.79,3,357,-2.59,-1.567,9.178,0
539,35.349,-97.495,0.4,30.911,3,357,-2.282,-1.653,9.367,0
540,35.35,-97.495,359.7,30.94,3,358,-2.465,-1.679,8.927,0
541,35.35,-97.495,359.7,30.95,3,358,-2.521,-1.704,9.289,0
542,35.351,-97.495,359.6,30.911,3,359,-2.601,-1.773,9.445,0
543,35.351,-97.495,359.5,30.911,3,360,-2.422,-1.605,8.803,0
544,35.351,-97.495,359.5,30.91,3,360,-2.504,-1.487,8.945,0
545,35.351,-97.495,359.5,30.891,3,361,-2.56,-1.511,8.944,0
546,35.352,-97.495,359.6,30.851,3,361,-2.582,-1.418,9.067,0
547,35.352,-97.495,359.6,30.861,3,362,-2.311,-1.462,8.97,0
548,35.352,-97.495,359.5,30.84,3,361,-2.476,-1.585,9.074,0
549,35.352,-97.495,359.6,30.82,3,362,-2.441,-1.505,8.888,0
550,35.353,-97.495,359.6,30.781,3,363,-2.479,-1.374,8.674,1
551,35.353,-97.495,359.6,30.761,3,363,-2.424,-1.566,9.132,1
552,35.353,-97.495,359.5,30.751,3,363,-2.382,-1.43,9.065,1
553,35.354,-97.495,359.5,30.751,3,363,-2.521,-1.389,8.859,1
554,35.354,-97.495,359.8,30.72,3,362,-2.647,-1.377,8.823,1
555,35.354,-97.495,359.8,30.96,3,362,-2.551,-1.498,8.78,1
556,35.354,-97.495,359.9,30.85,3,363,-2.457,-1.679,9.004,1
557,35.355,-97.495,359.7,30.88,3,364,-2.694,-1.447,9.023,1
558,35.355,-97.495,359.7,30.89,3,364,-2.808,-1.583,9.187,1
559,35.355,-97.495,359.8,30.92,3,365,-2.58,-1.425,8.706,1
560,35.356,-97.495,359.8,30.94,3,365,-2.588,-1.52,8.973,1
561,35.356,-97.495,359.6,30.931,3,365,-2.389,-1.504,8.65,1
562,35.356,-97.495,359.4,30.97,3,366,-2.508,-1.594,9.21,1
563,35.356,-97.495,359.2,31.03,3,366,-2.557,-1.433,9.136,0
564,35.357,-97.495,359.3,30.99,3,366,-2.685,-1.356,9.05,0
565,35.357,-97.495,359.3,30.98,3,367,-2.674,-1.692,9.318,0
566,35.357,-97.495,359.3,30.95,3,366,-2.795,-1.487,9.173,0
567,35.358,-97.495,359.2,30.94,3,366,-2.721,-1.36,8.898,0
568,35.358,-97.495,359.1,30.9,3,367,-2.751,-1.294,8.921,0
569,35.358,-97.495,359.5,30.83,3,367,-2.638,-1.34,8.849,0
570,35.358,-97.495,359.7,30.81,3,367,-2.479,-1.588,8.832,1
571,35.359,-97.495,359.5,30.85,3,367,-2.585,-1.406,8.865,1
572,35.359,-97.495,359.3,30.851,3,368,-2.606,-1.507,9.068,1
573,35.359,-97.495,359.2,30.752,3,368,-2.772,-1.447,8.942,1
574,35.359,-97.495,359.4,30.871,3,369,-2.678,-1.467,9.174,1
575,35.36,-97.495,359.4,30.891,3,370,-2.535,-1.508,8.842,1
576,35.36,-97.495,359.3,30.891,3,370,-2.425,-1.652,9.12,1
577,35.36,-97.495,359.3,30.911,3,371,-2.503,-1.647,9.23,1
578,35.361,-97.495,359.4,30.94,3,371,-2.51,-1.64,9.54,0
579,35.361,-97.495,359.4,30.871,3,371,-2.56,-1.59,9.214,0
580,35.361,-97.495,359.2,30.781,3,371,-2.698,-1.643,9.316,0
581,35.361,-97.495,359,30.672,3,372,-2.67,-1.516,9.023,0
582,35.362,-97.495,359.1,30.593,3,372,-2.679,-1.584,9.067,0
583,35.362,-97.495,359.3,30.543,3,373,-2.54,-1.413,8.46,0
584,35.362,-97.495,359.4,30.542,3,373,-2.756,-1.575,8.757,0
585,35.363,-97.495,359.5,30.622,3,373,-2.802,-1.566,9.41,0
586,35.363,-97.495,359.5,30.731,3,374,-2.714,-1.687,8.815,1
587,35.363,-97.495,359.4,30.871,3,375,-2.959,-1.893,9.339,1
588,35.363,-97.495,359.3,31.04,3,374,-2.55,-1.405,8.735,0
589,35.364,-97.495,359.3,31.22,3,374,-2.508,-1.399,8.791,0
590,35.364,-97.495,359.3,31.39,3,375,-2.229,-1.356,8.197,0
591,35.364,-97.495,359.4,31.561,3,375,-2.344,-1.544,9.046,0
593,35.364,-97.495,359.4,31.702,3,375,-2.308,-1.517,9.359,0
593,35.364,-97.495,359.4,31.702,3,375,-2.308,-1.517,9.359,0
594,35.365,-97.495,359.2,31.792,3,375,-2.131,-1.388,8.967,0
595,35.365,-97.495,359.1,31.851,3,374,-2.53,-1.477,9.497,0
596,35.365,-97.495,359.2,31.76,3,373,-2.217,-1.404,9.335,0
597,35.366,-97.495,359.2,31.65,3,374,-2.53,-1.542,9.78,0
598,35.366,-97.495,358.4,31.551,3,373,-2.536,-1.691,9.702,0
599,35.366,-97.495,359.2,31.37,3,373,-2.437,-1.491,9.467,0
600,35.366,-97.495,359.1,30.981,3,374,-2.498,-1.558,9.347,0
601,35.367,-97.495,359.2,30.791,3,374,-2.493,-1.581,9.272,0
602,35.367,-97.495,359.4,30.711,3,374,-2.339,-1.685,9.183,0
603,35.367,-97.495,359.5,30.611,3,375,-2.445,-1.727,9.111,0
604,35.368,-97.495,359.4,30.531,3,376,-2.413,-1.626,8.83,0
605,35.368,-97.495,359.3,30.521,3,376,-2.534,-1.679,9.039,0
606,35.368,-97.495,359.1,30.562,3,377,-2.443,-1.559,8.883,1
607,35.369,-97.495,359.3,30.661,3,378,-2.677,-1.627,9.279,1
608,35.369,-97.495,359.3,30.711,3,378,-2.681,-1.616,9.261,1
609,35.369,-97.495,359.3,30.731,3,378,-2.64,-1.605,8.792,1
610,35.37,-97.495,359.4,30.781,3,378,-2.605,-1.469,9,1
611,35.37,-97.495,359.5,30.791,3,378,-2.502,-1.549,8.786,1
612,35.37,-97.495,359.5,30.9,3,378,-2.358,-1.666,8.798,1
613,35.37,-97.495,359.4,31,3,378,-2.317,-1.559,8.703,1
614,35.371,-97.495,359.3,31.09,3,378,-2.618,-1.644,8.953,1
615,35.371,-97.495,359.2,31.17,3,378,-2.598,-1.565,8.726,1
616,35.371,-97.495,359.1,31.23,3,379,-2.651,-1.493,9.399,1
617,35.371,-97.495,359.2,31.23,3,379,-2.612,-1.433,8.918,1
618,35.372,-97.495,359.3,31.22,3,379,-2.536,-1.584,9.327,1
619,35.372,-97.495,359.3,31.22,3,379,-2.392,-1.565,8.931,1
620,35.372,-97.495,359.2,31.19,3,380,-2.313,-1.663,8.785,1
621,35.373,-97.495,359.3,31.19,3,381,-2.478,-1.526,8.796,1
622,35.373,-97.495,359.4,31.2,3,381,-2.668,-1.449,8.968,1
623,35.373,-97.495,359.5,31.191,3,382,-2.373,-1.542,8.948,1
624,35.373,-97.495,359.4,31.101,3,382,-2.4,-1.509,8.994,1
625,35.374,-97.495,359.4,31.06,3,382,-2.302,-1.252,8.856,1
626,35.374,-97.495,359.6,30.81,3,382,-2.144,-1.337,9.186,1
627,35.374,-97.495,359.6,30.48,3,383,-2.065,-1.439,9.27,1
628,35.375,-97.495,359.5,30.19,3,383,-2.199,-1.314,8.973,1
629,35.375,-97.495,359.4,29.93,3,383,-2.525,-1.414,9.231,1
630,35.375,-97.495,359.4,29.7,3,384,-2.274,-1.342,9.23,1
631,35.375,-97.495,359.6,29.411,3,385,-2.59,-1.577,9.272,1
632,35.376,-97.495,359.8,29.102,3,385,-2.404,-1.466,9.096,1
633,35.376,-97.495,0,28.902,3,386,-2.486,-1.477,8.905,1
634,35.376,-97.495,359.9,28.642,3,387,-2.575,-1.406,8.961,1
635,35.376,-97.495,0.1,28.521,3,388,-2.468,-1.552,9.009,1
636,35.377,-97.495,0.2,28.421,3,388,-2.448,-1.411,8.935,1
637,35.377,-97.495,0,28.401,3,388,-2.697,-1.732,9.915,0
638,35.377,-97.495,0,28.44,3,388,-2.266,-1.571,8.58,0
639,35.377,-97.495,359.8,28.56,3,388,-2.074,-1.663,8.613,0
640,35.378,-97.495,359.7,28.74,3,389,-2.159,-1.458,7.915,0
641,35.378,-97.495,359.6,29.03,3,389,-2.006,-1.389,8.909,0
642,35.378,-97.495,359.6,29.33,3,387,-2.556,-1.583,8.792,0
643,35.378,-97.495,359.7,29.651,3,388,-2.774,-1.463,9.155,0
644,35.379,-97.495,359.9,29.921,3,388,-2.537,-1.487,8.942,0
645,35.379,-97.495,0.1,30.12,3,388,-2.574,-1.365,8.896,1
646,35.379,-97.495,0,30.542,3,387,-2.6,-1.48,9.059,1
647,35.38,-97.495,0.2,30.65,3,387,-2.384,-1.766,9.193,1
648,35.38,-97.495,359.8,30.941,3,386,-2.501,-1.365,9.059,1
649,35.38,-97.495,359.6,31.05,3,386,-2.546,-1.541,9.265,1
650,35.38,-97.495,359.7,31.04,3,386,-2.552,-1.629,9.454,1
651,35.381,-97.495,359.6,30.99,3,386,-2.27,-1.473,9.425,1
652,35.381,-97.495,359.7,30.88,3,386,-2.286,-1.321,9.286,1
653,35.381,-97.495,359.7,30.74,3,387,-2.62,-1.296,8.997,0
654,35.381,-97.495,359.4,30.59,3,386,-2.508,-1.115,8.557,0
655,35.382,-97.495,0,30.56,3,386,-2.495,-1.238,8.654,0
656,35.382,-97.495,0,30.57,3,386,-2.256,-1.434,8.989,0
657,35.382,-97.495,359.8,30.64,3,386,-2.276,-1.045,8.844,0
659,35.383,-97.495,359.9,30.69,3,386,-2.236,-1.103,8.737,0
659,35.383,-97.495,359.9,30.69,3,386,-2.236,-1.103,8.737,0
660,35.383,-97.495,0,30.73,3,386,-2.178,-1.24,9.051,0
661,35.383,-97.495,0,30.74,3,386,-2.332,-1.089,9.264,1
662,35.383,-97.495,359.9,30.74,3,386,-2.324,-1.238,9.414,1
663,35.384,-97.495,359.9,30.78,3,386,-2.368,-1.116,9.177,1
664,35.384,-97.495,359.9,30.83,3,385,-2.56,-1.026,9.358,1
665,35.384,-97.495,359.8,30.77,3,386,-2.272,-0.925,9.018,1
666,35.385,-97.495,0.9,30.87,3,385,-2.238,-1.437,9.198,1
667,35.385,-97.495,0,30.58,3,384,-2.169,-1.373,9.484,1
668,35.385,-97.495,359.6,30.41,3,384,-2.497,-1.262,9.787,0
669,35.385,-97.495,359.7,30.06,3,384,-2.322,-1.135,9.151,0
670,35.386,-97.495,359.5,29.66,3,383,-2.504,-1.102,9.44,0
671,35.386,-97.495,359.8,29.16,3,384,-2.237,-1.068,9.134,0
672,35.386,-97.495,0,28.26,3,384,-2.492,-1.44,9.176,0
673,35.387,-97.495,0,28.3,3,383,-2.554,-1.587,8.709,0
674,35.387,-97.495,359.9,28.53,3,382,-2.422,-1.665,8.939,0
675,35.387,-97.495,359.7,28.76,3,382,-2.671,-1.606,9.032,0
676,35.387,-97.495,359.6,29.01,3,382,-2.643,-1.466,8.893,1
677,35.388,-97.495,359.6,29.19,3,382,-2.546,-1.513,8.828,1
678,35.388,-97.495,359.6,29.24,3,382,-2.229,-1.299,9.107,1
679,35.388,-97.495,359.5,29.03,3,382,-2.8,-1.314,9.004,1
680,35.388,-97.495,359.8,29.27,3,383,-2.838,-1.711,9.19,1
681,35.389,-97.495,359.8,29.73,3,383,-2.931,-1.759,9.168,1
682,35.389,-97.495,359.9,30.26,3,383,-3.008,-1.631,8.696,1
683,35.389,-97.495,0,30.81,3,383,-2.871,-1.704,8.68,1
684,35.39,-97.495,359.9,31.34,3,382,-2.807,-1.666,8.663,1
685,35.39,-97.495,359.8,31.9,3,382,-2.89,-1.822,8.902,1
686,35.39,-97.495,359.7,32.39,3,381,-2.764,-1.826,8.903,1
687,35.39,-97.495,359.6,32.89,3,383,-2.953,-1.867,9.08,1
688,35.391,-97.495,359.6,33.54,3,381,-2.771,-1.654,8.577,1
689,35.391,-97.495,359.7,33.93,3,381,-2.688,-1.518,8.893,1
690,35.391,-97.495,359.9,34.08,3,380,-2.513,-1.287,9.05,1
691,35.392,-97.495,0.2,33.31,3,380,-2.195,-1.188,8.867,1
692,35.392,-97.495,0.6,34.31,4,379,-2.242,-1.188,9.3,1
693,35.392,-97.495,359.9,33.76,3,379,-2.636,-1.114,9.082,1
694,35.393,-97.495,0.1,33.33,3,380,-2.487,-1.555,9.146,1
695,35.393,-97.495,0,33.291,3,380,-2.4,-1.419,8.891,1
696,35.393,-97.495,359.9,33.27,3,380,-2.473,-1.49,9.051,1
697,35.393,-97.495,359.9,33.27,3,381,-2.563,-1.447,9.135,1
698,35.394,-97.495,0.2,33.26,3,381,-2.462,-1.358,9.213,1
699,35.394,-97.495,0.2,33.26,3,382,-2.285,-1.43,8.866,1
700,35.394,-97.495,0.1,33.17,3,382,-2.378,-1.445,8.945,1
701,35.395,-97.495,359.9,33.051,3,382,-2.548,-1.428,9.126,1
702,35.395,-97.495,359.9,33.051,3,383,-2.655,-1.482,9.216,1
703,35.395,-97.495,0.2,32.982,3,383,-2.549,-1.544,8.987,1
704,35.396,-97.495,0.1,33.02,3,384,-2.389,-1.673,9.144,1
705,35.396,-97.495,0,33.07,3,383,-2.456,-1.625,8.883,1
706,35.396,-97.495,359.9,33.13,3,382,-2.476,-1.512,8.975,1
707,35.396,-97.495,359.7,33.16,3,382,-2.504,-1.225,8.628,1
708,35.397,-97.495,359.9,33.19,3,382,-2.282,-1.192,8.703,1
709,35.397,-97.495,0,33.16,3,382,-2.313,-1.04,9.135,1
710,35.397,-97.495,0.2,32.91,3,382,-2.041,-1.253,8.996,1
711,35.398,-97.495,0.2,32.68,3,382,-1.994,-1.112,8.975,1
712,35.398,-97.495,0.1,32.46,3,382,-1.898,-0.916,9.195,1
713,35.398,-97.495,0.1,32.09,3,382,-2.067,-0.941,9.486,1
714,35.399,-97.495,0.1,31.55,3,381,-2.034,-0.802,9.392,1
715,35.399,-97.495,0.1,31.04,3,381,-2.226,-1.054,9.456,1
716,35.399,-97.495,0.4,30.171,3,379,-2.223,-1.219,9.47,1
717,35.399,-97.495,0.1,30.22,3,379,-2.341,-1.162,9.594,0
718,35.4,-97.495,0.1,29.771,3,378,-2.59,-1.377,9.12,0
719,35.4,-97.495,0.3,29.352,3,378,-2.499,-1.402,9.305,0
720,35.4,-97.495,0.4,29.023,3,378,-2.125,-1.818,9.077,0
722,35.4,-97.495,0,28.864,3,378,-2.663,-1.788,8.916,0
722,35.4,-97.495,0,28.864,3,378,-2.663,-1.788,8.916,0
723,35.401,-97.495,359.3,28.973,3,377,-2.742,-1.574,8.369,0
724,35.401,-97.495,359.3,29.162,3,376,-2.974,-1.482,8.68,0
725,35.401,-97.495,359.9,29.362,3,377,-3.331,-1.176,8.988,1
726,35.401,-97.495,0.8,29.611,3,377,-3.389,-1.223,8.827,1
727,35.402,-97.495,1.3,29.77,3,376,-3.083,-1.337,8.673,1
728,35.402,-97.495,2.8,30.01,3,376,-3.031,-1.284,8.59,1
729,35.402,-97.495,3.6,30.36,3,377,-2.966,-1.271,8.967,1
730,35.403,-97.495,5.5,31.01,3,377,-2.864,-1.157,8.978,1
731,35.403,-97.495,6.5,31.311,3,377,-2.711,-1.171,10.073,0
732,35.403,-97.495,7.2,31.441,3,373,-2.958,-0.989,9.3,0
733,35.403,-97.495,8.3,31.56,3,370,-2.988,-1.065,9.479,0
734,35.404,-97.495,11,31.601,3,367,-3.007,-1.141,9.459,0
735,35.404,-97.495,11.7,31.62,3,366,-2.495,-1.236,9.046,0
736,35.405,-97.495,12.3,31.44,3,366,-2.6,-1.058,8.991,0
737,35.405,-97.494,13.2,31.19,3,370,-2.788,-1.01,9.125,0
738,35.405,-97.494,14.2,31.01,3,369,-2.883,-1.178,9.375,0
739,35.405,-97.494,15.7,30.631,3,369,-2.741,-0.952,8.837,0
740,35.406,-97.494,16.8,30.311,3,368,-2.538,-1.085,8.992,0
741,35.406,-97.494,17.4,29.972,3,368,-1.886,-1.183,8.54,0
742,35.406,-97.494,17.6,29.661,3,368,-2.075,-1.188,8.909,1
743,35.406,-97.494,17.6,29.341,3,368,-1.924,-1.369,8.446,1
744,35.407,-97.494,17.5,29.11,3,367,-2.069,-1.437,8.726,1
745,35.407,-97.494,17.3,28.96,3,366,-2.414,-1.391,8.779,1
746,35.407,-97.494,17.4,28.88,3,365,-2.391,-1.433,9.072,1
747,35.407,-97.493,17.5,28.81,3,365,-2.46,-1.455,8.944,1
748,35.408,-97.493,17.5,28.76,3,365,-2.487,-1.379,9.031,1
749,35.408,-97.493,17.7,28.72,3,364,-2.455,-1.551,9.002,1
750,35.408,-97.493,17.7,28.661,3,363,-2.468,-1.523,8.904,0
751,35.408,-97.493,17.5,28.64,3,363,-2.6,-1.382,8.143,0
752,35.409,-97.493,17.5,28.63,3,363,-1.88,-1.317,9.287,0
753,35.409,-97.493,17.4,28.66,3,363,-2.582,-1.408,8.707,0
754,35.409,-97.493,17.4,28.69,3,363,-2.795,-1.479,9.041,0
755,35.409,-97.493,17.5,28.76,3,363,-2.723,-1.448,8.843,0
756,35.41,-97.493,17.7,28.85,3,363,-2.449,-1.477,8.668,0
757,35.41,-97.493,17.4,28.95,3,362,-2.399,-1.491,8.95,0
758,35.41,-97.492,17.5,29.09,3,362,-2.497,-1.396,9.12,0
759,35.41,-97.492,17.4,29.191,3,361,-2.493,-1.445,8.951,0
760,35.411,-97.492,17.4,29.221,3,361,-2.234,-1.382,9.238,0
761,35.411,-97.492,17.6,29.154,3,360,-1.946,-1.131,9.006,0
762,35.411,-97.492,17.4,28.842,3,361,-2.069,-1.095,8.635,0
763,35.411,-97.492,17.9,28.62,3,361,-2.177,-1.156,9.032,1
764,35.412,-97.492,17.8,28.48,3,361,-2.386,-1.201,9.17,1
765,35.412,-97.492,17.7,28.412,3,360,-2.239,-1.362,9.252,1
766,35.412,-97.492,17.8,28.283,3,359,-2.262,-1.36,9.152,1
767,35.412,-97.492,17.7,28.342,3,358,-2.184,-1.357,9.23,1
768,35.413,-97.491,17.5,28.23,3,358,-2.499,-1.39,9.315,1
769,35.413,-97.491,17.5,28.412,3,357,-2.323,-1.554,9.102,1
770,35.413,-97.491,17.5,28.682,3,357,-2.506,-1.497,9.219,1
771,35.413,-97.491,17.3,28.962,3,355,-2.646,-1.526,9.35,1
772,35.414,-97.491,17.5,29.201,3,354,-2.349,-1.399,9.105,1
773,35.414,-97.491,17.6,29.131,3,353,-2.302,-1.457,9.334,1
774,35.414,-97.491,17.5,28.81,3,352,-2.497,-1.403,9.142,1
775,35.414,-97.491,18.2,28.57,3,352,-2.438,-1.623,9.177,1
776,35.415,-97.491,17.6,28.611,3,353,-2.566,-1.627,8.989,1
777,35.415,-97.491,17.3,28.562,3,353,-2.35,-1.605,8.795,1
778,35.415,-97.491,17.3,28.463,3,354,-2.644,-1.613,8.795,1
779,35.415,-97.49,17.3,28.501,3,355,-2.682,-1.656,8.631,1
780,35.416,-97.49,17.5,28.702,3,356,-2.656,-1.696,8.568,1
782,35.416,-97.49,17.6,28.931,3,356,-2.415,-1.476,8.754,1
782,35.416,-97.49,17.6,28.931,3,356,-2.415,-1.476,8.754,1
783,35.416,-97.49,17.5,29.101,3,357,-2.427,-1.335,8.715,1
784,35.416,-97.49,17.5,28.751,3,358,-2.619,-1.278,8.845,1
785,35.417,-97.49,17.5,28.59,3,358,-2.538,-1.441,8.704,1
786,35.417,-97.49,17.7,28.69,3,358,-2.417,-1.523,8.873,1
787,35.417,-97.49,17.7,28.89,3,357,-2.61,-1.47,8.602,1
788,35.417,-97.49,17.4,29.2,3,357,-2.335,-1.414,9.195,1
789,35.418,-97.49,17.5,29.34,3,357,-2.174,-1.209,9.08,1
790,35.418,-97.489,17.5,29.131,3,356,-2.701,-1.502,9.828,0
791,35.418,-97.489,17.6,28.991,3,355,-2.424,-1.549,9.277,0
792,35.418,-97.489,17.6,29.05,3,356,-2.396,-1.483,9.375,0
793,35.419,-97.489,17.7,28.981,3,356,-2.423,-1.584,9.222,0
794,35.419,-97.489,17.7,28.702,9,358,-2.762,-1.39,9.267,0
795,35.419,-97.489,18,28.572,9,359,-2.743,-1.257,8.698,0
796,35.42,-97.489,18.8,28.562,9,359,-3.115,-1.365,8.875,0
797,35.42,-97.489,19.9,28.791,9,359,-2.986,-1.504,9.117,0
798,35.42,-97.489,20.5,29.081,9,359,-2.905,-1.506,8.8,1
799,35.42,-97.488,21.2,29.321,9,360,-3.167,-1.727,9.138,1
800,35.421,-97.488,21.7,29.61,9,359,-2.844,-1.248,9.146,1
801,35.421,-97.488,22.3,29.31,9,360,-1.977,-1.076,9.219,0
802,35.421,-97.488,22.4,28.89,9,360,-2.168,-1.216,9.156,0
803,35.421,-97.488,22.3,28.7,9,360,-2.52,-1.376,9.309,0
804,35.421,-97.488,22.1,28.58,9,360,-2.419,-1.226,9.006,0
805,35.422,-97.488,22.1,28.32,9,360,-2.306,-1.17,9.081,0
806,35.422,-97.488,22.2,28.221,9,359,-2.19,-1.266,8.928,0
807,35.422,-97.487,22.2,28.161,9,359,-2.463,-1.456,9.027,0
808,35.422,-97.487,22.2,28.331,9,359,-2.468,-1.445,8.908,1
809,35.423,-97.487,22.2,28.522,9,359,-2.412,-1.189,8.989,1
810,35.423,-97.487,22.1,28.542,9,358,-2.592,-1.128,8.802,1
811,35.423,-97.487,21.8,28.583,9,358,-2.549,-1.265,9.135,1
812,35.423,-97.487,21.3,28.742,9,357,-2.653,-1.385,9.078,1
813,35.424,-97.487,20.2,28.972,9,356,-2.417,-1.601,8.962,1
814,35.424,-97.487,18.8,29.222,9,356,-2.243,-1.694,9.145,1
815,35.424,-97.487,17.2,29.442,9,355,-2.357,-1.589,8.962,1
816,35.424,-97.487,15.8,29.642,9,354,-2.086,-1.564,8.686,1
817,35.425,-97.486,14.2,29.882,9,353,-2.342,-1.624,8.738,1
818,35.425,-97.486,12.9,30.122,9,353,-2.28,-1.751,9.202,1
819,35.425,-97.486,11.3,30.271,9,352,-2.207,-1.742,9.308,1
820,35.425,-97.486,9.8,30.461,9,351,-2.098,-1.723,8.798,1
821,35.426,-97.486,8.3,30.811,3,351,-2.283,-1.801,9.028,1
822,35.426,-97.486,6.7,31.121,3,351,-2.141,-1.503,9.118,1
823,35.426,-97.486,5.2,31.121,3,353,-2.07,-1.278,9.142,1
824,35.427,-97.486,3.7,31.042,3,351,-2.154,-1.456,9.071,1
825,35.427,-97.486,2.3,30.831,3,350,-2.502,-1.476,8.81,1
826,35.427,-97.486,0.9,31.04,3,350,-2.866,-1.369,9.402,1
827,35.427,-97.486,0.3,31.39,3,349,-2.671,-1.362,8.888,1
828,35.428,-97.486,0,31.74,3,349,-2.716,-1.35,9.528,1
829,35.428,-97.486,0,32.06,3,348,-2.857,-1.432,9.46,0
830,35.428,-97.486,0.7,32.24,3,347,-2.601,-1.73,9.281,0
831,35.429,-97.486,0.2,32.36,3,347,-2.74,-1.583,8.984,0
832,35.429,-97.486,0.2,32.89,3,346,-2.838,-1.791,8.906,0
833,35.429,-97.486,0.4,33.4,3,346,-2.764,-1.996,9.122,0
834,35.429,-97.486,0.2,33.93,3,347,-2.972,-1.851,8.957,0
835,35.43,-97.486,0.1,34.38,3,346,-2.857,-1.777,8.876,0
836,35.43,-97.486,0.2,34.86,3,346,-3.064,-1.791,9.289,0
837,35.43,-97.486,0.4,35.35,3,346,-3.056,-1.869,9.103,0
838,35.431,-97.486,0.8,35.791,3,346,-3.106,-1.849,8.729,0
839,35.431,-97.486,1,36.29,3,347,-2.388,-1.824,8.994,0
840,35.431,-97.486,0.2,36.67,3,347,-2.016,-1.254,8.916,0
841,35.432,-97.486,0,36.191,3,346,-2.165,-1.238,10.147,0
843,35.432,-97.486,0,35.92,3,346,-2.054,-1.239,9.291,0
843,35.432,-97.486,0,35.92,3,346,-2.054,-1.239,9.291,0
844,35.432,-97.486,0.2,34.99,3,346,-2.168,-1.012,9.191,0
845,35.433,-97.486,0.1,34.52,3,346,-2.122,-0.963,9.283,0
846,35.433,-97.486,0.1,34.161,3,345,-2.096,-1.35,9.44,0
847,35.433,-97.486,0.1,33.73,3,345,-2.067,-1.251,9.36,0
848,35.434,-97.486,0.1,33.34,3,345,-2.189,-1.137,9.071,0
849,35.434,-97.486,0.2,33,3,345,-2.505,-1.113,9.309,0
850,35.434,-97.486,0.1,32.7,3,345,-2.371,-1.12,9.214,0
851,35.434,-97.486,0.3,32.48,3,345,-2.379,-1.35,9.732,0
852,35.435,-97.486,0.3,32.23,3,345,-2.352,-1.164,9.41,0
853,35.435,-97.486,0.2,31.95,3,345,-2.18,-1.251,9.531,0
854,35.435,-97.486,2.9,31.64,3,345,-2.295,-1.186,9.265,0
855,35.436,-97.486,0.3,30.86,3,345,-2.415,-1.18,9.549,0
856,35.436,-97.486,0,30.43,3,345,-2.343,-1.25,9.129,0
857,35.436,-97.486,0,30.1,3,345,-2.298,-1.143,8.666,0
858,35.437,-97.486,359.8,29.74,3,345,-2.393,-1.21,9.182,0
859,35.437,-97.486,359.7,29.36,3,345,-2.238,-1.347,9.191,1
860,35.437,-97.486,359.7,28.97,3,344,-2.085,-1.178,8.652,1
861,35.437,-97.486,359.8,28.6,3,344,-2.359,-1.113,9.217,1
862,35.438,-97.486,0,28.19,3,344,-2.074,-1.078,9.079,0
863,35.438,-97.486,0,27.79,3,344,-2.25,-1.111,8.856,0
864,35.438,-97.486,0.2,27.43,3,344,-2.373,-1.245,9.181,0
865,35.438,-97.486,0.3,27.07,3,344,-2.243,-1.298,9.213,0
866,35.439,-97.486,0.1,26.79,3,344,-2.318,-1.388,8.99,0
867,35.439,-97.486,359.9,26.77,3,344,-2.664,-1.767,9.102,0
868,35.439,-97.486,0.3,27.17,3,345,-2.709,-1.726,8.781,0
869,35.439,-97.486,0.2,27.3,3,345,-2.969,-2.007,8.936,1
870,35.44,-97.486,359.9,27.97,3,345,-2.757,-1.784,9.016,1
871,35.44,-97.486,359.8,28.34,3,345,-2.84,-1.678,8.767,1
872,35.44,-97.486,0,28.71,3,345,-2.678,-1.623,8.872,1
873,35.44,-97.486,0,29.03,3,345,-2.439,-1.367,9.271,1
874,35.441,-97.486,359.9,28.91,3,345,-2.333,-1.239,9.327,1
875,35.441,-97.486,359.9,28.68,3,346,-2.51,-1.442,8.981,1
876,35.441,-97.486,0.1,28.64,3,346,-2.671,-1.537,9.163,1
877,35.442,-97.486,0.2,28.72,3,346,-2.783,-1.626,9.09,1
878,35.442,-97.486,0.3,28.9,3,346,-2.68,-1.778,9.142,1
879,35.442,-97.486,0.3,29.15,3,346,-2.212,-1.647,9.39,0
880,35.442,-97.486,0.1,29.06,3,345,-2.205,-1.386,9.076,0
881,35.443,-97.486,0.2,28.75,3,345,-1.897,-1.343,9.133,0
882,35.443,-97.486,0.2,28.48,3,345,-1.95,-1.402,8.746,0
883,35.443,-97.486,0,28.29,3,345,-2.266,-1.123,9.332,0
884,35.443,-97.486,0.1,28.06,3,345,-2.045,-1.279,9.101,0
885,35.444,-97.486,359.9,27.79,3,345,-2.307,-1.354,9.294,0
886,35.444,-97.486,359.5,27.882,3,345,-2.715,-1.285,9.059,1
887,35.444,-97.486,359.3,28.113,3,344,-2.643,-1.231,9.043,1
888,35.444,-97.486,358.9,28.333,3,343,-2.452,-1.215,9.442,1
889,35.445,-97.486,358.3,28.332,3,342,-2.247,-1.15,9.459,1
890,35.445,-97.486,357.7,27.92,3,343,-2.349,-1.2,9.377,1
891,35.445,-97.486,356.6,28.81,3,341,-2.298,-1.425,8.75,1
892,35.445,-97.486,355.9,27.89,3,341,-2.604,-1.43,9.246,1
893,35.446,-97.486,355,27.82,3,340,-2.626,-1.622,8.759,1
894,35.446,-97.486,354,28.08,3,341,-2.633,-1.542,9.223,1
895,35.446,-97.486,353,28.35,3,341,-2.612,-1.598,9.3,0
896,35.446,-97.486,351.9,28.45,3,340,-2.611,-1.592,9.056,0
897,35.447,-97.486,351.2,28.64,3,341,-2.294,-1.557,9.086,0
898,35.447,-97.486,350.7,28.87,3,341,-2.506,-1.283,9.24,0
899,35.447,-97.486,349.1,28.78,3,340,-2.465,-1.123,9.047,0
900,35.447,-97.487,348.5,28.68,3,339,-2.292,-1.266,8.85,0
901,35.448,-97.487,347.7,28.63,3,340,-2.408,-1.311,9.024,0
902,35.448,-97.487,347.2,28.65,3,340,-2.208,-1.305,8.775,1
903,35.448,-97.487,346.5,28.46,3,341,-2.083,-1.2,9.303,1
905,35.448,-97.487,345.7,28.24,3,341,-2.148,-1.227,9.308,1
905,35.448,-97.487,345.7,28.24,3,341,-2.148,-1.227,9.308,1
906,35.449,-97.487,344.8,28.03,3,342,-2.085,-1.237,9.174,1
907,35.449,-97.487,343.8,27.87,3,343,-2.393,-1.511,9.068,1
908,35.449,-97.487,341.7,27.8,3,343,-2.787,-1.585,9.255,1
909,35.449,-97.487,340.6,27.75,3,343,-2.756,-1.671,9.183,1
910,35.45,-97.487,340,28.37,3,341,-2.897,-1.718,8.92,1
911,35.45,-97.487,339.2,28.794,3,341,-2.674,-1.609,8.877,1
912,35.45,-97.488,339.4,29.121,4,341,-2.599,-1.493,9.438,1
913,35.45,-97.488,339,29.53,3,340,-2.706,-1.352,9.507,1
914,35.451,-97.488,338.9,29.431,3,338,-2.492,-1.109,9.427,1
915,35.451,-97.488,339.1,29.022,3,338,-2.679,-1.207,9.371,1
916,35.451,-97.488,339.3,28.592,3,338,-2.511,-1.414,8.821,1
917,35.451,-97.488,339.5,28.402,3,337,-2.57,-1.619,9.036,1
918,35.452,-97.488,340,28.512,3,338,-2.637,-1.656,9.063,1
919,35.452,-97.488,340.2,28.642,3,338,-2.817,-1.541,8.517,1
920,35.452,-97.489,340.5,28.782,3,338,-3.006,-1.599,8.589,1
921,35.453,-97.489,340.8,28.973,3,338,-3.171,-1.633,9.047,1
922,35.453,-97.489,341.1,29.163,3,339,-2.803,-1.659,8.875,1
923,35.453,-97.489,341.4,29.214,3,340,-2.515,-1.552,9.143,1
924,35.453,-97.489,341.3,29.002,3,340,-2.9,-1.531,9.301,1
925,35.454,-97.489,341.2,28.961,3,340,-2.571,-1.681,8.672,0
926,35.454,-97.489,341.1,28.91,3,340,-2.061,-1.545,8.343,0
927,35.454,-97.489,340.9,28.87,3,340,-2.263,-1.418,8.163,0
928,35.454,-97.489,340.8,28.93,3,340,-2.753,-1.46,9.346,0
929,35.455,-97.489,340.9,29.06,4,340,-2.423,-1.599,9.181,0
930,35.455,-97.49,341.4,29.48,4,340,-2.539,-1.704,8.903,0
931,35.455,-97.49,341.1,29.871,5,340,-2.728,-1.825,8.812,0
932,35.455,-97.49,341.2,30.571,6,340,-2.767,-1.624,8.707,0
933,35.456,-97.49,340.6,30.43,6,339,-2.326,-1.496,8.917,0
934,35.456,-97.49,340.5,30.88,6,340,-2.325,-1.394,9.02,0
935,35.456,-97.49,340.6,30.88,6,340,-2.394,-1.553,8.936,0
936,35.456,-97.49,340.3,30.97,6,340,-2.493,-1.717,9.321,1
937,35.457,-97.49,340.5,31.81,6,339,-2.435,-1.786,9.305,1
938,35.457,-97.49,340.2,31.94,5,340,-2.708,-1.564,9.111,1
939,35.457,-97.491,340.2,32.42,5,339,-2.889,-1.308,9.231,1
940,35.457,-97.491,340.4,32.56,4,339,-2.97,-1.501,9.43,0
941,35.458,-97.491,340.6,32.74,3,339,-2.631,-0.823,8.685,0
942,35.458,-97.491,340.9,32.861,3,339,-2.993,-1.239,8.694,0
943,35.458,-97.491,340.9,32.991,3,339,-3.498,-2.154,9.991,0
944,35.459,-97.491,341,33.191,3,338,-3.121,-1.39,9.879,0
945,35.459,-97.491,341,33.181,3,338,-2.456,-0.775,8.796,0
946,35.459,-97.491,341.4,32.931,3,339,-3.687,-1.983,9.672,0
947,35.459,-97.492,341.3,32.581,3,340,-2.392,-0.44,8.101,0
948,35.46,-97.492,341.7,32.401,3,340,-2.381,-0.976,9.103,0
949,35.46,-97.492,341.9,32.181,3,340,-2.075,-1.101,8.376,0
950,35.46,-97.492,342.1,32.171,3,339,-2.68,-1.565,9.136,0
951,35.46,-97.492,341.3,31.941,3,339,-2.49,-1.261,9.104,0
952,35.461,-97.492,340.9,31.671,3,340,-2.387,-1.138,8.836,0
953,35.461,-97.492,340.9,31.58,3,340,-2.826,-1.267,8.956,0
954,35.461,-97.492,340.3,31.63,3,340,-1.711,-1.776,8.929,1
955,35.462,-97.492,338.3,31.51,3,340,-0.97,-2.044,8.871,1
956,35.462,-97.493,333.9,31.271,3,341,-0.855,-3.106,9.373,1
957,35.462,-97.493,328.5,31.3,3,341,-1.443,-2.555,9.059,1
958,35.462,-97.493,328.1,30.57,3,341,-1.109,-2.379,8.728,1
959,35.463,-97.493,323.3,30.48,4,341,-1.001,-2.749,9.201,1
960,35.463,-97.493,316.4,31.29,4,344,-1.222,-2.729,9.434,1
961,35.463,-97.494,310.6,31.1,3,343,-1.432,-2.906,9.547,0
962,35.463,-97.494,306.1,30.981,3,342,-1.516,-2.715,9.17,0
963,35.463,-97.494,301.6,30.95,3,340,-1.667,-2.412,9.185,0
964,35.463,-97.495,297.9,31.09,3,340,-2.195,-1.339,9.43,0
965,35.463,-97.495,296.1,30.98,3,339,-2.454,-1.375,9.69,0
966,35.464,-97.495,295.5,30.63,3,339,-2.469,-1.041,9.089,0
967,35.464,-97.496,295.6,30.31,3,339,-2.439,-1.185,9.457,0
968,35.464,-97.496,295.7,30,3,339,-2.717,-1.053,9.352,0
969,35.464,-97.496,296,29.7,3,339,-2.499,-1.126,9.123,0
970,35.464,-97.496,296.2,29.4,3,339,-2.278,-1.42,9.06,0
971,35.464,-97.497,296.4,29.03,3,339,-2.265,-1.762,8.675,0
973,35.464,-97.497,296.2,28.95,3,339,-2.545,-1.418,8.936,0
973,35.464,-97.497,296.2,28.95,3,339,-2.545,-1.418,8.936,0
974,35.464,-97.497,296.3,28.98,3,339,-3.016,-0.756,9.303,0
975,35.464,-97.498,297.4,28.63,4,339,-3.303,-0.486,9.558,0
976,35.465,-97.498,300.6,28.4,3,338,-2.687,-0.524,8.656,0
977,35.465,-97.498,303.4,28.081,3,339,-3.205,-0.644,9.243,0
978,35.465,-97.498,306,27.781,3,341,-3.019,-0.917,9.349,0
979,35.465,-97.499,308.3,27.51,3,341,-2.819,-1.331,9.432,0
980,35.465,-97.499,310.1,27.401,3,342,-3.031,-1.467,8.951,0
981,35.465,-97.499,311.2,27.59,3,341,-3.292,-1.174,8.641,0
982,35.466,-97.499,311.5,27.6,4,341,-3.665,-1.301,9.248,0
983,35.466,-97.499,314.9,28.34,3,341,-3.733,-1.057,9.267,0
984,35.466,-97.5,319.4,28.49,3,341,-2.916,-0.884,9.315,0
985,35.466,-97.5,321.5,28.16,3,342,-3.101,-0.788,9.395,0
986,35.467,-97.5,323.1,27.8,3,342,-2.528,-0.924,8.936,0
987,35.467,-97.5,324.1,27.43,3,341,-1.982,-1.369,7.223,0
988,35.467,-97.501,324.3,27.17,3,342,-2.176,-1.371,8.914,0
989,35.467,-97.501,324.4,26.732,3,342,-2.368,-1.373,9.527,0
990,35.467,-97.501,324.6,26.362,3,342,-2.388,-1.615,9.582,0
991,35.468,-97.501,324.6,26.185,3,343,-2.511,-1.805,9.135,0
992,35.468,-97.501,324.5,26.261,3,343,-2.143,-1.926,8.619,0
993,35.468,-97.501,324.4,26.297,3,344,-2.165,-1.864,8.374,0
994,35.468,-97.502,324.1,26.106,3,345,-2.081,-1.47,8.663,0
995,35.468,-97.502,323.9,25.736,3,346,-2.294,-1.735,8.737,0
996,35.468,-97.502,323.6,25.762,3,346,-2.338,-1.938,8.288,0
997,35.469,-97.502,323.4,25.713,3,347,-2.535,-1.76,8.702,0
998,35.469,-97.502,323.3,25.823,3,347,-2.447,-1.767,9.009,1
999,35.469,-97.502,322.9,25.913,3,347,-2.179,-1.953,8.816,1
1000,35.469,-97.502,322.9,25.913,3,347,-2.359,-1.921,8.871,1
1001,35.469,-97.503,321.8,26.202,3,348,-2.508,-1.88,8.895,1
1002,35.47,-97.503,321.7,26.392,3,348,-2.497,-1.837,8.827,1
1003,35.47,-97.503,321.5,26.601,3,348,-2.634,-1.757,8.548,1
1004,35.47,-97.503,321.3,26.811,3,348,-2.208,-1.414,8.626,1
1005,35.47,-97.504,321.3,26.84,3,348,-2.252,-1.715,9.105,1
1006,35.47,-97.504,320.8,26.8,3,348,-2.478,-1.553,8.923,1
1007,35.471,-97.504,320.8,26.86,3,349,-2.406,-1.635,9.106,1
1008,35.471,-97.504,320.6,26.82,3,348,-2.278,-1.588,8.708,1
1009,35.471,-97.504,320.3,26.8,3,348,-2.252,-1.416,9.142,1
1010,35.471,-97.505,320.1,26.55,3,348,-2.326,-1.075,9.008,1
1011,35.471,-97.505,320.1,26.24,3,348,-2.328,-1.221,9.085,1
1012,35.471,-97.505,320.2,25.93,3,347,-2.375,-1.358,9.136,1
1013,35.472,-97.505,320.5,25.86,3,347,-2.923,-1.774,9.078,1
1014,35.472,-97.505,320.6,26.22,3,347,-2.603,-1.742,8.647,1
1015,35.472,-97.505,320.5,26.53,3,347,-2.477,-1.508,9.388,0
1016,35.472,-97.506,320.5,26.42,3,346,-2.2,-1.406,9.385,0
1017,35.472,-97.506,320.5,26.241,3,346,-2.206,-1.307,8.946,0
1018,35.473,-97.506,320.4,26.101,3,346,-2.151,-1.337,8.724,0
1019,35.473,-97.506,320.4,26.246,3,345,-2.531,-1.514,8.99,0
1020,35.473,-97.506,320.5,26.153,3,344,-2.579,-1.607,8.907,0
1021,35.473,-97.507,320.4,26.474,3,344,-2.503,-1.644,8.747,0
1022,35.473,-97.507,320.4,26.845,3,343,-2.381,-1.524,9.087,1
1023,35.473,-97.507,320.4,27.155,3,342,-2.44,-1.529,9.051,1
1024,35.474,-97.507,320.8,27.356,3,341,-2.474,-1.651,9.223,1
1025,35.474,-97.507,321,27.645,3,341,-2.5,-1.258,8.726,1
1026,35.474,-97.508,321.2,27.974,3,340,-2.567,-1.045,9.335,1
1027,35.474,-97.508,321.9,27.962,3,339,-3.348,-0.688,9.87,0
1028,35.474,-97.508,323.9,27.76,3,339,-3.309,-0.825,9.262,0
1029,35.475,-97.508,324.5,27.66,3,339,-2.923,-0.768,9.112,0
1030,35.475,-97.508,326.2,27.58,4,339,-2.848,-0.603,9.29,0
1031,35.475,-97.508,330.1,27.09,3,339,-2.551,-0.863,8.906,0
1032,35.475,-97.508,332,26.76,3,340,-2.679,-0.872,9.084,0
1033,35.475,-97.509,333.7,26.3,3,341,-2.626,-0.86,8.815,0
1034,35.476,-97.509,335.1,25.99,3,341,-2.773,-0.987,9.131,0
1035,35.476,-97.509,336.8,25.86,3,342,-2.869,-1.188,9.133,1
1037,35.476,-97.509,338.7,26.02,3,347,-3.147,-1.145,9.162,1
1037,35.476,-97.509,338.7,26.02,3,347,-3.147,-1.145,9.162,1
1038,35.476,-97.509,340.4,26.311,3,345,-3.118,-1.118,8.986,1
1039,35.477,-97.509,341.3,26.23,3,343,-2.909,-1.164,8.986,1
1040,35.477,-97.509,341.9,26.52,4,343,-2.796,-0.841,9.236,1
1041,35.477,-97.509,345.1,26.59,4,342,-2.762,-1.136,9.448,1
1042,35.477,-97.509,347,26.67,3,343,-2.933,-1.185,9.018,1
1043,35.478,-97.509,349.2,26.82,3,343,-3.187,-1.122,9.28,1
1044,35.478,-97.509,350.8,26.92,3,343,-2.999,-0.989,9.014,0
1045,35.478,-97.509,353.1,27.03,3,343,-3.182,-1.158,9.32,0
1046,35.478,-97.509,353.4,27.68,3,343,-2.747,-1.088,9.133,0
1047,35.478,-97.509,356.4,27.25,3,348,-2.536,-1.527,8.961,0
1048,35.479,-97.51,356.8,26.591,3,345,-2.602,-1.457,8.897,0
1049,35.479,-97.51,356.9,26.431,3,345,-2.399,-1.556,9.286,0
