time,lat,lng,bearing,spd,acc,alt,accx,accy,accz,stable,
0,35.605,-97.53,93.6,0.49041,9,318,2.85,3.235,8.773,1
1,35.605,-97.53,93.6,0.49041,9,318,2.921,3.069,8.789,1
2,35.605,-97.53,93.3,0.54,9,318,2.842,3.194,8.786,1
3,35.605,-97.53,93.3,0.54,9,318,2.851,3.102,8.767,1
4,35.605,-97.53,93.3,0.5831,9,317,2.757,3.032,8.841,1
5,35.605,-97.53,93.3,0.5831,9,317,2.783,2.952,8.825,1
7,35.605,-97.53,96.9,0.5009,9,318,2.816,2.817,8.888,1
7,35.605,-97.53,96.9,0.5009,9,318,2.816,2.817,8.888,1
8,35.605,-97.53,97,0.71,9,319,2.748,2.9,8.878,1
9,35.605,-97.53,97,0.71,9,319,2.797,2.759,8.87,1
10,35.605,-97.53,97,0.42755,9,317,2.516,3.419,8.817,1
11,35.605,-97.53,97,0.42755,9,317,2.842,3.731,8.642,1
12,35.605,-97.53,97,0.42755,9,317,3.115,3.287,8.652,1
13,35.605,-97.53,338.6,1.1336,9,318,2.971,2.185,8.937,1
14,35.605,-97.53,338.6,0.74243,9,317,2.879,2.667,8.883,1
15,35.605,-97.53,338.6,0.74243,9,317,2.882,2.911,8.841,1
16,35.605,-97.53,338.6,0.74243,9,317,2.876,2.838,8.863,1
17,35.605,-97.53,338.6,0.74243,9,317,2.87,2.908,8.842,1
18,35.605,-97.53,338.6,0.74243,9,317,2.893,3.412,8.691,1
19,35.605,-97.53,338.6,0.30017,9,316,2.972,3.796,8.607,1
20,35.605,-97.53,338.6,1.2202,9,317,2.614,4.05,8.722,1
21,35.605,-97.53,6.2,2.3941,9,318,2.187,3.582,8.996,0
22,35.605,-97.53,2.8,3.1306,9,317,2.157,2.562,9.241,0
23,35.605,-97.53,354.6,2.9121,9,318,2.574,2.467,9.073,0
24,35.605,-97.53,328.3,2.4163,9,319,2.819,3.352,8.738,0
25,35.605,-97.53,317.7,2.4221,9,319,3.729,3.59,8.278,0
26,35.605,-97.53,326.9,2.9806,9,319,4.339,2.803,8.258,0
27,35.605,-97.53,331,2.6761,9,320,3.793,2.846,8.444,0
28,35.606,-97.53,347.6,2.472,9,320,2.964,3.086,8.736,1
29,35.606,-97.53,6.8,2.33,9,319,2.996,1.972,8.967,1
30,35.606,-97.53,25.6,1.7203,9,319,3.009,2.121,8.923,1
31,35.606,-97.53,25.6,0.90089,9,319,2.991,2.326,8.942,1
32,35.606,-97.53,25.6,0.90089,9,319,2.881,2.783,8.843,1
33,35.606,-97.53,25.6,0.90089,9,319,2.873,2.839,8.838,1
34,35.606,-97.53,0,0,9,320,2.833,3.037,8.774,1
35,35.606,-97.53,0,0,9,320,2.622,4.149,8.678,1
36,35.606,-97.53,0,0,9,320,2.716,3.742,8.702,1
37,35.606,-97.53,24.6,1.8701,9,320,2.832,3.212,8.755,1
38,35.606,-97.53,23.9,2.5303,9,320,3.057,2.534,8.815,1
39,35.606,-97.53,23.9,2.6905,9,320,3.226,1.914,8.83,1
40,35.606,-97.53,23.5,2.1004,9,319,3.275,1.818,8.87,1
41,35.606,-97.53,24.2,1.0707,9,320,3.189,2.257,8.781,1
42,35.606,-97.53,24.2,1.0707,9,320,3.111,2.713,8.769,1
43,35.606,-97.53,24.2,1.0707,9,320,3.102,2.781,8.755,1
44,35.606,-97.53,24.2,1.0707,9,320,3.01,3.222,8.697,1
46,35.606,-97.53,24.2,1.0707,9,320,3.067,3.363,8.679,1
46,35.606,-97.53,24.2,1.0707,9,320,3.067,3.363,8.679,1
47,35.606,-97.53,29.1,1.1902,9,321,3.138,3.393,8.612,1
48,35.606,-97.53,37.2,2.1302,9,321,3.881,4.467,7.987,1
49,35.606,-97.53,37.9,2.6605,9,322,5.166,4.489,7.5,0
50,35.606,-97.53,83.8,5.2619,9,322,4.724,4.925,7.927,0
51,35.606,-97.53,104.3,7.4208,9,322,3.641,5.25,8.063,0
52,35.606,-97.53,111.9,9.2901,3,322,2.684,4.966,8.832,0
53,35.606,-97.53,112.2,10.92,3,322,2.68,4.547,8.932,0
54,35.606,-97.53,111.8,12.21,3,322,2.393,5.049,8.388,0
55,35.606,-97.529,111.5,13.59,3,322,2.529,3.843,8.613,0
56,35.605,-97.529,112.2,14.34,3,322,2.705,3.534,8.772,0
57,35.605,-97.529,112.2,14.87,3,322,2.74,3.791,8.859,0
58,35.605,-97.529,112,15.46,4,322,2.518,3.936,8.215,0
59,35.605,-97.529,112.3,16.31,3,323,2.678,3.839,8.826,0
60,35.605,-97.529,112.1,17.07,3,324,2.696,4.112,9.265,0
61,35.605,-97.528,112,17.84,3,324,2.677,3.27,8.373,0
62,35.605,-97.528,111.7,18.39,4,324,2.712,3.673,8.663,0
63,35.605,-97.528,112.1,18.97,4,325,2.621,3.466,8.018,0
64,35.605,-97.528,112,19.55,4,325,2.72,3.694,8.721,0
65,35.605,-97.528,112,20.17,4,324,2.668,3.463,8.737,0
66,35.605,-97.527,111.8,20.72,4,324,2.732,3.11,8.479,0
67,35.605,-97.527,111.9,21.11,4,324,2.685,3.134,8.765,0
68,35.605,-97.527,111.6,21.27,4,324,2.746,2.991,8.485,0
69,35.605,-97.527,111.5,21.38,4,324,3.027,3.058,8.362,0
70,35.605,-97.527,111.6,21.44,4,324,2.971,3.42,8.832,0
71,35.604,-97.526,111.9,21.56,3,324,3.114,2.962,8.986,0
72,35.604,-97.526,112.3,21.73,3,323,3.075,3.137,9.797,0
73,35.604,-97.526,112.5,21.91,3,323,2.548,3,8.925,0
74,35.604,-97.526,112.5,21.961,3,323,2.642,3.177,8.96,0
75,35.604,-97.525,112,21.961,4,323,2.792,3.235,9.192,0
76,35.604,-97.525,112.1,21.891,4,324,2.671,2.559,8.184,0
77,35.604,-97.525,112.3,21.622,4,324,2.782,2.741,8.373,0
78,35.604,-97.525,112.3,21.351,4,321,2.776,3.262,8.645,0
79,35.604,-97.525,112.4,21.202,4,323,2.659,3.183,8.832,0
80,35.604,-97.524,112.2,21.141,4,324,2.672,3.484,8.925,0
81,35.604,-97.524,111.9,21.191,4,325,2.714,3.202,8.556,0
82,35.604,-97.524,111.7,21.231,4,326,2.793,3.349,8.717,0
83,35.604,-97.524,111.8,21.41,3,326,2.87,3.404,9.04,0
84,35.604,-97.523,112.1,21.58,4,327,2.692,2.483,8.382,0
86,35.603,-97.523,112,21.64,3,327,2.782,2.628,8.443,0
86,35.603,-97.523,112,21.64,3,327,2.782,2.628,8.443,0
87,35.603,-97.523,112.1,21.03,3,328,2.905,2.574,8.859,0
88,35.603,-97.523,112.1,20.761,3,329,2.799,3.07,9.224,0
89,35.603,-97.522,112,20.501,4,329,2.744,3.06,9.185,0
90,35.603,-97.522,111.6,20.151,3,330,3.137,3.65,9.69,0
91,35.603,-97.522,111.8,19.822,3,330,2.967,3.429,8.489,0
92,35.603,-97.522,112.6,19.92,3,331,2.816,3.407,8.809,0
93,35.603,-97.522,112.8,20.111,3,330,2.629,3.207,8.636,0
94,35.603,-97.521,112.6,20.43,3,329,2.707,3.219,7.885,0
95,35.603,-97.521,112.8,20.82,3,329,2.787,3.439,8.854,0
96,35.603,-97.521,112.9,21.22,3,329,2.746,3.131,8.703,0
97,35.603,-97.521,112.9,21.591,3,329,2.841,2.901,8.493,0
98,35.603,-97.52,113.1,21.69,3,329,2.998,3.151,9.186,0
99,35.602,-97.52,113,21.81,3,329,2.799,2.813,8.569,0
100,35.602,-97.52,112.8,21.83,3,328,2.809,3.079,8.874,0
101,35.602,-97.52,112.6,21.791,3,328,2.806,3.008,8.676,0
102,35.602,-97.52,112.8,21.801,3,328,2.656,3.108,8.193,0
103,35.602,-97.519,112.8,21.791,3,329,2.909,3.21,8.623,0
104,35.602,-97.519,112.8,21.781,3,330,2.758,3.194,8.663,0
105,35.602,-97.519,113.1,21.831,3,330,2.603,3.143,8.764,0
106,35.602,-97.519,112.9,21.851,3,331,2.811,3.031,8.791,0
107,35.602,-97.518,112.8,21.91,3,330,2.788,3.344,8.908,0
108,35.602,-97.518,112.9,21.931,3,331,2.728,3.133,8.608,0
109,35.602,-97.518,112.8,21.99,3,331,2.871,3.189,8.795,0
110,35.602,-97.518,112.9,21.961,3,331,2.695,3.125,8.186,0
111,35.602,-97.518,113,21.991,3,332,2.946,3.17,9.103,0
112,35.601,-97.517,113.2,22.032,3,332,2.678,3.351,8.823,0
113,35.601,-97.517,113.4,22.041,3,333,2.638,3.104,8.918,0
114,35.601,-97.517,113.2,22.062,3,333,2.744,3.076,8.676,0
115,35.601,-97.517,113.1,21.971,3,334,2.841,2.618,8.841,0
116,35.601,-97.516,113,21.451,3,334,2.82,2.541,8.742,0
117,35.601,-97.516,113,20.98,3,334,2.701,2.597,8.158,0
118,35.601,-97.516,112.8,20.5,3,334,2.849,2.854,8.991,0
119,35.601,-97.516,112.7,20.04,3,334,3.004,2.58,9.026,0
120,35.601,-97.516,112.7,19.64,3,334,2.858,2.506,8.614,1
121,35.601,-97.515,112.6,19.18,3,334,2.929,2.545,8.748,1
122,35.601,-97.515,112.7,18.78,3,334,3.284,1.528,9.065,1
123,35.601,-97.515,113,17.95,3,334,2.961,1.711,8.776,1
124,35.601,-97.515,113.1,16.39,3,334,2.912,1.573,8.735,1
125,35.601,-97.515,113.2,15.23,3,334,3.106,1.266,8.832,1
126,35.601,-97.515,113.4,13.92,4,335,3.294,1.087,9.066,1
127,35.6,-97.514,113.4,12.13,3,335,3.06,1.642,9.073,1
128,35.6,-97.514,113.2,10.01,3,335,3.06,1.87,9.23,1
129,35.6,-97.514,113.1,8.9,3,336,3.068,2.175,9.206,1
131,35.6,-97.514,112.9,8.04,3,336,3.109,1.717,9.288,0
131,35.6,-97.514,112.9,8.04,3,336,3.109,1.717,9.288,0
132,35.6,-97.514,113.1,5.6,3,336,3.119,1.766,8.997,0
133,35.6,-97.514,113.6,4.4,3,337,3.067,2.521,9.219,0
134,35.6,-97.514,114.2,3.86,3,336,3.015,2.541,9.004,0
135,35.6,-97.514,114.5,3.2901,3,338,2.978,2.722,8.895,0
136,35.6,-97.514,114.8,2.54,3,338,2.961,2.234,8.983,0
137,35.6,-97.514,114.7,1.6,3,337,2.898,2.46,8.927,0
138,35.6,-97.514,114.7,1.6,3,337,2.859,2.826,8.859,0
139,35.6,-97.514,115.1,0.72835,3,338,2.796,3.243,8.77,0
140,35.6,-97.514,115.1,0.72835,3,338,2.563,4.6,8.573,0
141,35.6,-97.514,117.3,2.34,3,338,3.54,5.608,7.951,0
142,35.6,-97.514,133.4,4.8507,3,337,5.758,5.52,7.073,0
143,35.6,-97.514,149.6,5.1106,4,337,4.232,5.739,7.767,0
144,35.6,-97.514,173.2,7.0131,5,336,2.424,5.844,8.36,0
145,35.6,-97.514,179.7,12.811,4,335,2.03,5.493,8.197,0
146,35.6,-97.514,179,15.433,4,334,2.257,5.349,8.547,0
147,35.6,-97.514,179.2,17.742,4,333,2.741,4.668,8.912,0
148,35.599,-97.514,180.6,19.181,4,333,2.579,3.59,8.874,0
149,35.599,-97.514,180.4,20.091,5,332,2.613,3.117,9.066,0
150,35.599,-97.514,179.3,20.211,4,331,2.379,2.989,9.384,0
151,35.599,-97.514,178,20.35,4,331,2.71,3.197,8.69,0
152,35.599,-97.514,177.3,20.65,4,331,2.919,3.672,9.006,0
153,35.599,-97.514,177.7,20.93,4,332,2.788,3.421,9.098,0
154,35.598,-97.514,178.2,21.1,4,331,2.997,2.794,9.031,0
155,35.598,-97.514,178.5,20.971,4,330,3.188,2.779,8.792,0
156,35.598,-97.514,179,20.78,4,331,3.036,3.143,8.657,0
157,35.598,-97.514,179.6,20.95,4,331,2.786,2.966,8.897,0
158,35.598,-97.514,179.8,21.03,4,331,2.877,2.799,8.915,0
159,35.597,-97.514,179.8,20.83,4,331,2.972,3.086,9.287,0
160,35.597,-97.514,179.8,20.81,4,330,2.875,2.809,8.736,0
161,35.597,-97.514,179.9,20.72,4,330,2.825,3.112,9.035,0
162,35.597,-97.514,179.9,20.76,4,330,2.825,2.871,8.903,0
163,35.597,-97.514,179.9,20.65,4,330,2.936,2.775,8.917,0
164,35.596,-97.514,180.1,20.42,4,329,3.062,2.652,9.135,0
165,35.596,-97.514,180.5,20.1,4,328,3.292,2.696,8.67,0
166,35.596,-97.514,180.5,19.93,5,328,3.018,1.765,8.862,0
167,35.596,-97.514,180.9,19.23,4,329,3.059,1.298,8.931,0
168,35.596,-97.514,179.7,19.08,6,328,2.887,1.386,9.033,0
169,35.596,-97.514,178.7,17.79,7,328,2.087,2.065,9.392,0
170,35.596,-97.514,178.3,14.57,5,327,2.193,2.043,9.149,0
171,35.595,-97.514,174.2,14.09,5,327,3.2,1.519,8.609,0
172,35.595,-97.514,172.1,12.94,4,326,3.89,2.166,8.635,0
173,35.595,-97.514,174.1,11.981,4,327,3.909,1.614,8.767,0
174,35.595,-97.514,177.5,10.96,4,327,3.36,2.181,8.671,0
175,35.595,-97.514,179.5,9.59,4,327,2.935,3.676,8.754,0
176,35.595,-97.514,180,9.7903,4,326,2.281,3.133,9.28,0
177,35.595,-97.514,180.1,10.34,4,326,-0.666,2.138,10.22,0
179,35.595,-97.514,170.4,10.5,3,327,-0.555,2.297,10.087,0
179,35.595,-97.514,170.4,10.5,3,327,-0.555,2.297,10.087,0
180,35.595,-97.514,125.4,10.05,3,327,-1.01,3.027,10.211,0
181,35.595,-97.513,114.6,10.472,4,326,0.057,4.313,9.568,0
182,35.595,-97.513,110.3,10.001,5,326,1.284,4.446,9.291,0
183,35.595,-97.513,101.5,11.55,6,327,2.15,4.062,8.73,0
184,35.595,-97.513,86.3,15.79,5,327,2.991,4.054,8.136,0
185,35.595,-97.513,85.5,16.27,5,327,3.32,3.749,7.651,0
186,35.595,-97.513,84.9,16.42,7,327,3.071,4.211,8.659,0
187,35.595,-97.512,90.2,18.481,5,326,2.856,4.217,8.413,0
188,35.595,-97.512,91.4,19.54,6,326,3.271,3.037,8.496,0
189,35.595,-97.512,92.4,19.521,6,327,3.245,2.728,8.73,0
190,35.595,-97.512,93.4,19.271,7,326,2.885,2.51,8.958,0
191,35.595,-97.511,95.2,19.59,7,326,2.663,2.529,8.981,0
192,35.595,-97.511,93.5,18.86,6,326,2.666,2.384,7.98,0
193,35.595,-97.511,93.3,18.68,5,327,2.582,2.605,8.468,0
194,35.595,-97.511,92.4,18.04,4,326,3.02,0.379,9.436,1
195,35.595,-97.511,92.7,15.89,4,327,3.112,0.616,9.117,1
196,35.595,-97.511,92.3,13.24,4,326,3.204,0.566,9.118,1
197,35.595,-97.51,91.5,10.59,4,327,3.008,1.144,9.101,1
198,35.595,-97.51,91.1,8.4701,4,326,3.25,0.27,9.226,1
199,35.595,-97.51,91.2,5.8701,4,327,3.309,-0.15,9.301,1
200,35.595,-97.51,93.2,2.7407,4,327,3.058,1.116,9.089,1
201,35.595,-97.51,93.2,2.7407,4,327,2.585,3.679,8.777,1
202,35.595,-97.51,92.6,0.93,4,327,2.724,5.697,8.214,0
203,35.595,-97.51,96.4,3.4507,4,327,4.169,5.317,7.711,0
204,35.595,-97.51,116.8,6.2001,4,327,5.975,4.592,7.288,0
205,35.594,-97.51,141.2,7.4502,4,326,5.834,5.092,7.274,0
206,35.594,-97.51,153.2,7.6608,4,326,3.723,4.996,7.897,0
207,35.594,-97.51,177,11.82,4,326,2.388,4.616,8.489,0
208,35.594,-97.51,177.8,13.581,4,325,2.137,4.281,8.591,0
209,35.594,-97.51,175.8,15.122,4,324,2.26,4.115,8.687,0
210,35.594,-97.51,172.9,16.411,4,324,2.541,4.049,8.684,0
211,35.594,-97.51,171.6,17.732,3,323,2.727,4.255,8.639,0
212,35.594,-97.51,171.1,18.77,3,323,2.671,3.571,8.519,0
213,35.593,-97.51,170.9,19.75,4,323,2.702,3.505,8.948,0
214,35.593,-97.51,170.2,20.4,4,324,2.886,3.556,8.907,0
215,35.593,-97.51,170.1,20.83,4,324,3.9,3.843,8.361,0
216,35.593,-97.51,172.5,21.081,3,324,4.573,3.911,8.186,0
217,35.593,-97.51,178.9,21.38,4,324,4.672,3.69,8.078,0
218,35.592,-97.51,184.6,21.95,4,324,4.286,3.559,8.12,0
219,35.592,-97.51,190.1,22.181,4,323,3.725,3.492,8.388,0
220,35.592,-97.51,194.4,22.33,4,323,3.362,3.427,8.729,0
221,35.592,-97.51,197,22.611,3,324,3.795,3.482,8.394,0
222,35.592,-97.51,198.8,23.181,4,325,4.164,3.79,8.195,0
223,35.591,-97.51,203.2,23.191,4,325,3.554,3.716,8.323,0
224,35.591,-97.51,207.3,23.501,4,326,2.985,4.246,8.679,0
225,35.591,-97.51,208.4,24.27,4,326,2.701,4.03,8.631,0
226,35.591,-97.511,209.7,25.41,4,325,2.523,4.03,8.694,0
227,35.591,-97.511,210,26.36,5,326,2.198,3.978,8.724,0
229,35.59,-97.511,209.9,27.27,4,326,2.233,4.1,9.015,0
229,35.59,-97.511,209.9,27.27,4,326,2.233,4.1,9.015,0
230,35.59,-97.511,209.1,29.34,5,326,2.269,4.063,8.637,0
231,35.59,-97.511,208.9,30.32,5,327,2.689,3.983,8.674,0
232,35.589,-97.512,209.2,31.42,4,327,2.868,4.205,8.621,0
233,35.589,-97.512,209.8,32.49,4,327,2.659,4.014,8.71,0
234,35.589,-97.512,209.8,33.01,5,328,2.716,2.942,8.751,0
235,35.589,-97.512,209.5,33.14,10,328,2.772,2.757,8.919,0
236,35.588,-97.512,209.1,32.94,10,328,2.709,2.753,8.872,0
237,35.588,-97.512,208.8,32.8,10,328,2.993,2.855,8.72,0
238,35.588,-97.513,208.5,32.68,10,328,3.377,3.037,8.543,0
239,35.588,-97.513,208.8,32.81,10,328,2.78,2.911,8.675,0
240,35.587,-97.513,208,33.032,10,328,2.44,2.952,8.905,1
241,35.587,-97.513,206.5,32.951,9,328,2.365,2.925,8.968,1
242,35.587,-97.513,204.1,33.271,9,326,2.095,2.983,8.862,1
243,35.587,-97.513,201.9,33.482,9,325,2.305,2.981,9.319,0
244,35.586,-97.514,200,33.662,9,325,2.342,3.091,9.179,0
245,35.586,-97.514,198.3,33.832,9,324,2.705,2.767,9.293,0
246,35.586,-97.514,196.2,33.851,9,325,2.17,2.57,9.294,0
247,35.585,-97.514,194.3,33.47,9,325,2.469,2.691,9.228,0
248,35.585,-97.514,192.5,33.17,9,328,2.313,2.584,9.477,0
249,35.585,-97.514,190.7,32.84,9,327,2.053,2.65,9.248,0
250,35.585,-97.514,188,32.5,9,327,2.41,2.856,9.302,0
251,35.584,-97.514,185.9,32.33,9,328,2.544,2.919,9.367,0
252,35.584,-97.514,184.1,32.19,9,328,2.491,2.815,9.245,0
253,35.584,-97.514,182.3,32.121,9,328,2.565,2.999,8.901,0
254,35.583,-97.514,180.8,32.121,9,328,2.758,3.026,8.85,0
255,35.583,-97.514,179.8,32.021,9,328,2.956,3.226,8.895,0
256,35.583,-97.514,179.6,31.961,9,328,3.038,3.168,8.901,0
257,35.582,-97.514,179.6,31.952,9,329,2.957,3.22,8.714,0
258,35.582,-97.514,179.8,31.833,9,330,2.921,3.252,8.765,0
259,35.582,-97.514,179.7,31.851,9,331,2.726,3.304,8.708,1
260,35.582,-97.514,180.1,31.813,9,331,2.537,3.16,8.627,1
261,35.581,-97.514,179.9,31.902,9,332,2.67,3.279,8.737,1
262,35.581,-97.514,179.8,31.991,9,332,2.653,3.33,8.513,1
263,35.581,-97.514,179.8,32.15,9,333,2.723,3.225,8.727,1
264,35.58,-97.514,179.8,32.36,9,333,2.782,3.26,8.921,1
265,35.58,-97.514,180,32.61,9,333,2.729,3.432,9.303,0
266,35.58,-97.514,180,32.91,9,333,2.788,3.394,8.911,0
267,35.58,-97.514,179.9,33.22,9,333,2.756,2.834,8.908,0
268,35.579,-97.514,179.8,33.411,9,332,2.768,2.624,8.783,0
269,35.579,-97.514,179.7,33.142,9,331,2.827,2.599,8.653,0
270,35.579,-97.514,179.7,32.951,9,330,2.718,2.735,8.768,0
271,35.578,-97.514,179.6,32.951,9,329,2.776,2.948,9.045,0
272,35.578,-97.514,179.6,33.091,9,329,2.725,2.867,9.01,0
273,35.578,-97.514,179.8,33.084,9,327,2.979,3.035,9.223,0
274,35.578,-97.514,179.7,33.312,9,327,3.021,3.053,8.745,0
275,35.577,-97.514,179.9,33.482,9,324,2.748,2.85,8.898,0
276,35.577,-97.514,180,33.742,9,323,2.796,2.466,9.135,0
277,35.577,-97.514,179.8,33.641,9,322,2.857,2.588,9.008,0
279,35.576,-97.514,179.7,33.301,9,321,2.946,2.904,9.166,0
279,35.576,-97.514,179.7,33.301,9,321,2.946,2.904,9.166,0
280,35.576,-97.514,179.9,33.19,9,320,2.911,2.924,9.356,0
281,35.575,-97.514,179.9,33.07,9,321,2.899,3.042,8.952,0
282,35.575,-97.514,179.5,33.332,9,321,2.885,3.138,9.156,0
283,35.575,-97.514,179.6,32.911,9,322,3.074,3.257,9.058,0
284,35.575,-97.514,179.6,32.872,9,322,2.914,3.238,9.006,0
285,35.574,-97.514,179.7,32.843,9,322,2.844,3.228,8.959,0
286,35.574,-97.514,179.8,32.721,9,322,2.817,3.198,8.901,0
287,35.574,-97.514,179.8,32.782,9,323,2.777,3.101,8.843,0
288,35.573,-97.514,179.8,32.802,9,324,2.694,3.088,8.797,0
289,35.573,-97.514,179.9,32.732,9,325,2.653,3.15,8.585,0
290,35.573,-97.514,179.7,32.801,9,324,2.748,3.297,8.846,0
291,35.572,-97.514,179.7,32.771,9,325,2.769,3.23,8.777,0
292,35.572,-97.514,179.8,32.81,9,325,2.719,3.105,8.847,0
293,35.572,-97.514,179.9,32.91,9,326,2.739,3.162,8.777,0
294,35.572,-97.514,179.8,32.97,9,325,2.66,3.112,8.649,1
295,35.571,-97.514,179.6,33.1,9,325,2.81,3.195,8.726,1
296,35.571,-97.514,179.8,33.23,9,326,2.889,3.25,9.125,0
297,35.571,-97.514,179.9,33.27,9,326,2.731,3.222,8.851,0
298,35.57,-97.514,179.8,33.33,9,326,2.701,3.146,8.797,0
299,35.57,-97.514,179.9,33.43,9,327,2.694,3.204,8.653,0
300,35.57,-97.514,179.8,33.59,9,326,2.823,3.223,8.729,0
301,35.569,-97.514,179.9,33.71,9,326,2.732,3.002,8.677,0
302,35.569,-97.514,179.9,33.65,9,326,2.772,2.741,8.774,0
303,35.569,-97.514,179.9,33.52,9,325,2.68,2.867,8.761,0
304,35.569,-97.514,179.8,33.471,9,325,2.825,2.932,8.867,1
305,35.568,-97.514,179.8,33.611,9,324,2.725,2.857,8.752,1
306,35.568,-97.514,179.8,33.782,9,323,2.681,2.838,8.642,1
307,35.568,-97.514,179.7,33.991,9,323,2.825,2.914,8.63,1
308,35.567,-97.514,179.7,34.201,9,323,2.775,2.956,8.663,1
309,35.567,-97.514,179.9,34.281,9,321,2.799,2.936,8.918,1
310,35.567,-97.514,180,34.411,9,322,2.685,2.766,9.042,1
311,35.566,-97.514,179.8,34.431,9,321,2.858,2.705,8.977,1
312,35.566,-97.514,179.8,34.37,9,321,2.888,2.73,9.133,0
313,35.566,-97.514,179.6,34.25,9,320,2.955,2.792,9.148,0
314,35.565,-97.514,178.9,34.58,9,320,2.893,2.831,9.091,0
315,35.565,-97.514,180.6,33.58,10,320,2.908,2.834,8.955,0
316,35.565,-97.514,179.7,33.63,10,320,2.734,2.892,9.019,0
317,35.565,-97.514,179.7,33.431,9,320,2.846,3.004,8.965,0
318,35.564,-97.514,179.6,33.221,9,321,2.855,3.035,8.662,0
319,35.564,-97.514,179.8,33.08,9,321,2.753,3.111,8.767,0
320,35.564,-97.514,179.8,33.06,9,322,2.728,3.042,8.753,0
321,35.563,-97.514,179.8,33.04,9,322,2.67,3.078,8.733,1
322,35.563,-97.514,179.8,33.09,9,322,2.728,3.054,8.72,1
323,35.563,-97.514,179.8,33.21,9,322,2.683,3.076,8.715,1
324,35.563,-97.514,179.7,33.351,9,321,2.862,3.101,8.836,1
325,35.562,-97.514,179.7,33.481,9,320,2.819,3.159,9.03,1
326,35.562,-97.514,179.8,33.571,9,319,2.795,3.004,9.065,0
327,35.562,-97.514,179.7,33.68,9,319,2.797,3.104,8.97,0
328,35.561,-97.514,179.7,33.74,9,317,2.771,2.978,8.825,0
329,35.561,-97.514,179.8,33.78,9,316,2.873,2.901,8.962,0
330,35.561,-97.514,179.8,33.79,9,316,2.829,3.024,8.845,0
331,35.56,-97.514,179.8,33.81,9,316,2.965,2.905,8.879,0
333,35.56,-97.514,179.8,33.77,9,316,2.785,2.945,8.961,0
333,35.56,-97.514,179.8,33.77,9,316,2.785,2.945,8.961,0
334,35.559,-97.514,179.8,33.501,9,317,3.027,2.986,9.137,0
335,35.559,-97.514,179.7,33.211,9,316,2.778,3.067,8.963,0
336,35.559,-97.514,179.8,33.261,9,317,2.834,2.986,8.752,0
337,35.559,-97.514,179.8,33.181,9,316,2.754,2.97,8.77,0
338,35.558,-97.514,179.7,33.111,9,316,2.735,3.16,8.887,0
339,35.558,-97.514,179.6,33.101,9,316,2.783,3.085,8.822,0
340,35.558,-97.514,179.7,33.031,9,317,2.884,3.242,9.016,0
341,35.557,-97.514,179.8,33.001,9,318,2.795,3.153,8.855,0
342,35.557,-97.514,179.9,33.091,9,318,2.841,3.227,8.665,0
343,35.557,-97.514,180.2,33.161,9,319,3.021,3.22,8.944,0
344,35.556,-97.514,180.6,33.251,9,319,2.841,3.279,8.832,0
345,35.556,-97.514,180.8,33.221,9,319,2.66,3.125,8.738,0
346,35.556,-97.514,180.6,33.22,9,319,2.716,3.075,8.916,0
347,35.556,-97.514,180.4,33.341,9,320,2.639,3.099,8.688,0
348,35.555,-97.514,180.4,33.36,9,320,2.668,3.107,8.813,0
349,35.555,-97.514,180.4,33.24,9,321,2.688,3.196,8.714,0
350,35.555,-97.514,180.3,33.35,9,321,2.86,3.156,8.797,0
351,35.554,-97.514,180.3,33.42,9,321,2.639,3.066,9.006,1
352,35.554,-97.514,180.3,33.51,9,322,2.758,3.167,8.997,1
353,35.554,-97.514,180.3,33.53,9,322,2.701,3.095,8.812,1
354,35.553,-97.514,180.4,33.58,9,322,2.646,3.126,8.773,1
355,35.553,-97.514,180.3,33.68,9,322,2.61,3.041,8.587,1
356,35.553,-97.514,180.4,33.75,9,322,2.678,3.147,9,1
357,35.553,-97.514,180.3,33.86,9,323,2.531,3.113,9.007,1
358,35.552,-97.514,179.9,33.92,9,323,2.637,3.062,9.098,1
359,35.552,-97.514,179.8,33.99,9,323,2.848,2.753,8.491,1
360,35.552,-97.514,179.9,34.17,9,323,2.81,2.879,8.503,0
361,35.551,-97.514,179.9,34.121,9,323,2.78,2.899,8.758,0
362,35.551,-97.514,180,34.251,9,323,2.787,2.981,9.652,0
363,35.551,-97.514,180.2,34.302,9,323,2.716,2.63,8.297,0
364,35.55,-97.514,180.3,34.441,9,323,2.828,2.587,8.739,0
365,35.55,-97.514,180.3,34.56,9,322,3.129,2.642,8.88,0
366,35.55,-97.514,180.4,34.411,9,322,2.816,2.471,8.827,0
367,35.549,-97.514,180.5,34.221,9,321,2.801,2.542,9.019,0
368,35.549,-97.514,180.5,34.152,9,320,2.961,2.541,8.995,0
369,35.549,-97.514,180.6,34.012,9,320,2.914,2.59,8.867,0
370,35.549,-97.514,180.6,33.862,9,319,2.827,2.624,9.168,0
371,35.548,-97.514,180.7,33.601,9,319,2.877,2.648,9.195,0
372,35.548,-97.514,180.6,33.331,10,317,2.886,2.712,8.762,0
373,35.548,-97.514,180.6,33.041,10,316,2.792,2.957,8.859,0
374,35.547,-97.514,180.7,33.061,9,315,2.605,2.945,8.834,0
375,35.547,-97.514,180.7,33.191,9,314,2.654,2.942,8.781,0
376,35.547,-97.514,180.4,33.341,9,314,2.773,2.932,8.891,0
377,35.546,-97.514,180.4,33.391,9,312,2.804,3.024,8.911,0
378,35.546,-97.514,180.4,33.49,9,312,2.899,2.899,8.87,0
379,35.546,-97.514,180.5,33.501,9,310,2.829,2.804,8.94,1
380,35.546,-97.514,180.5,33.351,9,309,2.962,2.231,8.906,1
381,35.545,-97.514,180.5,32.971,9,309,3.047,2.387,8.861,1
382,35.545,-97.514,180.5,32.46,9,308,2.871,2.566,8.933,1
383,35.545,-97.514,180.8,31.82,9,309,2.846,2.601,9.034,1
384,35.544,-97.514,180.7,31.591,9,309,2.84,2.524,8.926,1
385,35.544,-97.514,180.7,31.26,9,308,2.858,2.654,9.055,0
386,35.544,-97.514,180.6,30.93,9,308,2.831,3.061,9.177,0
387,35.544,-97.514,180.7,30.77,9,308,2.618,3.079,8.996,0
388,35.543,-97.514,180.5,30.85,9,308,2.837,3.075,9.089,0
389,35.543,-97.514,180.1,30.72,9,308,2.885,3.098,8.972,0
391,35.543,-97.514,180.3,30.772,9,308,2.842,3.168,8.835,0
391,35.543,-97.514,180.3,30.772,9,308,2.842,3.168,8.835,0
392,35.542,-97.514,180.8,30.542,9,310,2.778,3.155,8.777,0
393,35.542,-97.514,180.9,30.472,9,311,2.641,3.204,8.724,0
394,35.542,-97.514,180.8,30.561,9,311,2.607,3.069,8.8,0
395,35.541,-97.514,180.8,30.46,9,311,2.47,3.075,8.955,0
396,35.541,-97.514,180.7,30.5,9,311,2.651,3.085,8.669,0
397,35.541,-97.514,180.5,30.59,9,311,2.702,2.892,8.57,0
398,35.541,-97.514,180.7,30.6,9,311,2.714,2.763,8.635,0
399,35.54,-97.514,181.5,30.16,9,312,2.583,2.607,8.462,0
400,35.54,-97.514,180.7,30.19,9,312,2.812,2.699,8.893,1
401,35.54,-97.514,180.7,29.83,9,310,2.679,2.637,8.834,1
402,35.539,-97.514,180.5,29.56,9,311,2.623,2.672,8.82,1
403,35.539,-97.514,180.4,29.271,9,310,2.104,2.484,9.133,1
404,35.539,-97.514,179.2,29.101,9,310,1.645,2.393,9.343,1
405,35.539,-97.514,176.8,28.792,9,311,1.74,2.262,8.979,1
406,35.538,-97.514,174.7,28.511,9,311,2.631,1.451,9.221,1
407,35.538,-97.514,173.7,27.153,9,311,2.85,2.203,8.967,1
408,35.538,-97.514,173.5,26.271,9,310,3.485,2.816,8.723,1
409,35.538,-97.514,174.6,26.183,9,310,3.775,2.789,8.398,1
410,35.537,-97.514,176.3,26.133,9,309,3.729,2.801,8.472,1
411,35.537,-97.514,177.6,26.185,9,308,3.408,2.652,8.694,1
412,35.537,-97.514,179,26.761,9,308,3.54,2.751,8.614,0
413,35.537,-97.514,179.4,26.261,10,309,3.701,2.745,8.684,0
414,35.537,-97.514,179.8,26.441,10,309,3.949,2.843,8.465,0
415,35.536,-97.514,181.6,26.1,9,308,3.5,3.159,8.586,0
416,35.536,-97.514,182.4,26.15,9,308,3.372,2.982,8.662,0
417,35.536,-97.514,182.7,26.22,9,308,3.101,2.852,8.877,0
418,35.536,-97.514,182.9,26.02,9,308,3.074,2.752,8.774,0
419,35.535,-97.514,182.8,25.922,9,308,2.723,2.541,8.983,0
420,35.535,-97.514,182,25.652,9,308,2.393,2.477,9.285,0
421,35.535,-97.514,180,25.381,9,307,2.118,2.466,9.151,0
422,35.535,-97.514,177.7,25.092,9,308,1.922,2.526,9.22,0
423,35.534,-97.514,175.3,24.96,9,308,2.389,2.815,9.262,0
424,35.534,-97.514,173,24.841,9,307,2.934,2.759,8.807,0
425,35.534,-97.514,171.5,24.711,9,307,3.163,2.842,8.496,1
426,35.534,-97.514,171,24.55,9,307,3.053,3.033,8.739,1
427,35.534,-97.514,170.5,24.58,9,307,3.013,2.653,8.838,1
428,35.533,-97.514,169.9,24.44,9,308,3.093,2.641,8.961,1
429,35.533,-97.514,169.9,24.12,9,308,3.162,2.087,8.631,1
430,35.533,-97.514,170.3,23.4,9,309,3.631,2.194,8.845,0
431,35.533,-97.514,171.3,22.37,9,309,3.443,2.597,8.603,0
432,35.533,-97.514,172.9,21.75,9,310,3.326,2.786,8.633,0
433,35.532,-97.514,174.7,21.48,9,310,3.201,2.991,8.662,0
434,35.532,-97.514,176,21.35,9,310,3.404,2.957,8.661,0
435,35.532,-97.514,178,21.181,9,310,4.147,3.075,8.358,0
436,35.532,-97.514,179.7,21.48,9,310,3.974,3.148,8.506,0
437,35.532,-97.514,186.3,21.151,9,309,3.723,2.82,8.509,1
438,35.531,-97.514,190.1,21.04,9,310,3.177,2.594,9.078,1
439,35.531,-97.514,193,20.71,9,310,2.967,1.086,9.442,0
440,35.531,-97.514,193.2,19.58,9,310,2.151,2.741,9.442,0
441,35.531,-97.514,192,18.22,9,312,2.286,3.321,9.091,0
442,35.531,-97.514,190.1,18.17,9,312,2.271,4.539,8.785,0
443,35.531,-97.514,190.2,18.53,9,313,2.462,4.815,8.621,0
444,35.53,-97.514,189.2,19.48,9,313,2.42,4.923,8.593,0
445,35.53,-97.514,189.1,21.06,10,314,2.303,4.795,8.642,0
447,35.53,-97.514,188.7,23.991,9,314,2.572,3.563,8.594,0
447,35.53,-97.514,188.7,23.991,9,314,2.572,3.563,8.594,0
448,35.529,-97.514,189.1,25.3,10,313,2.765,3.175,8.785,0
449,35.529,-97.514,188.6,25.661,10,311,2.806,2.999,8.681,0
450,35.529,-97.514,188.8,25.601,11,311,2.88,2.928,8.908,0
451,35.529,-97.514,188.1,26.07,10,311,2.865,2.865,8.519,0
452,35.529,-97.514,188.3,25.68,11,310,2.85,2.943,8.629,0
453,35.528,-97.514,188.4,26.09,11,310,2.86,2.884,8.776,0
454,35.528,-97.514,188.1,26.5,11,309,2.962,2.912,8.872,1
455,35.528,-97.514,188.8,26.31,10,309,3.074,3.015,9.201,0
456,35.528,-97.514,189.9,25.38,11,309,2.93,2.736,9.29,0
457,35.527,-97.514,189.3,25.79,11,309,2.994,2.965,9.112,0
458,35.527,-97.515,189.3,26.22,11,309,2.99,3.314,8.929,0
459,35.527,-97.515,189.3,26.07,11,309,3.267,3.461,8.577,0
460,35.527,-97.515,190.5,26.511,10,309,3.441,3.429,8.512,0
461,35.526,-97.515,192.6,26.761,10,310,3.556,3.519,8.431,0
462,35.526,-97.515,194.8,26.9,9,310,3.613,3.477,8.739,0
463,35.526,-97.515,197.3,27.05,9,311,3.718,3.573,8.085,0
464,35.526,-97.515,200.4,27.441,9,313,3.646,3.418,7.428,0
465,35.526,-97.515,204.1,27.621,9,314,4.275,3.442,7.679,0
466,35.525,-97.515,206.9,27.94,9,313,3.722,3.286,7.716,0
467,35.525,-97.515,208.7,28.21,9,313,3.492,2.882,8.869,0
468,35.525,-97.516,209.6,28.02,9,312,3.42,2.856,8.68,0
469,35.525,-97.516,210.6,27.74,10,312,3.236,2.783,8.696,0
470,35.524,-97.516,210.7,27.53,10,313,2.319,2.757,9.776,0
471,35.524,-97.516,209.8,27.061,10,312,2.245,2.389,9.303,0
472,35.524,-97.516,207.1,26.93,9,312,2.123,2.863,9.255,0
473,35.524,-97.516,204.5,27.02,9,311,2.638,3.075,8.609,0
474,35.524,-97.516,203.7,27.202,9,311,2.836,3.174,8.863,0
475,35.523,-97.516,203.5,27.471,9,311,2.8,2.902,8.784,0
476,35.523,-97.517,203,27.492,9,310,2.848,3.144,8.748,0
477,35.523,-97.517,202.3,27.702,9,310,3.244,3.264,8.514,0
478,35.523,-97.517,202,28.081,9,310,3.371,3.486,9.036,0
479,35.522,-97.517,202.1,28.06,10,310,3.391,3.606,8.877,0
480,35.522,-97.517,202.9,28.11,10,310,3.358,3.432,8.811,0
481,35.522,-97.517,202.2,29.461,10,309,2.481,3.573,9.248,0
482,35.522,-97.517,201.8,30.101,10,308,1.387,3.271,9.325,0
483,35.521,-97.517,200.2,30.74,10,308,1.723,3.254,9.415,0
484,35.521,-97.517,194.6,30.66,10,307,1.906,3.272,8.724,0
485,35.521,-97.518,192.4,30.29,10,309,2.299,2.859,8.88,0
486,35.521,-97.518,188.9,30.99,10,306,2.191,2.981,8.962,0
487,35.52,-97.518,187.2,30.69,10,306,2.266,3.11,9.236,0
488,35.52,-97.518,184.2,30.901,10,306,2.126,2.902,9.27,0
489,35.52,-97.518,181.7,30.951,9,307,2.375,3.03,9.285,0
490,35.519,-97.518,179.3,30.951,9,307,2.275,3.061,9.159,0
491,35.519,-97.518,177.3,30.961,9,308,2.054,3.007,9.28,0
492,35.519,-97.518,174.7,30.981,9,309,2.392,3.252,8.95,0
493,35.519,-97.518,172.8,30.98,9,310,2.487,3.217,9.363,0
494,35.518,-97.518,170.6,31.07,9,310,2.394,3.117,9.081,0
495,35.518,-97.517,168.2,31.01,9,310,2.698,3.165,8.804,0
496,35.518,-97.517,166.2,30.961,9,311,2.9,3.33,8.436,0
497,35.518,-97.517,165.4,30.87,9,311,2.758,3.313,8.739,0
498,35.517,-97.517,164.5,30.95,9,311,2.973,3.258,8.641,0
499,35.517,-97.517,164.2,30.97,9,311,2.983,3.246,8.641,0
500,35.517,-97.517,164.5,31,9,312,2.939,3.128,8.618,0
501,35.516,-97.517,164.7,31.04,9,312,2.968,3.179,8.678,0
503,35.516,-97.517,164.9,31.05,9,312,2.771,3.12,8.926,0
503,35.516,-97.517,164.9,31.05,9,312,2.771,3.12,8.926,0
504,35.516,-97.517,164.7,31.11,9,313,2.782,3.119,8.836,1
505,35.515,-97.517,164.6,31.15,9,313,2.829,3.004,8.768,0
506,35.515,-97.516,164.7,31.15,9,313,2.889,3.23,8.723,0
507,35.515,-97.516,164.7,31.251,9,314,2.714,3.131,8.537,0
508,35.515,-97.516,164.8,31.13,9,314,2.614,3.085,8.6,0
509,35.514,-97.516,164.6,31.16,9,313,2.74,3.018,8.884,0
510,35.514,-97.516,164.6,31.12,9,313,2.812,3.043,8.75,0
511,35.514,-97.516,164.8,31.13,9,313,2.863,3.131,8.766,0
512,35.514,-97.516,164.9,31.15,9,313,2.73,3.074,8.772,1
513,35.513,-97.516,164.9,31.14,9,313,2.722,3.063,8.784,1
514,35.513,-97.516,165,31.16,9,313,2.82,3.144,8.803,1
515,35.513,-97.516,165.2,31.13,9,313,2.759,3.096,8.762,1
516,35.512,-97.516,165.3,31.11,9,314,2.76,3.079,8.908,1
517,35.512,-97.515,165.5,31.121,9,314,2.416,3.051,8.928,1
518,35.512,-97.515,165.1,31.041,9,314,2.985,3.16,8.988,0
519,35.512,-97.515,166,31.011,9,315,3.612,3.275,8.762,0
520,35.511,-97.515,168.3,30.873,9,316,3.758,3.447,8.399,0
521,35.511,-97.515,170.7,30.57,9,317,3.276,3.576,8.515,0
522,35.511,-97.515,172.4,30.77,9,317,2.729,3.636,8.814,0
523,35.511,-97.515,172.9,31.09,9,318,2.474,3.63,8.799,0
524,35.51,-97.515,173.1,31,10,318,2.388,3.486,8.985,0
525,35.51,-97.515,173.7,30.09,11,318,2.654,3.606,8.769,0
526,35.51,-97.515,173.7,30.58,13,320,2.808,3.514,8.673,0
527,35.509,-97.515,171.6,32.44,14,320,2.68,3.275,8.49,0
528,35.509,-97.515,171,32.14,14,320,2.558,3.326,8.801,0
529,35.509,-97.515,170.4,33.91,14,322,2.799,3.167,9.271,0
530,35.508,-97.515,171.6,34.2,14,322,2.654,3.243,8.518,0
531,35.508,-97.515,171.8,33.57,11,321,2.842,3.351,8.404,0
532,35.508,-97.515,172,33.38,11,324,2.731,3.045,8.609,0
533,35.507,-97.515,172.2,33.74,11,324,2.608,3.074,8.581,0
534,35.507,-97.515,172,33.83,10,325,2.892,2.953,8.966,0
535,35.507,-97.514,171.9,33.93,10,325,2.961,2.975,8.941,0
536,35.507,-97.514,172,33.95,10,326,2.893,3.071,8.955,0
537,35.506,-97.514,172.2,34.03,10,328,2.868,2.765,8.793,0
538,35.506,-97.514,172.5,33.71,10,328,3.051,2.374,8.902,0
539,35.506,-97.514,173.1,33.26,9,329,2.966,2.338,9.086,1
540,35.505,-97.514,173.6,32.47,9,329,3.592,2.588,8.638,1
541,35.505,-97.514,174.7,31.83,9,329,3.681,2.895,8.501,1
542,35.505,-97.514,177.1,31.7,9,329,3.16,2.687,8.541,1
543,35.505,-97.514,178.6,31.41,9,331,2.85,2.591,8.802,1
544,35.504,-97.514,179,30.95,9,331,2.52,2.871,9.01,1
545,35.504,-97.514,178.7,30.82,9,330,2.606,2.964,8.847,1
546,35.504,-97.514,178.2,30.89,9,330,2.741,3.122,9.303,0
547,35.503,-97.514,178.1,31.08,9,330,2.884,3.062,8.986,0
548,35.503,-97.514,177.9,31.2,9,329,2.751,2.968,8.731,0
549,35.503,-97.514,178,31.31,9,329,2.756,2.929,8.809,0
550,35.503,-97.514,178.2,30.84,10,329,2.693,2.952,8.958,0
551,35.502,-97.514,177.8,31.58,10,330,2.279,2.965,9.041,0
552,35.502,-97.514,177.2,31.39,10,330,2.547,2.912,9.026,0
553,35.502,-97.514,176.3,31.22,9,331,2.657,2.969,8.716,0
554,35.501,-97.514,176.2,31.34,9,332,3.187,3.13,8.91,0
555,35.501,-97.514,176.5,31.11,9,331,2.962,3.338,8.831,0
556,35.501,-97.514,177.2,31.3,9,330,2.977,3.46,8.606,0
557,35.501,-97.514,177.6,31.47,9,329,2.68,3.341,8.822,0
558,35.5,-97.514,178.1,31.95,9,330,2.722,3.316,8.938,0
559,35.5,-97.514,178,32.32,9,330,2.604,3.168,8.818,0
560,35.5,-97.514,178,32.55,9,331,2.793,3.181,8.711,0
562,35.499,-97.514,177.9,32.71,9,331,2.771,3.183,8.835,1
562,35.499,-97.514,177.9,32.71,9,331,2.771,3.183,8.835,1
563,35.499,-97.514,178.2,32.95,9,332,2.936,3.284,8.93,1
564,35.499,-97.514,178,32.83,9,330,2.713,3.237,9.098,0
565,35.498,-97.514,177.8,32.83,9,330,2.849,3.189,9.182,0
566,35.498,-97.514,177.7,32.781,9,331,2.854,3.161,8.893,0
567,35.498,-97.514,177.7,32.561,9,332,2.931,3.214,8.977,0
568,35.497,-97.514,177.9,32.416,9,327,2.984,3.176,8.775,0
569,35.497,-97.514,177.6,32.225,9,329,2.621,3.234,8.795,0
570,35.497,-97.514,176.3,32.296,9,330,1.908,3.238,9.146,0
571,35.497,-97.514,173.9,32.447,9,333,1.989,3.282,8.919,0
572,35.496,-97.514,171.6,32.483,9,334,1.973,3.683,9.109,0
573,35.496,-97.514,169.9,32.511,9,335,2.339,3.33,8.796,0
574,35.496,-97.514,168,32.537,9,337,2.31,3.316,8.954,0
575,35.495,-97.514,166.3,32.573,9,338,2.084,3.424,9.001,0
576,35.495,-97.513,164.4,32.665,9,339,2.299,3.116,9.259,0
577,35.495,-97.513,162.5,32.754,9,339,2.228,3.284,8.915,0
578,35.495,-97.513,160.5,32.734,9,341,2.251,3.144,8.856,0
579,35.494,-97.513,158.9,32.541,9,341,2.21,3.468,9.159,0
580,35.494,-97.513,157.2,32.815,9,342,2.131,3.46,8.992,0
581,35.494,-97.513,155.3,32.983,3,343,2.462,3.221,9.075,0
582,35.493,-97.513,154.3,33.042,3,344,2.943,3.26,9.023,0
583,35.493,-97.512,154.4,33.181,3,345,2.997,3.054,8.448,0
584,35.493,-97.512,154.9,33.36,3,345,2.816,3.137,9.3,0
585,35.493,-97.512,155.2,33.58,3,346,2.831,3.158,9.381,0
586,35.492,-97.512,155.2,33.71,3,347,3.455,3.368,8.749,0
587,35.492,-97.512,156.6,33.75,3,348,3.696,3.144,8.457,0
588,35.492,-97.512,158.9,33.8,3,347,3.592,3.075,7.97,0
589,35.491,-97.512,160.6,33.78,3,347,3.974,3.168,8.372,0
590,35.491,-97.511,162.9,33.73,3,347,3.918,3.282,8.576,0
591,35.491,-97.511,165.1,33.65,3,348,3.681,2.995,8.44,0
592,35.491,-97.511,167,33.62,3,348,3.841,3.072,8.515,0
593,35.49,-97.511,169,33.56,3,349,3.714,2.997,8.409,0
594,35.49,-97.511,171.1,33.36,4,349,3.591,3.088,8.556,0
595,35.49,-97.511,172.7,33.47,3,347,3.575,3.078,8.778,0
596,35.489,-97.511,173.8,33.29,4,347,3.839,3.273,8.53,0
597,35.489,-97.511,176.7,33.54,4,347,3.915,3.335,9.026,0
598,35.489,-97.511,178.6,33.66,4,347,3.305,3.252,8.57,0
599,35.489,-97.511,179.6,33.47,5,349,2.812,2.845,8.9,0
600,35.488,-97.511,180.5,33.37,7,350,2.862,3.027,9.07,0
601,35.488,-97.511,180.6,33.37,5,350,2.54,2.961,8.489,0
602,35.488,-97.511,180,33.46,5,351,2.652,3.073,8.829,0
603,35.487,-97.511,179.2,33.56,4,351,2.8,3.084,9.038,0
604,35.487,-97.511,178.4,33.641,4,351,2.393,2.581,8.4,0
605,35.487,-97.511,177.5,33.622,4,349,2.645,2.322,8.85,0
606,35.486,-97.511,176.5,33.503,4,347,2.584,2.153,8.586,0
607,35.486,-97.511,175.6,33.351,4,347,2.848,2.505,9.298,0
608,35.486,-97.511,174.3,33.107,4,346,2.675,2.509,8.818,0
609,35.486,-97.511,173.8,33.122,4,346,2.742,2.045,8.5,0
610,35.485,-97.511,173.2,33.071,4,347,2.623,2.191,8.96,0
611,35.485,-97.511,171.1,32.782,4,346,2.507,2.497,9.196,0
612,35.485,-97.511,169.8,32.633,4,345,2.808,2.512,8.894,0
613,35.484,-97.511,168.6,32.573,4,346,2.898,2.53,8.733,0
614,35.484,-97.511,168,32.373,4,345,2.929,2.564,8.853,0
615,35.484,-97.511,167.4,32.263,4,345,2.97,2.523,8.915,1
617,35.484,-97.51,166.8,32.124,4,344,3.039,2.603,8.895,1
617,35.484,-97.51,166.8,32.124,4,344,3.039,2.603,8.895,1
618,35.483,-97.51,167,31.771,4,341,3.053,2.646,9.21,0
619,35.483,-97.51,167.3,31.651,4,341,3.312,2.618,8.84,0
620,35.482,-97.51,168,31.27,4,341,3.524,2.708,9.046,0
621,35.482,-97.51,169.3,30.89,5,342,3.354,2.674,9.09,0
622,35.482,-97.51,169.7,30.86,6,342,3.268,2.831,8.913,0
623,35.482,-97.51,170.6,31.5,7,341,3.111,3.037,8.786,0
624,35.481,-97.51,171.4,31.09,9,342,3.009,3.033,8.675,0
625,35.481,-97.51,171.7,30.32,9,341,3.164,3.063,8.67,0
626,35.481,-97.51,171.7,31.89,9,342,3.216,3.121,8.547,0
627,35.48,-97.51,173.4,31.14,7,342,3.143,3.134,8.654,0
628,35.48,-97.51,174.8,30.87,6,343,3.202,3.166,8.591,0
629,35.48,-97.51,175.6,30.57,6,343,3.102,3.11,8.476,1
630,35.48,-97.51,176.6,30.83,6,342,2.959,3.087,8.723,1
631,35.479,-97.51,177,30.95,5,340,2.695,3.029,8.826,1
632,35.479,-97.51,177.1,30.88,5,346,2.631,2.988,8.861,1
633,35.479,-97.51,176.4,31.13,5,345,2.954,3.059,8.807,1
634,35.479,-97.51,176.4,31.24,5,343,3.124,3.054,8.623,1
635,35.478,-97.51,176.3,31.31,5,342,2.727,2.94,9.001,1
636,35.478,-97.51,176,31.36,6,341,2.139,2.833,9.498,0
637,35.478,-97.51,175.2,31.86,7,341,1.985,2.79,9.448,0
638,35.477,-97.51,173.4,31.59,8,340,2.4,2.913,9.354,0
639,35.477,-97.509,168.7,31.1,5,341,2.331,2.95,9.204,0
