time,lat,lng,bearing,spd,acc,alt,accx,accy,accz,stable,
0,35.218,-97.424,0,0,4,331,-0.801,-0.05,9.644,1
1,35.218,-97.424,0,0,4,331,-0.808,-0.061,9.727,1
2,35.218,-97.424,0,0,4,331,-0.755,-0.136,9.737,1
3,35.218,-97.424,0,0,4,331,-0.766,-0.129,9.683,1
4,35.218,-97.424,0,0,4,331,-0.814,-0.07,9.592,1
5,35.218,-97.424,0,0,4,331,-0.808,-0.071,9.613,1
6,35.218,-97.424,0,0,4,331,-0.773,-0.126,9.613,1
7,35.218,-97.424,0,0,4,331,-0.769,-0.132,9.603,1
8,35.218,-97.424,0,0,4,331,-0.803,-0.063,9.756,1
9,35.218,-97.424,0,0,4,331,-0.782,-0.124,9.686,1
10,35.218,-97.424,0,0,4,331,-0.761,-0.134,9.59,1
11,35.218,-97.424,0,0,4,331,-0.782,-0.112,9.641,1
12,35.218,-97.424,0,0,4,331,-0.819,-0.036,9.601,1
13,35.218,-97.424,0,0,4,331,-0.779,-0.103,9.685,1
14,35.218,-97.424,0,0,4,331,-0.737,-0.132,9.769,1
15,35.218,-97.424,0,0,4,331,-0.794,-0.097,9.665,1
16,35.218,-97.424,0,0,4,331,-0.763,-0.126,9.652,1
18,35.218,-97.424,0,0,4,331,-0.798,-0.1,9.699,1
18,35.218,-97.424,0,0,4,331,-0.798,-0.1,9.699,1
19,35.218,-97.424,0,0,4,331,-0.805,-0.106,9.597,1
20,35.218,-97.424,0,0,4,331,-0.761,-0.133,9.668,1
21,35.218,-97.424,0,0,4,331,-0.811,-0.084,9.734,1
22,35.218,-97.424,0,0,4,331,-0.797,-0.08,9.758,1
23,35.218,-97.424,0,0,4,331,-0.758,-0.136,9.585,1
24,35.218,-97.424,0,0,4,331,-0.788,-0.069,9.708,1
25,35.218,-97.424,0,0,4,331,-0.799,-0.066,9.756,1
26,35.218,-97.424,0,0,4,331,-0.788,-0.091,9.699,1
27,35.218,-97.424,0,0,4,331,-0.746,-0.145,9.674,1
28,35.218,-97.424,0,0,4,331,-0.783,-0.115,9.713,1
29,35.218,-97.424,0,0,4,331,-0.819,-0.07,9.646,1
30,35.218,-97.424,0,0,4,331,-0.793,-0.104,9.601,1
31,35.218,-97.424,0,0,4,331,-0.768,-0.142,9.626,1
32,35.218,-97.424,0,0,4,331,-0.962,-0.278,9.845,1
33,35.218,-97.424,0,0,4,331,-2.141,-0.696,9.437,1
34,35.218,-97.424,0.9,1.3603,3,332,-2.353,-0.861,9.397,1
35,35.218,-97.424,1.1,2.7902,3,333,-2.077,-0.645,9.365,0
36,35.218,-97.424,1.3,4.1303,3,333,-1.96,-0.936,9.46,0
37,35.218,-97.424,0.8,5.4105,3,333,-2.099,-0.687,9.584,0
38,35.218,-97.424,0,6.5011,3,333,-2.124,-0.573,9.847,0
39,35.218,-97.424,359.8,7.7503,3,333,-1.708,-0.298,9.448,0
40,35.218,-97.424,359.7,8.91,3,333,-1.601,-0.34,9.563,0
41,35.219,-97.424,0,10.02,3,333,-1.392,-0.37,9.359,0
42,35.219,-97.424,359.9,10.93,3,333,-1.523,-0.544,9.668,0
43,35.219,-97.424,359.7,11.56,3,333,-1.392,-0.54,9.697,0
44,35.219,-97.424,359.9,12.68,3,333,-1.454,-0.427,9.358,0
45,35.219,-97.424,0,13.45,3,333,-1.335,-0.021,9.604,0
46,35.219,-97.424,0.3,13.95,3,333,-1.201,-0.305,9.382,0
47,35.219,-97.424,355.9,14.832,3,331,-1.312,-0.196,9.109,0
48,35.219,-97.424,355.6,15.518,4,330,-0.756,-0.098,9.267,0
49,35.22,-97.424,355.2,16.284,3,330,-1.091,-0.162,9.869,0
50,35.22,-97.424,355.1,16.914,3,329,-1.161,-0.16,10.304,0
51,35.22,-97.424,355.1,17.654,3,328,-0.988,-0.153,9.319,0
52,35.22,-97.424,354.8,18.332,3,328,-0.947,-0.341,8.839,0
53,35.22,-97.424,354.7,18.861,3,327,-0.515,0.179,9.793,0
54,35.22,-97.424,354.6,18.296,4,326,-0.558,-0.271,9.248,0
55,35.22,-97.424,355,18.494,3,325,-0.851,0.001,9.44,0
56,35.221,-97.424,355,18.712,4,328,-0.802,-0.385,9.127,0
57,35.221,-97.424,354.5,19.042,8,327,-0.988,-0.334,9.854,0
58,35.221,-97.424,353.9,19.479,9,326,-0.61,-0.125,9.878,0
59,35.221,-97.424,354.2,19.631,10,326,-0.768,-0.446,9.96,0
60,35.221,-97.424,354.6,19.64,10,326,-0.817,-0.379,9.705,0
61,35.221,-97.424,355,19.598,10,327,-1.183,-0.101,10.524,0
62,35.222,-97.424,355.7,19.494,10,327,-0.741,-0.119,9.858,1
63,35.222,-97.424,356.3,19.315,9,328,-0.272,0.062,10.093,0
64,35.222,-97.424,356.5,19.067,9,327,-0.405,0.013,9.502,0
65,35.222,-97.424,356.6,18.635,8,327,-0.293,-0.032,9.844,0
66,35.222,-97.424,357.4,17.993,9,328,-0.695,-0.138,9.501,0
67,35.222,-97.424,357.4,17.733,8,328,-0.553,-0.028,9.686,0
68,35.223,-97.424,359.2,17.332,3,330,-0.832,-0.178,9.781,0
69,35.223,-97.424,359.5,17.401,4,331,-0.862,-0.12,9.548,1
70,35.223,-97.424,0.8,17.43,3,331,-0.831,-0.15,9.602,0
71,35.223,-97.424,1.3,17.58,3,332,-0.793,-0.309,9.683,0
72,35.223,-97.424,1.3,17.73,3,332,-0.533,-0.418,10.054,0
73,35.223,-97.424,1.1,17.89,3,333,-0.27,-0.041,9.704,0
74,35.224,-97.424,0.6,17.81,4,333,-0.15,-0.137,9.77,0
75,35.224,-97.424,0.6,17.51,3,334,-0.338,-0.02,10.068,0
76,35.224,-97.424,0.6,17.17,3,334,-0.233,-0.106,9.81,0
78,35.224,-97.424,0.6,16.691,3,334,-0.208,0.079,9.72,0
78,35.224,-97.424,0.6,16.691,3,334,-0.208,0.079,9.72,0
79,35.224,-97.424,0.7,16.221,3,335,-0.159,-0.075,9.443,0
80,35.224,-97.424,0.9,15.701,3,335,-0.251,-0.148,9.688,0
81,35.224,-97.424,0.9,15.221,3,335,1.271,0.639,10.043,0
82,35.225,-97.424,0.6,14.451,3,335,0.698,0.449,9.626,0
83,35.225,-97.424,0.6,13.022,3,335,-0.234,0.2,9.873,0
84,35.225,-97.424,0.5,11.903,3,337,0.963,0.464,9.671,0
85,35.225,-97.424,0.6,10.66,3,336,0.003,0.086,9.947,1
86,35.225,-97.424,0.6,9.3721,3,336,0.648,0.41,10.034,0
87,35.225,-97.424,0.5,6.5311,4,336,0.602,0.391,9.898,0
88,35.225,-97.424,0.4,4.8426,3,336,0.443,0.427,9.767,0
89,35.225,-97.424,0.5,3.7434,3,336,0.137,0.032,9.856,1
90,35.225,-97.424,0.9,2.6043,3,337,0.121,0.214,9.807,0
91,35.225,-97.424,1.1,1.5517,3,337,-0.032,0.074,9.672,0
92,35.225,-97.424,1.1,1.5517,3,337,-0.528,-0.135,9.854,1
93,35.225,-97.424,1.2,0.9904,3,338,-0.66,-0.202,9.69,1
94,35.225,-97.424,1.2,0.9904,3,338,-0.623,-0.217,9.523,1
95,35.225,-97.424,1.2,0.9904,3,338,-0.945,-0.357,9.483,1
96,35.225,-97.424,0.9,1.0834,3,338,-0.898,-0.38,9.666,1
97,35.225,-97.424,0.9,1.0834,3,338,-2.63,-0.993,9.506,1
98,35.225,-97.424,0.7,1.2657,3,338,-0.822,-0.332,9.62,1
99,35.225,-97.424,0.7,1.2657,3,338,-0.754,-0.247,9.676,1
100,35.225,-97.424,0.5,0.52,3,337,-2.582,-0.923,9.376,1
101,35.225,-97.424,0.3,1.67,3,337,-2.091,-0.804,9.582,1
102,35.225,-97.424,0.3,2.5301,3,337,-1.678,-0.765,9.643,1
103,35.225,-97.424,0.5,3.6001,3,338,-1.133,-0.43,9.799,1
104,35.225,-97.424,0.4,4.63,7,338,-1.174,-0.47,9.495,0
105,35.225,-97.424,0.3,5.0003,9,338,-1.256,-0.39,9.428,0
106,35.226,-97.424,0.2,5.9207,10,337,-1.674,-0.563,9.575,1
107,35.226,-97.424,0.1,8.3329,4,337,-1.654,-0.754,9.561,0
108,35.226,-97.424,1.2,10.29,3,338,-1.695,-0.493,9.534,1
109,35.226,-97.424,0.9,11.31,4,338,-1.551,-0.807,9.382,1
110,35.226,-97.424,0.9,12.56,3,339,-1.547,-0.639,9.193,0
111,35.226,-97.424,0.4,13.691,3,338,-0.676,-0.09,9.562,0
112,35.226,-97.424,0,14.371,3,338,-1.009,-0.399,9.619,0
113,35.226,-97.424,359.7,15.151,3,338,-1.055,-0.493,9.619,1
114,35.227,-97.424,359.3,15.952,4,338,-0.608,-0.155,9.618,1
115,35.227,-97.424,359.1,16.543,3,338,-0.75,-0.213,9.507,0
116,35.227,-97.424,359.3,17.143,4,337,-1.121,-0.433,9.469,0
117,35.227,-97.424,359.2,17.674,4,337,-1.119,-0.364,9.585,1
118,35.227,-97.424,359.2,18.264,4,336,-1.122,-0.286,9.395,0
119,35.227,-97.424,359.4,17.492,3,337,-1.262,-0.282,9.463,0
120,35.227,-97.424,359.9,17.672,3,337,-0.957,-0.295,9.659,0
121,35.228,-97.424,0,18.031,3,337,-0.992,-0.307,9.284,0
122,35.228,-97.424,0.1,18.291,3,337,-0.974,-0.476,9.55,0
123,35.228,-97.424,0.1,18.581,3,337,-0.519,-0.22,9.434,0
124,35.228,-97.424,359.8,18.78,3,337,-0.56,-0.281,9.834,0
125,35.228,-97.424,359.7,18.911,3,337,-0.582,-0.207,9.828,0
126,35.228,-97.424,359.6,18.81,3,337,-0.612,0.032,9.751,0
127,35.229,-97.424,359.7,18.7,4,337,-0.299,-0.019,9.85,0
128,35.229,-97.424,359.9,18.47,3,338,-0.666,-0.195,9.634,0
129,35.229,-97.424,359.9,18.36,3,338,-0.254,0.025,9.539,0
130,35.229,-97.424,0.4,18.06,3,339,-0.74,0.058,9.544,0
131,35.229,-97.424,0.7,17.84,3,339,-0.699,-0.091,9.605,0
132,35.229,-97.424,0.7,17.75,3,339,-0.732,-0.058,9.545,0
133,35.23,-97.424,0.7,17.73,3,340,-0.531,-0.137,9.841,0
134,35.23,-97.424,0.9,17.7,4,339,-0.378,-0.014,9.371,0
136,35.23,-97.424,0.9,17.63,3,339,-0.35,-0.096,9.845,0
136,35.23,-97.424,0.9,17.63,3,339,-0.35,-0.096,9.845,0
137,35.23,-97.424,0.8,17.37,3,339,-0.688,-0.226,9.687,0
138,35.23,-97.424,0.9,17.12,3,339,-0.643,-0.23,9.666,0
139,35.23,-97.424,0.9,17.021,3,340,-0.738,-0.038,10.072,0
140,35.23,-97.424,0.8,16.97,3,340,-0.647,-0.043,9.555,1
141,35.231,-97.424,0.8,16.98,3,340,-0.69,0.022,9.737,0
142,35.231,-97.424,0.8,16.97,3,340,-0.576,-0.108,9.533,1
143,35.231,-97.424,0.9,16.82,3,340,-0.759,-0.226,9.263,0
144,35.231,-97.424,0.7,16.96,3,340,-0.682,-0.182,9.283,0
145,35.231,-97.423,1,17.011,3,340,-0.887,0.105,10.047,0
146,35.231,-97.423,2,17,3,340,-0.342,-0.978,7.651,0
147,35.232,-97.423,1.8,17.86,4,340,-0.263,-0.312,10.142,0
148,35.232,-97.423,1.3,17.901,3,341,-0.254,-0.532,9.887,0
149,35.232,-97.423,1,17.693,4,341,-0.541,-0.314,9.362,0
150,35.232,-97.423,0.9,17.563,3,341,-0.531,-0.359,9.491,0
151,35.232,-97.423,0.9,17.593,3,341,-0.676,-0.318,8.68,0
152,35.233,-97.423,0.7,17.602,3,342,-0.975,0.029,10.166,0
153,35.233,-97.423,0.6,17.702,3,342,-0.712,-0.215,9.032,0
154,35.233,-97.423,0.5,17.75,4,342,-0.948,-0.166,10.406,0
155,35.233,-97.423,0.5,17.79,3,342,-0.862,-0.362,10.157,0
156,35.233,-97.423,0.5,17.94,3,342,-0.727,-0.36,9.584,0
157,35.233,-97.423,0.3,18.13,3,342,-0.682,-0.123,9.315,0
158,35.233,-97.423,0.1,18.31,3,342,-1.289,-0.641,9.773,0
159,35.234,-97.423,359.9,18.81,3,343,-1.078,-0.559,9.628,0
160,35.234,-97.423,359.8,19.28,3,343,-0.697,-0.047,8.72,0
161,35.234,-97.423,359.3,19.93,3,343,-0.67,-0.39,9.655,1
162,35.234,-97.423,358.5,20.2,3,343,-0.863,-0.655,9.755,0
163,35.234,-97.423,358.3,20.511,3,343,-0.827,-0.181,9.909,0
164,35.235,-97.423,358.5,20.85,3,344,-0.259,-0.05,9.856,0
165,35.235,-97.423,358.2,20.82,3,344,-0.326,0.131,9.251,0
166,35.235,-97.424,358,20.81,3,344,-0.477,0.013,10.048,0
167,35.235,-97.424,357.8,20.75,4,343,-0.299,-0.101,10.296,0
168,35.235,-97.424,358.2,20.54,3,343,-0.389,0.176,9.81,0
169,35.235,-97.424,358.3,20.29,3,343,-0.58,-0.012,9.759,0
170,35.236,-97.424,358.6,20.09,3,342,-0.269,0.104,9.869,0
171,35.236,-97.424,358.8,19.88,3,342,-0.752,-0.076,9.858,0
172,35.236,-97.424,359.2,19.69,3,342,-0.474,-0.181,9.636,0
173,35.236,-97.424,359.3,19.67,3,342,-0.603,-0.156,9.535,0
174,35.236,-97.424,359.4,19.73,4,342,-0.482,-0.046,9.552,0
175,35.237,-97.424,359.4,19.77,3,342,-0.416,-0.054,9.621,0
176,35.237,-97.424,359.4,19.66,3,342,-0.467,-0.156,9.65,0
177,35.237,-97.424,359.5,19.51,3,342,-0.527,0.014,9.255,0
178,35.237,-97.424,359.4,19.36,3,342,-0.517,-0.088,9.713,0
179,35.237,-97.424,359.4,19.16,3,343,-0.887,-0.196,9.563,0
180,35.237,-97.424,359.5,19.271,3,343,-1.181,-0.344,10.024,0
181,35.238,-97.424,359.7,19.481,3,343,-1.246,-0.252,9.72,0
182,35.238,-97.424,0.2,19.761,3,343,-1.061,-0.307,9.224,0
183,35.238,-97.424,0.2,20.15,3,344,-1.042,-0.507,9.721,0
184,35.238,-97.424,0.1,20.59,3,343,-0.754,-0.343,9.539,0
185,35.238,-97.424,359.9,20.98,3,343,-0.812,-0.23,9.993,0
186,35.239,-97.424,359.6,21.22,3,343,-0.393,0.029,9.689,0
187,35.239,-97.424,359.6,21.311,4,343,-0.244,-0.018,9.916,0
188,35.239,-97.424,359.4,21.121,3,343,-0.572,-0.082,9.387,0
189,35.239,-97.424,359.1,21.022,4,344,-0.643,-0.126,9.847,0
190,35.239,-97.424,359.1,20.881,3,344,-0.78,-0.104,9.584,0
191,35.239,-97.424,359.1,20.752,3,344,-0.787,-0.11,9.826,0
192,35.24,-97.424,359.4,20.422,3,345,-0.919,-0.176,9.797,0
193,35.24,-97.424,359.4,20.422,3,345,-0.767,-0.335,9.573,0
194,35.24,-97.424,359.4,20.512,4,345,-0.8,-0.155,9.639,0
195,35.24,-97.424,359.4,20.612,3,346,-0.744,-0.157,9.559,1
196,35.24,-97.424,359.4,20.731,3,346,-0.768,-0.223,9.874,0
197,35.241,-97.424,359.3,20.921,3,346,-0.766,0.02,9.524,0
198,35.241,-97.424,359.3,21.03,3,347,-0.732,-0.177,10.222,0
199,35.241,-97.424,359.5,21.12,3,347,-0.575,0.127,9.716,0
200,35.241,-97.424,359.5,21.25,3,347,-0.172,0.15,9.624,0
201,35.241,-97.424,359.7,21.12,3,346,-0.517,-0.047,9.663,0
203,35.242,-97.424,359.8,21.061,3,346,-0.304,0.137,9.941,0
203,35.242,-97.424,359.8,21.061,3,346,-0.304,0.137,9.941,0
204,35.242,-97.424,359.7,20.831,3,346,-0.204,0.126,9.34,0
205,35.242,-97.424,359.9,20.652,3,346,-0.242,0.039,9.487,0
206,35.242,-97.424,359.7,20.603,3,345,-0.524,-0.218,9.658,0
207,35.242,-97.424,359.5,20.533,3,345,-0.728,-0.222,9.727,1
208,35.242,-97.424,359.3,20.794,3,345,-0.757,0.024,9.904,0
209,35.243,-97.424,359.5,20.985,4,344,-0.491,0.134,10.01,0
210,35.243,-97.424,0.2,21.132,3,343,-0.326,0.052,9.853,0
211,35.243,-97.424,0.2,21.241,3,343,-0.487,0.267,9.603,0
212,35.243,-97.424,0.5,21.19,3,343,-0.842,0.222,9.402,0
213,35.244,-97.424,0.9,21.24,3,343,-0.912,0.123,10.027,0
214,35.244,-97.424,1.3,21.421,4,343,-0.808,-0.097,10.233,0
215,35.244,-97.424,1.2,21.611,3,343,-0.568,-0.11,9.231,0
216,35.244,-97.424,1.1,21.651,3,342,-0.621,-0.08,9.912,0
217,35.244,-97.424,1.2,21.61,3,342,-0.56,0.142,10.037,0
218,35.245,-97.424,1.5,21.45,3,342,-0.628,0.068,10.139,0
219,35.245,-97.424,1.9,21.271,3,342,-0.596,-0.259,9.844,0
220,35.245,-97.424,1.9,21.265,3,342,-0.785,-0.113,9.54,0
221,35.245,-97.424,2,21.158,3,343,-0.388,0.104,9.643,0
222,35.245,-97.424,2.2,20.851,3,343,-0.296,0.072,9.61,0
223,35.246,-97.424,2.3,20.435,3,344,-0.203,-0.016,9.781,0
224,35.246,-97.424,2.1,20.063,3,344,-0.278,-0.109,9.479,1
225,35.246,-97.423,1.8,19.701,3,344,0.313,0.234,9.444,0
226,35.246,-97.423,1.7,18.621,3,344,0.102,0.241,9.331,0
227,35.246,-97.423,2,18.02,4,344,1.365,0.874,9.985,0
228,35.246,-97.423,2.6,16.67,3,344,-0.206,0.168,9.556,0
229,35.246,-97.423,2.5,15.051,4,345,-0.161,-0.224,9.568,1
230,35.247,-97.423,1.6,13.83,3,344,1.328,0.379,9.882,0
231,35.247,-97.423,0.4,12.59,3,344,0.955,0.511,9.684,0
232,35.247,-97.423,359.7,11.13,3,344,1.374,0.723,10.006,0
233,35.247,-97.423,359.4,9.55,3,344,1.336,0.58,9.871,0
234,35.247,-97.423,359,7.8603,4,344,1.338,0.682,9.939,0
235,35.247,-97.423,358.8,6.1214,3,344,1.564,0.809,10.047,0
236,35.247,-97.423,358.8,4.2138,4,344,0.555,0.481,9.865,0
237,35.247,-97.423,359,2.9283,3,344,0.833,0.516,10.019,0
238,35.247,-97.423,359.2,1.8668,3,344,0.419,0.315,9.953,0
239,35.247,-97.423,359.2,1.8668,3,344,0.263,0.332,9.822,1
240,35.247,-97.423,359.2,1.8668,3,344,-0.273,0.118,9.746,1
241,35.247,-97.423,358.9,1.771,4,346,-0.294,0.092,9.659,1
242,35.247,-97.423,46.5,2.3655,3,346,-0.269,0.089,9.654,1
243,35.247,-97.423,359.6,2.8756,3,346,-0.257,0.065,9.748,1
244,35.247,-97.423,359.6,3.1016,9,346,-0.252,0.084,9.675,1
245,35.247,-97.423,359.6,3.081,14,346,-0.238,0.061,9.748,1
246,35.247,-97.423,359.6,3.081,14,346,-0.258,0.071,9.837,1
247,35.247,-97.423,359.6,2.45,26,346,-0.263,0.075,9.861,1
248,35.247,-97.423,359.6,2.2,30,346,-0.258,0.096,9.775,1
249,35.247,-97.423,359.6,1.97,35,347,-0.281,0.075,9.695,1
250,35.247,-97.423,0,0,3,347,-0.288,0.095,9.792,1
251,35.247,-97.423,0,0,3,347,-0.238,0.048,9.852,1
252,35.247,-97.423,0,0,3,347,-0.277,0.085,9.7,1
253,35.247,-97.423,0,0,3,347,-0.293,0.102,9.631,1
254,35.247,-97.423,0,0,3,347,-0.228,0.037,9.822,1
255,35.247,-97.423,0,0,3,347,-0.283,0.088,9.65,1
256,35.247,-97.423,0,0,3,347,-0.257,0.059,9.658,1
257,35.247,-97.423,0,0,3,347,-0.266,0.072,9.864,1
258,35.247,-97.423,0,0,3,347,-0.251,0.08,9.748,1
259,35.247,-97.423,0,0,3,347,-0.278,0.059,9.629,1
260,35.247,-97.423,0,0,3,347,-0.284,0.093,9.812,1
261,35.247,-97.423,0,0,3,347,-0.239,0.059,9.758,1
262,35.247,-97.423,0,0,3,347,-0.304,0.1,9.66,1
263,35.247,-97.423,0,0,3,347,-0.238,0.051,9.775,1
264,35.247,-97.423,0,0,3,347,-0.252,0.06,9.854,1
266,35.247,-97.423,0,0,3,347,-0.294,0.089,9.619,1
266,35.247,-97.423,0,0,3,347,-0.294,0.089,9.619,1
267,35.247,-97.423,0,0,3,347,-0.241,0.024,9.853,1
268,35.247,-97.423,0,0,3,347,-0.283,0.082,9.792,1
269,35.247,-97.423,0,0,3,347,-0.836,-0.25,9.563,1
270,35.247,-97.423,0,0,3,347,-1.2,-0.36,9.48,1
271,35.247,-97.423,0,0,3,347,-2.666,-0.904,9.4,0
272,35.247,-97.423,359.3,3.7016,3,347,-2.534,-0.829,9.417,1
273,35.247,-97.423,359,6.0579,3,346,-2.368,-0.731,9.512,1
274,35.247,-97.423,358.8,8.4553,3,345,-1.549,-0.541,9.627,0
275,35.247,-97.423,358.8,8.4553,3,345,-1.98,-0.814,9.525,0
276,35.247,-97.423,358.4,11.885,3,344,-1.826,-0.778,9.559,0
277,35.248,-97.423,358.2,13.713,3,343,-1.759,-0.494,9.548,0
278,35.248,-97.423,358.1,15.472,3,343,-1.135,-0.383,9.837,0
279,35.248,-97.423,357.8,16.723,3,342,-1.188,-0.767,9.686,0
280,35.248,-97.423,356.7,17.801,3,341,-1.164,-0.644,9.668,0
281,35.248,-97.424,355.9,18.58,3,341,-1.438,-0.182,9.793,0
282,35.248,-97.424,355.8,19.49,3,340,-1.392,-0.128,9.812,0
283,35.249,-97.424,356.3,20.15,3,341,-1.23,-0.025,10.048,0
284,35.249,-97.424,357.3,20.621,3,342,-1.171,-0.188,9.645,0
285,35.249,-97.424,357.8,20.882,3,342,-1.174,-0.276,9.465,0
286,35.249,-97.424,357.7,21.093,3,343,-1.063,-0.348,9.199,0
287,35.249,-97.424,357.8,21.313,3,343,-1.343,-0.032,8.939,0
288,35.25,-97.424,358.1,21.651,3,343,-0.535,0.153,9.509,0
289,35.25,-97.424,358.4,22.121,3,344,-0.895,-0.068,9.497,0
290,35.25,-97.424,358.6,22.24,3,344,-0.431,-0.025,9.853,0
291,35.25,-97.424,359,22.26,3,343,-0.724,-0.134,9.769,0
292,35.25,-97.424,359.3,22.241,3,343,-0.632,-0.238,9.539,0
293,35.251,-97.424,359.2,22.471,3,342,-0.287,-0.008,10.017,0
294,35.251,-97.424,359.4,22.75,3,343,-0.181,-0.156,10.26,0
295,35.251,-97.424,359.4,22.75,3,343,-0.604,-0.46,10.531,0
296,35.251,-97.424,359.5,22.42,3,342,-0.632,-0.15,9.945,0
297,35.251,-97.424,359.6,22.68,3,341,-0.28,-0.179,10.163,0
298,35.252,-97.424,359.6,22.491,3,341,-0.714,-0.127,9.726,0
299,35.252,-97.424,359.4,22.03,3,341,-0.659,0.102,9.88,0
300,35.252,-97.424,359.5,21.821,3,341,-0.42,0.081,10.017,0
301,35.252,-97.424,359.9,21.388,3,342,-0.384,0.067,10.114,0
302,35.252,-97.424,0.2,20.564,3,342,-0.338,0.21,10.102,0
303,35.252,-97.424,0.6,19.793,3,343,-0.278,0.095,9.67,0
304,35.253,-97.424,0.9,19.107,3,343,0.467,0.198,10.064,0
305,35.253,-97.424,0.9,18.223,3,343,0.647,0.574,9.583,0
306,35.253,-97.424,0.8,16.956,3,343,-0.211,-0.08,9.365,0
307,35.253,-97.424,1,15.444,3,342,-0.814,-0.337,9.351,0
308,35.253,-97.424,1.2,14.772,3,342,-0.841,-0.416,9.442,1
309,35.253,-97.424,0.9,14.531,3,342,-0.954,-0.274,9.849,0
310,35.253,-97.424,0.5,14.521,3,343,-0.243,-0.064,9.479,0
311,35.254,-97.424,0.1,14.511,3,343,-0.724,-0.07,9.584,0
312,35.254,-97.424,359.9,14.223,3,344,-0.21,-0.021,9.393,1
313,35.254,-97.424,359.9,13.801,3,344,-0.889,-0.1,9.958,1
314,35.254,-97.424,0,13.744,3,344,-0.593,-0.19,9.606,1
315,35.254,-97.424,0,13.692,3,345,-0.797,-0.222,9.556,0
316,35.254,-97.424,359.8,13.771,3,345,-0.896,-0.147,9.376,1
317,35.254,-97.424,359.7,13.82,3,345,-1.077,-0.078,9.57,0
318,35.254,-97.424,359.5,13.99,3,346,-1.344,-0.347,9.734,0
319,35.255,-97.424,359.5,14.5,3,346,-1.404,-0.274,9.417,0
320,35.255,-97.424,359.4,15.34,3,346,-1.273,-0.525,9.51,1
321,35.255,-97.424,359.3,16.23,3,346,-1.26,-0.329,9.071,0
322,35.255,-97.424,358.9,17.15,3,346,-1.258,-0.416,9.495,1
323,35.255,-97.424,358.6,18.111,3,346,-1.215,-0.252,9.308,1
325,35.255,-97.424,358.5,19.091,3,346,-1.254,-0.262,9.462,0
325,35.255,-97.424,358.5,19.091,3,346,-1.254,-0.262,9.462,0
326,35.256,-97.424,358.5,20.241,3,346,-0.506,0.131,10.038,0
327,35.256,-97.424,358.7,21.131,3,345,-0.635,0.036,9.145,0
328,35.256,-97.424,359.2,21.641,3,345,-0.77,-0.245,10.747,0
329,35.256,-97.424,359.5,21.99,3,344,-0.317,0.13,10.025,0
330,35.257,-97.424,359.5,22.075,3,343,-0.31,0.409,10,0
331,35.257,-97.424,359.4,22.214,3,342,-0.138,0.087,10.152,0
332,35.257,-97.424,359.3,22.372,3,342,-0.594,-0.079,9.765,0
333,35.257,-97.424,359.4,22.634,3,341,-0.338,0.313,9.977,0
334,35.257,-97.424,359.8,22.684,3,339,-0.18,0.088,9.838,0
335,35.258,-97.424,359.8,22.505,3,338,-0.131,-0.017,9.669,0
336,35.258,-97.424,359.6,22.416,3,337,0.004,-0.181,9.493,0
337,35.258,-97.424,359.3,22.611,3,337,-0.107,0.024,9.866,0
338,35.258,-97.424,359.2,22.336,3,336,-0.311,0.111,9.612,0
339,35.258,-97.424,359.2,22.307,3,334,-0.268,0.068,9.789,0
340,35.259,-97.424,359.3,22.427,3,333,-0.223,0.1,9.77,0
341,35.259,-97.424,359.4,22.476,3,332,-0.214,-0.025,9.765,0
342,35.259,-97.424,359.3,22.762,3,332,-0.216,0.223,9.983,0
343,35.259,-97.424,359.3,22.454,3,331,-0.258,0.166,9.746,0
344,35.259,-97.424,359.4,22.324,3,330,-0.326,0.241,9.961,0
345,35.26,-97.424,359.5,22.174,3,329,0.892,0.541,10.208,0
346,35.26,-97.424,359.9,21.743,3,329,0.803,0.632,9.887,0
347,35.26,-97.424,0.2,20.293,3,328,-0.287,0.04,10.065,0
348,35.26,-97.424,0.6,19.452,3,328,-0.157,0.055,9.769,0
349,35.26,-97.424,0.7,19.343,3,328,1.431,0.624,9.742,0
350,35.261,-97.424,0.5,18.324,3,327,1.523,0.573,10.161,0
351,35.261,-97.424,0.3,16.82,3,327,-0.148,-0.01,9.87,0
352,35.261,-97.424,359.9,15,3,327,0.225,0.045,9.957,0
353,35.261,-97.424,359.6,14.61,3,327,1.213,0.495,10.173,0
354,35.261,-97.424,359.7,13.101,3,326,1.017,0.393,10.193,0
355,35.261,-97.424,0,11.45,3,326,1.185,0.408,10.27,0
356,35.261,-97.424,0.1,10.11,3,326,0.933,0.358,10.071,0
357,35.261,-97.424,359.9,8.4201,3,325,0.684,0.584,9.906,0
358,35.261,-97.424,359.4,7.0602,3,325,0.502,0.353,9.861,0
359,35.261,-97.424,359.4,5.9002,3,325,0.59,0.447,9.852,0
360,35.261,-97.424,359.6,4.74,3,325,1.103,0.654,9.741,0
361,35.261,-97.424,359.7,3.2,3,325,-0.159,0.134,9.689,1
362,35.261,-97.424,359.7,2.0002,3,325,-0.069,0.105,9.771,0
363,35.262,-97.424,359.7,1.5103,3,325,0.114,0.213,9.881,1
364,35.262,-97.424,359.7,1.5103,3,325,-0.02,0.185,9.699,1
365,35.262,-97.424,359.8,0.23,3,326,-0.521,-0.054,9.686,1
366,35.262,-97.424,359.8,0.23,3,326,-0.562,-0.054,9.732,1
367,35.262,-97.424,359.8,0.23,3,326,-0.515,-0.091,9.748,1
368,35.262,-97.424,359.8,0.23,3,326,-0.551,-0.068,9.781,1
369,35.262,-97.424,359.8,0.23,3,326,-0.555,-0.066,9.651,1
370,35.262,-97.424,359.8,0.23,3,326,-1.029,-0.252,9.529,1
371,35.262,-97.424,359.8,0.23,3,326,-2.297,-0.773,9.316,1
372,35.262,-97.424,359.8,0.23,3,326,-2.774,-0.884,9.441,1
373,35.262,-97.424,359.9,3.3,3,325,-3.01,-1.052,9.438,1
374,35.262,-97.424,359.9,5.3809,3,325,-3.076,-1.203,9.019,0
375,35.262,-97.424,0,8.1102,3,325,-1.776,-0.598,9.478,0
376,35.262,-97.424,359.9,10.061,3,325,-1.938,-0.82,9.484,1
377,35.262,-97.424,359.6,11.61,3,325,-1.814,-0.75,9.578,0
378,35.262,-97.424,359.5,13.19,3,325,-1.848,-0.58,9.553,0
379,35.262,-97.424,359.4,14.65,3,325,-1.417,-0.315,9.381,0
380,35.262,-97.424,359.6,16.001,3,324,-1.309,-0.63,9.671,1
381,35.262,-97.424,359.6,16.572,3,324,-1.448,-0.559,9.183,0
382,35.263,-97.424,359.6,17.701,3,324,-1.52,-0.574,9.628,0
383,35.263,-97.424,359.5,18.731,3,323,-1.355,-0.432,9.55,0
384,35.263,-97.424,359.2,19.762,3,323,-0.324,-0.018,9.388,1
385,35.263,-97.424,359.1,20.764,3,323,-0.855,0.185,10.09,0
386,35.263,-97.424,359.2,21.213,3,322,-0.812,0.007,9.748,0
387,35.264,-97.424,359.5,21.722,4,322,-0.949,0.065,10.177,0
389,35.264,-97.424,0.7,22.38,3,322,-0.895,0.269,9.6,0
389,35.264,-97.424,0.7,22.38,3,322,-0.895,0.269,9.6,0
390,35.264,-97.424,1.3,22.843,3,322,-0.774,-0.322,9.556,0
391,35.264,-97.424,1.6,23.167,3,322,-0.788,-0.48,9.592,0
392,35.264,-97.424,1.4,22.902,3,322,-0.691,-0.636,9.797,0
393,35.265,-97.424,0.3,23.193,3,322,-0.852,-0.401,9.967,0
394,35.265,-97.424,0.7,23.517,4,322,-0.813,-0.315,10.101,0
395,35.265,-97.424,0.6,23.745,3,323,-0.901,-0.171,9.701,0
396,35.265,-97.424,0.3,23.897,3,324,-1.015,-0.121,9.617,0
397,35.265,-97.424,359.9,23.991,3,325,-1.07,0.196,9.842,0
398,35.266,-97.424,0,23.903,3,326,-0.865,-0.183,9.436,0
399,35.266,-97.424,359.3,23.825,3,328,-0.873,-0.129,9.371,1
400,35.266,-97.424,0,24.202,3,331,-0.743,-0.552,9.344,1
401,35.266,-97.424,0.7,24.359,3,332,-0.787,-0.284,9.499,0
402,35.267,-97.424,0,24.661,3,333,-0.76,-0.145,9.296,1
403,35.267,-97.424,0,24.988,3,332,-0.728,-0.401,9.43,0
404,35.267,-97.424,0,25.437,3,332,-0.63,-0.171,9.858,0
405,35.267,-97.424,0.2,25.82,3,333,-0.577,-0.384,9.599,0
406,35.268,-97.424,0.2,26.04,4,334,-0.77,-0.134,9.842,0
407,35.268,-97.424,359.9,26.179,3,335,-0.686,-0.221,9.856,0
408,35.268,-97.424,359.9,26.131,4,336,-0.737,-0.208,9.448,0
409,35.268,-97.424,359.7,26.002,8,337,-0.669,-0.299,9.683,0
410,35.269,-97.424,359.7,25.649,9,337,-0.302,0.162,9.116,0
411,35.269,-97.424,359.9,25.077,9,337,-0.476,-0.031,9.626,0
412,35.269,-97.424,0.2,24.825,10,338,-0.466,-0.214,9.768,0
413,35.269,-97.424,0.2,24.694,9,338,-0.63,-0.265,10.06,0
414,35.269,-97.424,359.8,24.678,8,337,-0.447,-0.086,9.443,1
415,35.27,-97.424,359.5,24.756,3,338,-0.616,-0.131,9.371,0
416,35.27,-97.424,0,23.931,3,329,-0.607,-0.142,9.352,0
417,35.27,-97.424,0,24.157,3,328,-0.479,0.079,9.431,0
418,35.27,-97.424,0,24.433,3,326,-0.178,-0.135,9.524,0
419,35.27,-97.424,0,24.566,3,325,-0.216,0.226,9.444,0
420,35.271,-97.424,0,24.74,3,323,-0.24,0.093,9.355,0
421,35.271,-97.424,0,24.845,3,322,-0.373,0.229,9.342,0
422,35.271,-97.424,0.2,25.079,3,321,-0.094,0.04,9.47,0
423,35.271,-97.424,0.4,25.2,3,317,-0.379,0.002,9.684,0
424,35.272,-97.424,0.4,25.293,3,316,0.051,-0.101,9.676,0
425,35.272,-97.424,0.4,25.43,3,315,-0.163,0.196,9.578,0
426,35.272,-97.424,0.4,25.537,3,314,-0.206,-0.124,9.638,0
427,35.272,-97.424,0.1,25.535,4,313,-0.305,-0.063,9.726,0
428,35.272,-97.424,359.9,25.598,3,312,-0.283,0.053,9.883,0
429,35.273,-97.424,359.8,25.593,3,311,-0.247,0.068,9.953,0
430,35.273,-97.424,359.5,25.555,3,310,-0.164,0.175,10.171,0
431,35.273,-97.424,359.4,25.362,3,310,-0.235,-0.021,10.253,0
432,35.273,-97.424,359.4,25,3,310,-0.346,0.435,9.719,0
433,35.274,-97.424,359.7,24.451,4,309,-0.276,0.371,10.037,0
434,35.274,-97.424,0,23.942,3,310,-0.363,0.185,9.562,0
435,35.274,-97.424,0.1,23.453,3,310,1.279,0.877,9.52,1
436,35.274,-97.424,0.7,22.491,3,310,1.521,0.221,8.91,0
437,35.274,-97.424,0.6,21.081,3,310,0.144,-0.635,10.385,0
438,35.275,-97.424,0.4,19.721,3,310,-0.854,0.01,9.177,0
439,35.275,-97.424,0.6,19.88,3,310,-0.93,-0.134,9.643,1
440,35.275,-97.424,1.2,20.304,3,309,-0.515,-0.094,10.369,0
441,35.275,-97.424,1.3,20.521,3,309,-0.411,0.172,10.173,0
442,35.275,-97.424,1.4,20.201,3,308,-0.29,0.018,9.749,0
443,35.275,-97.424,1.2,19.91,3,308,-0.247,-0.137,9.606,0
444,35.276,-97.424,0.9,19.52,3,308,-0.147,-0.123,9.648,0
445,35.276,-97.424,0.4,19.11,3,307,-0.186,-0.2,9.657,0
447,35.276,-97.424,0.2,18.761,3,307,-0.197,-0.185,9.755,0
447,35.276,-97.424,0.2,18.761,3,307,-0.197,-0.185,9.755,0
448,35.276,-97.424,359.8,18.43,3,307,1.217,0.742,10.331,0
449,35.276,-97.424,359.8,17.39,4,307,-0.404,0.149,10.154,0
450,35.276,-97.424,0.1,16.21,3,307,-0.848,-0.327,9.582,0
451,35.277,-97.424,0,15.78,3,307,-0.89,-0.489,9.84,0
452,35.277,-97.424,359.4,15.97,3,307,-1.593,-0.502,9.476,0
453,35.277,-97.424,359.4,15.97,3,307,-1.553,-0.588,9.507,0
454,35.277,-97.424,359.4,16.58,4,307,-1.641,-0.584,9.428,0
455,35.277,-97.424,358.9,18.31,3,307,-1.758,-0.663,9.603,0
456,35.278,-97.424,359.1,19.11,3,308,-1.895,-0.515,9.497,0
457,35.278,-97.424,359.7,20.061,3,308,-2.003,-0.409,9.323,0
458,35.278,-97.424,359.7,21.217,3,310,-1.991,-0.696,9.642,0
459,35.278,-97.424,359.6,22.245,3,313,-1.917,-0.619,9.435,0
460,35.278,-97.424,0.1,22.941,3,313,-1.094,-0.236,9.419,0
461,35.279,-97.424,0.2,23.149,3,314,-0.772,-0.407,9.789,0
462,35.279,-97.424,0.1,23.149,3,314,-0.744,-0.511,9.731,0
463,35.279,-97.424,0.1,23.078,3,314,-0.768,-0.555,9.933,0
464,35.279,-97.424,359.9,23.009,3,315,-0.853,-0.423,9.74,0
465,35.279,-97.424,359.9,22.875,4,316,-0.837,-0.16,9.522,0
466,35.28,-97.424,0,22.972,3,316,-0.922,-0.248,9.106,1
467,35.28,-97.424,0.2,23.07,4,316,-0.81,-0.38,9.223,1
468,35.28,-97.424,0.2,22.92,3,316,-0.855,-0.22,9.67,0
469,35.28,-97.424,0.4,23.06,3,316,-0.517,-0.087,9.738,1
470,35.28,-97.424,0.4,22.991,3,316,-0.593,-0.4,9.489,0
471,35.281,-97.424,0.1,23.1,3,316,-0.646,-0.37,9.634,0
472,35.281,-97.424,0,23.28,3,315,-0.582,-0.477,9.973,0
473,35.281,-97.424,0.1,23.47,4,316,-0.298,-0.045,9.271,0
474,35.281,-97.424,0.2,23.35,3,316,-0.407,-0.328,9.453,0
475,35.281,-97.424,0.1,23.18,3,317,-0.485,-0.409,9.791,0
476,35.282,-97.424,359.9,23.1,3,317,-0.562,-0.27,9.317,0
477,35.282,-97.424,359.8,23.03,3,318,-0.429,-0.017,9.172,0
478,35.282,-97.424,359.9,22.95,3,318,-0.573,-0.202,9.953,0
479,35.282,-97.424,0.1,22.89,3,318,-0.606,-0.235,9.626,0
480,35.282,-97.424,0.3,22.91,3,318,-0.578,-0.17,9.687,0
481,35.283,-97.424,0.2,22.97,3,318,-0.529,-0.329,9.408,0
482,35.283,-97.424,0.1,23.07,3,317,-0.58,-0.24,9.847,0
483,35.283,-97.424,0,23.04,3,318,-0.518,-0.189,9.176,0
484,35.283,-97.424,359.9,22.99,3,317,-0.682,-0.187,9.861,0
485,35.284,-97.424,0,22.96,3,318,-0.535,0.036,9.688,0
486,35.284,-97.424,0.1,22.88,3,318,-0.447,-0.114,9.161,0
487,35.284,-97.424,0.3,22.831,4,318,-0.572,-0.131,9.855,1
488,35.284,-97.424,0.2,22.953,3,318,-0.588,-0.096,9.661,0
489,35.284,-97.424,0.1,23.153,3,317,-0.594,-0.061,9.513,0
490,35.285,-97.424,0.2,23.404,3,317,-0.698,-0.222,9.294,0
491,35.285,-97.424,0.1,23.563,3,317,-0.706,-0.101,9.418,0
492,35.285,-97.424,0.1,23.673,4,316,-0.506,-0.245,9.533,0
493,35.285,-97.424,0,23.783,3,315,-0.586,-0.081,9.608,0
494,35.285,-97.424,0,23.934,3,315,-0.59,0.094,9.637,0
495,35.286,-97.424,0.5,24.023,3,315,-0.432,-0.166,9.552,0
496,35.286,-97.424,0.2,24.144,3,315,-0.442,-0.196,9.579,0
497,35.286,-97.424,0.1,24.313,3,314,-0.675,-0.159,9.617,0
498,35.286,-97.424,359.9,24.45,3,315,-0.606,-0.07,9.85,0
499,35.287,-97.424,359.9,24.51,3,314,-0.536,-0.081,9.88,0
500,35.287,-97.424,359.9,24.44,3,314,-0.568,-0.411,10.459,0
501,35.287,-97.424,359.9,24.341,3,314,-0.197,0.119,9.458,0
502,35.287,-97.424,359.7,24.134,3,315,-0.352,0.088,9.976,0
503,35.287,-97.424,0,23.655,3,314,-0.31,-0.167,9.625,0
504,35.288,-97.424,0.2,23.063,3,315,-0.175,-0.207,9.827,0
506,35.288,-97.424,359.9,22.584,3,315,-0.234,-0.132,9.888,0
506,35.288,-97.424,359.9,22.584,3,315,-0.234,-0.132,9.888,0
507,35.288,-97.424,359.8,22.134,4,316,-0.25,-0.057,10.077,0
508,35.288,-97.424,359.9,21.704,3,316,-0.325,0.009,9.803,0
509,35.288,-97.424,0,21.255,3,317,-0.309,0,9.809,0
510,35.289,-97.424,0.1,20.736,3,317,-0.298,-0.149,9.889,0
511,35.289,-97.424,0.1,20.204,3,317,-0.301,-0.109,9.939,0
512,35.289,-97.424,0.1,19.694,3,318,-0.251,0.049,9.564,0
513,35.289,-97.424,0.1,19.125,4,318,0.939,0.576,9.965,0
514,35.289,-97.424,0.2,17.835,3,318,1.003,0.684,10.185,0
515,35.289,-97.424,0.4,16.14,3,318,-0.258,0.001,9.728,0
516,35.29,-97.424,1,15.058,3,319,0.531,0.379,10.086,0
517,35.29,-97.424,1.7,12.877,3,319,0.451,0.187,9.571,0
518,35.29,-97.424,1.5,12.158,3,320,-0.351,-0.095,9.947,0
519,35.29,-97.424,1.2,11.729,3,321,-0.237,-0.121,9.639,0
520,35.29,-97.424,0.7,11.292,3,321,-0.226,0,9.644,0
521,35.29,-97.424,0.3,10.684,3,322,0.46,0.434,9.926,0
522,35.29,-97.424,0.2,9.61,3,322,-0.422,-0.02,9.356,1
523,35.29,-97.424,0.2,9.2807,3,323,-0.596,-0.061,9.804,1
524,35.29,-97.424,0.2,8.6907,3,324,-1.034,-0.358,9.682,0
525,35.291,-97.424,0,9.0081,3,324,-1.499,-0.462,9.704,0
526,35.291,-97.424,0.2,9.5347,4,325,-1.389,-0.492,9.639,0
527,35.291,-97.424,0.4,10.1,3,325,-1.292,-0.335,9.471,0
528,35.291,-97.424,0.3,10.395,3,325,-1.499,-0.405,9.375,0
529,35.291,-97.424,0.3,10.942,3,325,-1.498,-0.608,9.549,0
530,35.291,-97.424,0.3,11.74,3,324,-1.76,-0.816,9.764,1
531,35.291,-97.424,0,12.83,3,325,-1.681,-0.678,9.397,0
532,35.291,-97.424,359.4,13.94,4,325,-1.632,-0.76,9.626,0
533,35.291,-97.424,358.7,15.091,3,325,-1.505,-0.584,9.656,0
534,35.292,-97.424,358.1,16.16,3,326,-1.527,-0.636,9.816,1
535,35.292,-97.424,358.3,17.08,3,327,-1.536,-0.004,9.375,0
536,35.292,-97.424,359.2,17.88,3,327,-1.392,-0.334,9.598,0
537,35.292,-97.424,359.8,18.68,3,327,-0.884,-0.324,9.735,0
538,35.292,-97.424,0.1,18.99,3,326,-0.91,-0.244,9.524,0
539,35.292,-97.424,0,19,3,326,-0.934,-0.221,9.301,0
540,35.293,-97.424,359.9,19.61,3,327,-0.95,-0.447,9.587,0
541,35.293,-97.424,0.4,20.1,3,326,-0.914,-0.695,9.852,0
542,35.293,-97.424,0,20.53,3,326,-0.886,-0.438,9.436,0
543,35.293,-97.424,0,20.89,3,326,-1.152,-0.548,9.517,0
544,35.293,-97.424,0,21.33,3,326,-1.167,-0.384,9.521,0
545,35.293,-97.424,0,21.8,3,327,-0.87,-0.637,9.359,0
546,35.294,-97.424,0.1,22.13,3,327,-0.678,-0.465,9.978,0
547,35.294,-97.424,359.9,22.22,4,327,-0.915,-0.401,9.577,0
548,35.294,-97.424,0,22.45,3,327,-0.665,-0.302,9.511,0
549,35.294,-97.424,0.2,22.631,3,328,-0.432,-0.25,9.363,0
550,35.294,-97.424,0.3,22.721,3,328,-0.798,-0.365,9.691,0
551,35.295,-97.424,0.1,22.692,3,329,-0.667,-0.4,9.33,0
552,35.295,-97.424,0.1,22.662,4,329,-0.862,-0.314,9.293,0
553,35.295,-97.424,0.2,22.722,3,329,-0.849,-0.416,9.825,0
554,35.295,-97.424,0.2,22.762,3,329,-0.734,-0.395,9.596,0
555,35.295,-97.424,0.1,22.802,3,330,-0.522,-0.201,9.748,0
556,35.296,-97.424,0,22.652,3,330,-0.425,-0.092,9.412,0
557,35.296,-97.424,0.2,22.522,3,330,-0.582,-0.352,9.597,0
558,35.296,-97.424,0.1,22.412,3,331,-0.401,-0.317,9.613,0
559,35.296,-97.424,359.9,22.312,3,331,-0.635,-0.149,10.02,0
560,35.297,-97.424,0.2,22.081,3,331,-0.619,-0.143,9.486,0
561,35.297,-97.424,0.4,21.94,3,331,-0.511,-0.206,9.684,0
562,35.297,-97.424,0.4,21.87,3,331,-0.564,-0.344,9.9,0
563,35.297,-97.424,0.4,21.84,3,331,-0.735,-0.323,9.675,0
564,35.297,-97.424,0.3,21.91,3,330,-0.829,-0.367,9.818,0
565,35.297,-97.424,0.2,22.12,3,330,-0.697,-0.372,9.789,0
566,35.298,-97.424,0.1,22.4,3,330,-0.761,-0.201,10.101,0
568,35.298,-97.424,0.2,22.57,4,330,-0.709,-0.116,9.573,1
568,35.298,-97.424,0.2,22.57,4,330,-0.709,-0.116,9.573,1
569,35.298,-97.424,0.3,22.651,3,330,-0.723,-0.368,9.464,0
570,35.298,-97.424,0.3,22.711,3,331,-0.736,-0.541,9.728,0
571,35.298,-97.424,0.4,22.781,3,331,-0.759,-0.396,9.62,0
572,35.299,-97.424,0,22.831,3,331,-0.355,-0.151,9.877,0
573,35.299,-97.424,359.9,22.701,4,331,-0.456,-0.215,9.494,0
574,35.299,-97.424,0.1,22.433,3,330,-0.689,-0.322,10.053,0
575,35.299,-97.424,0,22.314,3,331,-0.655,-0.27,9.93,0
576,35.3,-97.424,0,22.243,3,331,-0.676,-0.412,9.557,0
577,35.3,-97.424,359.9,22.034,3,332,-0.466,-0.4,9.878,0
578,35.3,-97.424,359.8,21.874,3,333,-0.65,-0.131,9.322,0
579,35.3,-97.424,0.1,21.724,3,333,-0.729,-0.249,9.636,0
580,35.301,-97.424,0.2,21.565,3,334,-0.703,-0.147,9.496,1
581,35.301,-97.424,0.2,21.454,3,334,-0.835,-0.301,8.984,0
582,35.301,-97.424,0.2,21.533,3,334,-0.812,-0.219,9.483,1
583,35.301,-97.424,0.1,21.721,3,335,-0.998,-0.433,9.897,1
584,35.301,-97.424,0.1,21.981,3,335,-0.676,-0.149,9.527,0
585,35.301,-97.424,0.2,22.062,4,336,-0.889,-0.185,9.787,0
586,35.302,-97.424,0,22.122,3,336,-0.659,-0.39,9.633,1
587,35.302,-97.424,0,22.221,4,337,-0.825,-0.253,9.812,0
588,35.302,-97.424,359.8,22.322,3,337,-0.678,-0.396,9.77,0
589,35.302,-97.424,0,22.343,3,338,-0.738,-0.184,9.764,0
590,35.302,-97.424,0.2,22.382,3,338,-0.745,-0.102,9.806,0
591,35.303,-97.424,0.3,22.532,4,338,-0.855,0.028,9.545,0
592,35.303,-97.424,0.2,22.662,3,339,-0.747,-0.502,9.97,0
593,35.303,-97.424,0.2,22.792,3,339,-0.642,0.001,9.176,0
594,35.303,-97.424,0.3,22.842,3,339,-0.504,-0.067,9.827,0
595,35.304,-97.424,0.4,22.691,3,339,-0.46,-0.398,9.562,0
596,35.304,-97.424,0.5,22.482,3,339,-0.485,-0.152,9.474,0
597,35.304,-97.424,0.7,22.232,3,340,-0.59,0.181,8.934,0
598,35.304,-97.424,0.9,21.991,3,340,-0.616,-0.059,9.863,0
599,35.304,-97.424,1.2,21.842,3,340,-0.529,-0.104,9.659,0
600,35.305,-97.424,1.4,21.731,3,340,-0.482,-0.235,9.4,0
601,35.305,-97.424,1.2,21.661,3,340,-0.541,-0.301,9.266,1
602,35.305,-97.424,0.9,21.58,3,340,-0.459,-0.4,9.919,1
603,35.305,-97.424,0.9,21.54,4,340,-0.487,-0.314,9.729,0
604,35.305,-97.424,0.2,21.38,3,339,-0.54,-0.154,9.689,0
605,35.305,-97.424,359.9,21.36,3,338,-0.564,-0.207,9.941,0
606,35.306,-97.424,359.6,21.2,3,338,-0.695,-0.179,9.7,0
607,35.306,-97.424,359.2,21.42,3,338,-0.772,-0.337,9.523,0
608,35.306,-97.424,358.7,21.66,3,338,-0.92,-0.184,9.634,0
609,35.306,-97.424,358.5,22.05,3,339,-0.906,-0.105,9.898,0
610,35.306,-97.424,358.8,22.35,3,339,-0.902,0.11,9.833,1
611,35.307,-97.424,359.7,22.24,3,339,-0.928,0.012,9.756,1
612,35.307,-97.424,0.2,22.61,3,339,-0.853,-0.198,9.686,1
613,35.307,-97.424,0.5,22.77,3,339,-0.857,-0.213,9.847,1
614,35.307,-97.424,0.3,22.83,3,340,-0.814,-0.251,9.811,1
615,35.307,-97.424,0,23.24,3,340,-0.476,-0.178,9.859,1
616,35.308,-97.424,359.8,23.18,3,340,-0.322,0.11,9.811,1
617,35.308,-97.424,359.8,22.9,3,340,-0.383,-0.059,9.867,1
618,35.308,-97.424,0,22.67,3,340,-0.51,-0.165,9.725,0
619,35.308,-97.424,0.2,22.62,3,340,-0.537,-0.088,9.68,0
620,35.309,-97.424,0.3,22.72,3,339,-0.575,-0.273,9.496,0
621,35.309,-97.424,0.1,22.931,3,339,-0.547,-0.189,9.471,0
622,35.309,-97.424,359.8,22.942,3,339,-0.514,-0.308,9.952,0
623,35.309,-97.424,359.5,23.112,3,338,-0.4,-0.122,9.681,0
624,35.309,-97.424,359.3,23.252,3,338,-0.329,0.308,9.478,0
625,35.31,-97.424,359.4,23.072,3,337,-0.41,0.431,9.697,1
626,35.31,-97.424,0.4,22.793,3,336,-0.369,-0.115,9.698,1
627,35.31,-97.424,0.7,22.862,3,336,-0.335,-0.173,9.664,1
628,35.31,-97.424,0.4,22.941,3,335,-0.356,-0.092,9.851,1
629,35.31,-97.424,0.2,23.042,3,335,-0.519,0.134,9.469,1
631,35.311,-97.424,359.9,23.112,3,335,-0.513,0.004,9.976,1
631,35.311,-97.424,359.9,23.112,3,335,-0.513,0.004,9.976,1
632,35.311,-97.424,0.3,23.122,3,335,-0.522,-0.217,9.595,1
633,35.311,-97.424,0.2,23.211,3,335,-0.544,-0.124,9.752,1
634,35.311,-97.424,359.9,23.25,3,334,-0.57,-0.143,9.853,1
635,35.311,-97.424,0.1,23.341,3,334,-0.533,-0.196,9.77,1
636,35.312,-97.424,0,23.07,3,333,-0.569,-0.112,10.141,0
637,35.312,-97.424,359.9,23.121,3,334,-0.343,-0.075,9.76,0
638,35.312,-97.424,0,22.851,3,334,-0.258,0.141,9.562,0
639,35.312,-97.424,0.2,22.27,3,334,-0.444,-0.063,9.747,0
640,35.313,-97.424,0.2,22.01,3,334,-0.493,-0.138,9.846,0
641,35.313,-97.424,0,22.03,3,334,-0.609,-0.244,9.655,0
642,35.313,-97.424,359.8,22.15,3,334,-0.631,-0.259,9.936,0
643,35.313,-97.424,0,22.22,3,334,-0.631,-0.294,9.641,0
644,35.313,-97.424,0,22.32,3,334,-0.558,-0.248,9.938,0
645,35.314,-97.424,0.1,22.5,3,335,-0.536,-0.418,9.818,0
646,35.314,-97.424,359.9,22.49,3,335,-0.582,-0.152,9.595,0
647,35.314,-97.424,359.8,22.46,3,335,-0.575,-0.201,9.741,0
648,35.314,-97.424,359.8,22.32,3,334,-0.68,-0.033,9.718,0
649,35.314,-97.424,0.4,22.331,3,334,-0.663,-0.089,9.98,0
650,35.315,-97.424,0.3,22.291,3,333,-0.633,-0.163,9.594,0
651,35.315,-97.424,0.2,22.161,3,334,-0.612,-0.26,9.693,0
652,35.315,-97.424,0.2,22.091,3,334,-0.575,-0.258,9.92,0
653,35.315,-97.424,0.1,22.031,3,335,-0.6,-0.231,9.596,0
654,35.315,-97.424,0,21.94,3,335,-0.648,-0.389,9.919,0
655,35.316,-97.424,359.6,21.97,3,335,-0.633,-0.247,9.739,0
656,35.316,-97.424,359.7,21.871,3,336,-0.602,-0.086,9.877,0
657,35.316,-97.424,359.9,21.73,3,336,-0.634,-0.059,9.768,1
658,35.316,-97.424,0.4,21.671,3,336,-0.633,-0.167,9.793,1
659,35.316,-97.424,0.4,21.591,3,336,-0.544,-0.181,9.712,1
660,35.317,-97.424,0.2,21.491,3,336,-0.61,-0.327,9.828,1
661,35.317,-97.424,0,21.411,3,337,-0.582,-0.045,9.502,1
662,35.317,-97.424,359.9,21.371,3,337,-0.608,-0.024,9.75,1
663,35.317,-97.424,0,21.35,3,337,-0.316,-0.03,9.697,1
664,35.317,-97.424,0,21.03,3,337,-0.281,-0.013,9.631,1
665,35.318,-97.424,0,20.501,3,338,-0.276,0.004,9.653,1
666,35.318,-97.424,359.9,20.031,3,338,-0.246,-0.051,9.742,1
667,35.318,-97.424,359.8,19.571,3,338,-0.153,-0.048,9.575,0
668,35.318,-97.424,0,19.002,3,338,-0.282,0.079,9.816,0
669,35.318,-97.424,0.3,18.452,3,338,0.515,0.731,9.689,0
670,35.318,-97.424,0.6,17.452,3,339,-0.414,0.251,9.836,0
671,35.319,-97.424,1.3,16.252,3,339,-0.056,-0.055,9.343,0
672,35.319,-97.424,1.5,15.671,3,339,-0.344,0.016,9.791,0
673,35.319,-97.424,1.6,15.051,3,340,1.236,0.628,10.084,0
674,35.319,-97.424,1.4,14.212,3,340,1.501,0.698,9.946,0
