time,lat,lng,bearing,spd,acc,alt,accx,accy,accz,stable,
0,35.211,-97.445,270,11.33,3,322,0.606,11.142,0.897,0
1,35.211,-97.445,270,11.42,3,322,1.007,11.236,0.787,0
2,35.211,-97.445,270.1,11.32,3,322,1.535,10.912,0.719,0
3,35.211,-97.445,270.2,10.63,3,322,1.143,10.948,0.839,0
4,35.211,-97.445,270.4,9.56,3,322,2.345,11,1.321,0
5,35.211,-97.445,270.6,9.0209,3,321,2.57,10.891,1.02,0
6,35.211,-97.445,270.8,7.2001,3,321,4.216,10.681,1.257,0
7,35.211,-97.445,270.8,4.89,3,321,1.553,10.845,1.005,0
8,35.211,-97.445,271.5,2.4605,3,322,1.135,11.004,1.066,0
9,35.211,-97.445,271.3,1.281,3,321,0.548,10.925,1.039,0
10,35.211,-97.445,271.3,1.281,3,321,0.616,10.966,1.096,0
11,35.211,-97.445,271.3,0.49041,3,321,1.253,10.904,1.053,0
12,35.211,-97.445,271.3,0.49041,3,321,0.558,10.937,0.981,0
13,35.211,-97.445,271.3,0.49041,3,321,0.242,10.91,1.044,0
14,35.211,-97.445,271.3,0.49041,3,321,0.537,10.93,1.012,0
15,35.211,-97.445,272.9,0.37054,3,322,0.498,10.91,1.029,0
16,35.211,-97.445,272.9,0.37054,3,322,-0.919,10.994,1.087,0
17,35.211,-97.445,270.6,1.34,3,321,0.588,11.393,0.769,0
18,35.211,-97.445,271.5,2.4202,3,322,-2.17,10.865,1.241,0
19,35.211,-97.446,271.2,4.6,3,322,-1.667,11.017,1.194,0
20,35.211,-97.446,270.7,6.8903,3,322,-1.199,9.855,0.954,0
21,35.211,-97.446,269.9,8.8908,3,322,-0.298,11.312,1.043,0
22,35.211,-97.446,269.6,9.8218,3,323,-0.176,10.882,1.106,0
23,35.211,-97.446,269.7,10.86,3,323,-0.544,11.041,0.846,0
24,35.211,-97.446,269.9,11.66,3,322,-0.226,10.761,0.878,0
25,35.211,-97.446,269.7,12.56,3,323,-0.178,11.035,0.917,0
26,35.211,-97.446,269.9,13.36,3,323,0.312,10.663,1.003,0
27,35.211,-97.446,270,14.06,3,323,-0.059,11.281,0.708,0
28,35.211,-97.447,270.1,14.49,3,323,0.204,10.403,1.064,0
29,35.211,-97.447,269.9,14.501,3,324,0.732,10.815,0.816,0
30,35.211,-97.447,269.9,14.8,3,324,0.79,11.146,0.817,0
31,35.211,-97.447,270.1,14.52,3,324,0.809,10.98,0.698,0
32,35.211,-97.447,270.2,14.14,3,324,1.175,10.947,0.865,0
33,35.211,-97.447,270.2,13.79,3,324,1.051,10.931,0.771,0
34,35.211,-97.448,270.2,13.37,3,323,1.074,11.159,0.917,0
35,35.211,-97.448,270.1,13.01,3,324,0.545,10.765,0.706,0
36,35.211,-97.448,269.8,12.7,3,324,0.799,10.618,1.088,0
38,35.211,-97.448,269.6,12.82,3,324,0.697,10.903,1.354,0
38,35.211,-97.448,269.6,12.82,3,324,0.697,10.903,1.354,0
39,35.211,-97.448,269.4,12.87,3,324,0.694,10.701,0.826,0
40,35.211,-97.448,269.2,12.76,3,323,0.294,10.549,0.826,0
41,35.211,-97.448,268.8,12.68,3,323,0.594,10.696,1.134,0
42,35.211,-97.449,268.8,12.85,3,323,0.912,10.912,1.059,0
43,35.211,-97.449,269.3,12.88,3,323,3.791,10.759,1.146,0
44,35.211,-97.449,270,11.8,3,323,1.093,10.838,0.893,0
45,35.211,-97.449,270.2,9.81,3,323,1.344,11.362,1.379,0
46,35.211,-97.449,270.3,8.82,3,323,0.675,10.944,0.916,0
47,35.211,-97.449,270.3,8.3401,3,323,0.23,10.892,1.06,0
48,35.211,-97.449,270.2,8.29,3,324,0.174,10.736,0.822,0
49,35.211,-97.449,270,8.3802,3,323,0.106,11.081,0.988,0
50,35.211,-97.449,270,8.7903,3,323,0.43,11.625,0.616,0
51,35.211,-97.45,269.9,9.21,3,324,0.097,11.222,0.729,0
52,35.211,-97.45,270.1,9.45,3,323,0.476,10.89,0.869,0
53,35.211,-97.45,270.3,9.76,3,323,0.245,11.077,0.872,0
54,35.211,-97.45,270.1,9.91,3,323,0.264,10.649,0.88,0
55,35.211,-97.45,270.2,10.18,3,323,0.573,11.011,1.096,0
56,35.211,-97.45,270.4,10.47,3,323,0.3,10.874,1.035,0
57,35.211,-97.45,270.5,10.68,3,323,0.173,10.741,0.997,0
58,35.211,-97.45,270.3,11.32,3,323,0.18,10.638,1.208,0
59,35.211,-97.451,270.2,11.73,3,323,0.353,10.747,0.89,0
60,35.211,-97.451,270,11.98,3,323,0.539,11.166,0.979,0
61,35.211,-97.451,269.7,12.13,3,323,-0.147,9.465,0.621,0
62,35.211,-97.451,270,12.43,3,323,0.307,11.063,1.136,0
63,35.211,-97.451,270.1,12.71,3,323,0.279,11.127,1.119,0
64,35.211,-97.451,270.4,13.45,3,323,0.325,11.026,1.181,0
65,35.211,-97.451,270.5,13.42,3,323,0.297,11.103,0.957,0
66,35.211,-97.452,270.2,13.63,3,323,0.913,10.588,0.872,0
67,35.211,-97.452,269.9,13.56,3,323,0.557,10.604,1.03,0
68,35.211,-97.452,269.7,13.251,3,323,0.493,10.992,1.239,0
69,35.211,-97.452,269.9,13.57,3,323,0.408,10.886,1.095,0
70,35.211,-97.452,270.2,14.121,3,322,0.711,10.966,1.096,0
71,35.211,-97.452,270,14.14,3,322,0.476,10.761,1.512,0
72,35.211,-97.452,270.2,13.9,3,322,1.189,10.746,1.263,0
73,35.211,-97.453,270.3,13.7,3,322,0.987,10.889,0.959,0
74,35.211,-97.453,269.3,13.371,3,322,1.096,10.779,1.222,0
75,35.211,-97.453,271,13.41,3,322,1.087,11.229,1.073,0
76,35.211,-97.453,270.6,13.14,3,322,0.373,10.76,1.323,0
77,35.211,-97.453,270.5,12.93,3,321,0.823,11.042,1.382,0
78,35.211,-97.453,270.1,13,3,321,0.516,11.13,1.233,0
79,35.211,-97.453,269.5,13.27,3,321,0.281,10.634,1.218,0
80,35.211,-97.454,269.5,13.76,3,320,0.81,10.955,1.228,0
81,35.211,-97.454,269.5,14.02,3,320,0.624,10.825,1.03,0
82,35.211,-97.454,270,13.99,3,319,0.503,10.961,1.102,0
83,35.211,-97.454,270,14.27,3,319,0.486,11.131,1.117,0
84,35.211,-97.454,269.9,14.32,3,319,0.919,11.029,1.018,0
85,35.211,-97.454,270,14.54,3,319,0.467,11.748,1.207,0
86,35.211,-97.455,270,14.5,3,319,0.334,11.986,1.012,0
88,35.211,-97.455,270,14.58,3,318,0.499,10.909,0.74,0
88,35.211,-97.455,270,14.58,3,318,0.499,10.909,0.74,0
89,35.211,-97.455,270.3,14.62,3,319,0.61,11.095,1.005,0
90,35.211,-97.455,270.6,14.61,3,319,1.025,11.259,0.933,0
91,35.211,-97.455,270.1,14.331,3,319,1.035,10.951,1.076,0
92,35.211,-97.455,269.9,13.662,3,319,0.881,10.986,1.004,0
93,35.211,-97.456,270.1,13.23,3,319,0.246,10.895,0.852,0
94,35.211,-97.456,270.6,12.8,3,319,0.089,10.942,0.864,0
95,35.211,-97.456,270.9,12.664,3,319,0.113,11.279,1.003,0
96,35.211,-97.456,270.7,12.773,3,320,0.067,10.581,1.142,0
97,35.211,-97.456,270.6,12.851,3,320,0.063,10.692,1.068,0
98,35.211,-97.456,270.6,13.34,3,320,-0.018,10.828,1.117,0
99,35.211,-97.456,270.6,13.82,3,321,0.074,11.325,1.281,0
100,35.211,-97.457,269.7,14.23,3,321,0.922,11.121,1.114,0
101,35.211,-97.457,270.2,14.99,3,320,0.736,11.092,0.785,0
102,35.211,-97.457,269.9,14.7,3,321,1.007,11.077,0.791,0
103,35.211,-97.457,269.9,14.2,3,321,0.694,10.962,0.855,0
104,35.211,-97.457,270.2,13.92,3,321,0.82,10.843,0.922,0
105,35.211,-97.457,270.5,13.73,3,320,0.642,10.756,0.871,0
106,35.211,-97.457,270.7,13.44,3,320,0.924,10.887,0.851,0
107,35.211,-97.458,270.9,13.14,3,320,0.37,11.369,1.18,0
108,35.211,-97.458,270.5,12.8,3,320,1.101,10.732,1.012,0
109,35.211,-97.458,269,12.54,3,321,0.997,10.917,1.337,0
110,35.211,-97.458,268.3,12.1,3,321,1.731,10.81,1.139,0
111,35.211,-97.458,266.8,11.62,3,321,2.786,10.996,0.763,0
112,35.211,-97.458,264.5,10.61,3,320,2.806,10.674,0.708,0
113,35.211,-97.458,267.7,7.6502,3,320,2.371,10.918,0.628,0
114,35.211,-97.459,270.2,6.9603,3,321,1.705,10.886,0.603,0
115,35.211,-97.459,274.4,6.0607,3,320,1.709,10.917,0.779,0
116,35.211,-97.459,273.4,4.4007,3,320,1.842,10.719,0.732,0
117,35.211,-97.459,264.5,3.21,3,320,1.108,10.913,0.773,0
118,35.211,-97.459,264.5,3.21,3,320,1.08,10.969,0.836,0
119,35.211,-97.459,268.6,1.5903,3,320,0.062,10.945,0.783,0
120,35.211,-97.459,268.6,1.5903,3,320,-2.36,11.103,0.896,0
121,35.211,-97.459,272.6,3.48,3,321,-0.858,11.069,0.983,0
122,35.211,-97.459,270.6,5.0814,3,322,0.323,10.489,0.806,0
123,35.211,-97.459,270.3,5.6101,3,322,-0.004,10.634,1.865,0
124,35.211,-97.459,262.3,6.08,3,322,0.858,11.54,3.927,0
125,35.211,-97.459,246,6.7306,3,322,0.492,10.546,5.193,0
126,35.211,-97.459,221.2,7.1803,3,322,0.65,10.4,5.068,0
127,35.211,-97.459,196.1,7.5222,3,321,0.009,11.185,0.961,0
128,35.211,-97.459,180.5,8.38,3,322,-0.761,10.415,0.887,0
129,35.211,-97.459,179.4,9.3401,3,322,-0.327,10.899,0.794,0
130,35.211,-97.459,178.7,10.27,3,322,-0.173,10.713,1.485,0
131,35.211,-97.459,177.3,11.16,3,322,0.114,10.537,0.567,0
132,35.211,-97.459,175.2,11.91,3,320,-0.103,11.058,0.477,0
133,35.21,-97.459,176.4,12.79,3,321,-0.162,10.342,0.848,0
134,35.21,-97.459,177.5,12.95,3,321,0.07,10.925,0.922,0
135,35.21,-97.459,180,13.72,3,321,0.692,10.946,1.188,0
136,35.21,-97.459,179.9,13.93,3,322,0.397,10.79,1.103,0
137,35.21,-97.459,180,14.11,3,322,0.37,10.807,0.808,0
138,35.21,-97.459,180.1,14.2,3,323,0.403,10.885,0.856,0
139,35.21,-97.459,180.1,14.28,3,323,0.935,10.687,0.989,0
141,35.21,-97.459,179.9,14.31,3,324,1.034,12.004,1.03,0
141,35.21,-97.459,179.9,14.31,3,324,1.034,12.004,1.03,0
142,35.209,-97.459,179.4,13.94,3,324,0.731,10.692,1.003,0
143,35.209,-97.459,180.7,13.86,3,323,0.627,10.638,0.875,0
144,35.209,-97.459,180.1,13.85,3,324,0.209,11.281,0.957,0
145,35.209,-97.459,179.7,13.84,3,324,0.474,11.21,0.866,0
146,35.209,-97.459,180.5,13.88,3,324,0.48,10.567,0.992,0
147,35.209,-97.459,180.4,13.95,3,324,0.542,10.749,0.939,0
148,35.209,-97.459,180,14.09,3,325,0.498,10.962,0.997,0
149,35.209,-97.459,180.1,14.14,3,325,0.411,11.053,1.052,0
150,35.208,-97.459,179.9,14.2,3,324,0.155,11.049,0.961,0
151,35.208,-97.459,179.8,14.29,3,324,0.398,10.738,0.841,0
152,35.208,-97.459,179.7,14.37,3,325,0.625,10.706,1,0
153,35.208,-97.459,180,14.43,3,324,0.245,10.78,0.965,0
154,35.208,-97.459,180.5,14.44,3,324,0.274,10.955,0.872,0
155,35.208,-97.459,180.2,14.11,3,324,0.339,10.541,0.891,0
156,35.208,-97.459,180.7,14.66,3,324,0.472,10.955,0.783,0
157,35.207,-97.459,180.2,14.89,3,324,0.46,11.124,0.799,0
158,35.207,-97.459,179,15.35,3,324,0.557,10.718,0.965,0
159,35.207,-97.459,180.6,15.13,4,323,0.315,11.019,0.957,0
160,35.207,-97.459,180.2,15.08,3,324,0.379,11.007,0.789,0
161,35.207,-97.459,180,15.08,3,324,0.517,10.751,0.954,0
162,35.207,-97.459,179.9,15.02,3,324,0.529,11.144,0.911,0
163,35.207,-97.459,179.8,15.17,3,324,0.314,11.035,1.17,0
164,35.207,-97.459,180.6,15.24,3,324,0.546,10.761,1.015,0
165,35.206,-97.459,180.9,15.22,3,324,0.386,11.118,0.98,0
166,35.206,-97.459,179.8,15.53,3,325,0.756,10.942,0.897,0
167,35.206,-97.459,178.9,15.08,3,326,1.044,11.115,1.136,0
168,35.206,-97.459,179,15.04,3,326,0.889,10.22,1.014,0
169,35.206,-97.459,179.4,15.162,3,327,1.12,11.18,1.028,0
170,35.206,-97.459,179.7,14.951,3,328,1.557,10.75,0.9,0
171,35.205,-97.459,179.4,14.622,3,326,1.295,10.545,0.613,0
172,35.205,-97.459,180.6,13.571,3,327,1.749,10.554,0.578,0
173,35.205,-97.459,181.4,13.022,3,326,2.559,11.214,0.946,0
174,35.205,-97.459,181.5,13.201,5,325,1.75,10.813,0.855,0
175,35.205,-97.459,179.8,11.044,4,325,2.414,10.543,0.711,0
176,35.205,-97.459,179.6,8.9598,4,324,2.394,11.488,0.404,0
177,35.205,-97.459,184.3,8.2032,4,323,1.786,10.663,0.58,0
178,35.205,-97.459,183.2,7.3905,4,321,1.922,11.643,0.732,0
179,35.205,-97.459,182.8,6.3903,3,321,2.078,11.202,0.908,0
180,35.205,-97.459,183.5,5.2206,3,321,2.001,10.906,0.607,0
181,35.205,-97.459,184.1,4.0303,3,321,2.328,10.889,0.729,0
182,35.205,-97.459,185.9,2.3217,3,321,1.418,10.889,0.775,0
183,35.205,-97.459,185.7,1.3503,3,320,1.246,10.945,0.864,0
184,35.205,-97.459,185.7,0.86,3,320,1.201,10.923,1.008,0
185,35.205,-97.459,185.7,0.86,3,320,0.868,10.776,0.991,0
186,35.205,-97.459,185.7,0.86,3,320,0.74,10.907,0.957,0
187,35.205,-97.459,0,0,3,318,0.716,10.925,0.903,0
188,35.205,-97.459,0,0,3,318,0.741,10.927,1.08,0
189,35.205,-97.459,0,0,3,318,0.747,10.917,1.063,0
190,35.205,-97.459,0,0,3,318,0.104,10.952,0.998,0
191,35.205,-97.459,0,0,3,318,0.112,11,1.002,0
192,35.205,-97.459,0,0,3,318,-0.963,10.936,1.13,0
193,35.205,-97.459,186.3,1.1004,3,319,-0.903,10.939,1.28,0
194,35.205,-97.459,183,3.3802,3,318,-0.768,10.596,1.14,0
195,35.204,-97.459,182.2,4.9,3,318,-0.466,11.405,1.746,0
196,35.204,-97.459,178.8,6.0801,3,319,0.339,10.603,1.076,0
197,35.204,-97.459,180.5,7.3403,3,319,0.268,11.253,1.163,0
198,35.204,-97.459,180.2,7.86,3,319,0.619,10.534,1.36,0
199,35.204,-97.459,178.9,8.2,3,319,0.701,10.874,1.223,0
201,35.204,-97.459,179.3,8.32,3,320,1.736,11.04,0.18,0
201,35.204,-97.459,179.3,8.32,3,320,1.736,11.04,0.18,0
202,35.204,-97.459,179.6,7.9401,3,321,2.062,10.14,-5.332,0
203,35.204,-97.459,190.4,6.8001,3,321,1.082,10.235,-4.046,0
204,35.204,-97.459,224.1,6.301,3,322,-0.515,10.819,-2.607,0
205,35.204,-97.459,249.3,6.4317,3,323,-0.594,10.79,-1.521,0
206,35.204,-97.459,265.7,7.301,3,323,-0.286,11.069,-0.794,0
207,35.204,-97.459,269.7,8.48,3,323,-0.304,11.113,-0.779,0
208,35.204,-97.459,269.9,9.44,3,323,-0.296,11.013,-0.774,0
209,35.204,-97.46,270.2,10.36,3,323,-0.258,10.745,-0.662,0
210,35.204,-97.46,270.1,11.25,3,323,0.258,10.598,-0.573,0
211,35.204,-97.46,269.9,11.95,3,324,0.049,10.868,-0.403,0
212,35.204,-97.46,270,12.49,3,324,0.133,10.502,-0.395,0
213,35.204,-97.46,270.1,12.92,3,324,0.367,10.81,-0.579,0
214,35.204,-97.46,269.9,13.49,3,324,1.08,10.805,-0.487,0
215,35.204,-97.46,269.7,13.57,3,324,0.531,10.713,-0.795,0
216,35.204,-97.461,269.9,13.27,3,324,0.87,11.021,-0.499,0
217,35.204,-97.461,269.9,13.22,3,324,0.303,10.774,-0.828,0
218,35.204,-97.461,269.8,13.09,3,324,0.783,10.973,-0.279,0
219,35.204,-97.461,270.1,13.13,3,324,0.286,10.583,-0.805,0
220,35.204,-97.461,270.3,13.07,3,324,0.603,10.849,-0.608,0
221,35.204,-97.461,270.4,12.97,3,324,0.197,11.032,-0.187,0
222,35.204,-97.461,270.4,13.1,3,324,0.466,10.785,-0.439,0
223,35.204,-97.462,270.3,13.27,3,324,0.579,11.104,-0.586,0
224,35.204,-97.462,270.3,13.4,3,324,0.554,11.033,-0.688,0
225,35.204,-97.462,270,13.48,3,323,0.756,11.044,-0.789,0
226,35.204,-97.462,269.9,13.42,3,323,0.526,10.912,-0.87,0
227,35.204,-97.462,269.1,13.43,3,323,0.503,10.837,-0.276,0
228,35.204,-97.462,270.1,13.33,3,323,0.473,10.976,-0.46,0
229,35.204,-97.463,270.2,13.33,3,322,0.568,10.964,-0.548,0
230,35.204,-97.463,270.3,13.35,3,322,0.629,11.216,-1.243,0
231,35.204,-97.463,270.6,13.41,3,322,0.589,10.895,-0.782,0
232,35.204,-97.463,270.6,13.46,3,322,0.626,11.186,-0.884,0
233,35.204,-97.463,270.4,13.45,3,321,0.589,10.957,-0.648,0
234,35.204,-97.463,270.1,13.45,3,321,0.605,10.868,-0.457,0
235,35.204,-97.464,269.9,13.37,3,321,0.656,10.603,-0.993,0
236,35.204,-97.464,270,13.24,3,321,1.104,11.289,-0.334,0
237,35.204,-97.464,270,12.73,3,321,1.753,11.048,-0.756,0
238,35.204,-97.464,270.1,11.87,3,321,2.1,10.746,-0.849,0
239,35.204,-97.464,270.1,10.38,3,321,1.128,10.846,-0.934,0
240,35.204,-97.464,270.2,9.5,3,321,0.038,11.021,-0.607,0
241,35.204,-97.464,270.3,9.55,3,321,-0.306,11.077,-0.344,0
242,35.204,-97.464,270.2,10.35,3,321,-0.168,11.088,-0.609,0
243,35.204,-97.464,270.1,11.19,3,321,-0.435,10.831,-1.3,0
244,35.204,-97.465,270.1,12,3,321,-0.372,11.026,-0.684,0
245,35.204,-97.465,270.1,12.89,3,321,-0.132,11.638,-0.85,0
246,35.204,-97.465,269.9,13.73,3,321,0.619,10.798,-0.598,0
247,35.204,-97.465,269.7,14.22,3,321,0.936,11.173,-0.506,0
248,35.204,-97.465,269.8,13.98,3,321,0.751,11.019,-1.039,0
249,35.204,-97.465,269.7,13.68,3,320,0.712,10.806,-0.809,0
250,35.204,-97.466,269.9,13.73,3,320,0.435,11.155,-1.362,0
251,35.204,-97.466,269.9,13.73,3,320,1.003,10.924,-0.686,0
252,35.204,-97.466,269.9,13.55,3,320,1.119,10.79,-0.363,0
253,35.204,-97.466,269.9,13.16,3,320,0.926,10.583,-0.481,0
254,35.204,-97.466,269.9,12.72,3,320,1.08,10.459,-0.932,0
255,35.204,-97.466,270,12.29,3,320,1.122,11.082,-1.908,0
256,35.204,-97.466,270,11.84,3,320,1.098,10.747,-0.195,0
257,35.204,-97.466,270.1,11.41,3,319,1.192,10.724,-1.253,0
258,35.204,-97.467,270.2,11.04,3,320,1.125,10.764,-0.404,0
259,35.204,-97.467,270.4,10.63,3,320,0.987,11.045,-0.705,0
260,35.204,-97.467,270.3,10.16,3,320,1.099,10.994,-0.785,0
261,35.204,-97.467,270.4,9.68,3,319,1.268,11.088,-0.724,0
263,35.204,-97.467,270,9.1401,3,319,0.736,10.906,-0.321,0
263,35.204,-97.467,270,9.1401,3,319,0.736,10.906,-0.321,0
264,35.204,-97.467,270.8,8.5315,3,319,0.62,10.973,-0.58,0
265,35.204,-97.467,270,8.4501,3,319,0.58,11.011,-0.876,0
266,35.204,-97.467,269.8,8.32,3,319,1.951,11.033,-0.433,0
267,35.204,-97.467,270.1,7.84,3,319,1.86,10.948,-0.758,0
268,35.204,-97.467,270.2,6.6201,3,319,1.466,10.847,-0.466,0
269,35.204,-97.468,270.3,5.6501,3,319,1.908,11.025,-0.437,0
270,35.204,-97.468,271,4.57,3,319,1.856,10.878,-0.489,0
271,35.204,-97.468,270.6,3.2801,3,319,1.268,11.007,-0.531,0
272,35.204,-97.468,269.5,2.2802,3,318,1.269,10.973,-0.714,0
273,35.204,-97.468,268.3,1.3618,3,318,0.939,10.995,-0.642,0
274,35.204,-97.468,268.3,1.3618,3,318,0.514,10.937,-0.769,0
275,35.204,-97.468,268.3,1.3618,3,318,0.535,10.937,-0.699,0
276,35.204,-97.468,0,0,3,320,0.533,10.966,-0.763,0
277,35.204,-97.468,0,0,3,320,0.532,10.962,-0.642,0
278,35.204,-97.468,0,0,3,320,0.542,10.959,-0.527,0
279,35.204,-97.468,0,0,3,320,0.553,10.966,-0.634,0
280,35.204,-97.468,0,0,3,322,0.575,10.945,-0.68,0
281,35.204,-97.468,0,0,3,322,0.54,10.957,-0.598,0
282,35.204,-97.468,0,0,3,322,0.542,10.956,-0.557,0
283,35.204,-97.468,0,0,3,322,0.53,10.953,-0.626,0
284,35.204,-97.468,0,0,3,322,0.53,10.932,-0.712,0
285,35.204,-97.468,0,0,3,322,0.532,10.986,-0.633,0
286,35.204,-97.468,0,0,3,322,0.507,10.961,-0.558,0
287,35.204,-97.468,0,0,3,322,0.537,10.985,-0.626,0
288,35.204,-97.468,0,0,3,322,0.553,10.981,-0.592,0
289,35.204,-97.468,0,0,3,322,0.545,10.947,-0.702,0
290,35.204,-97.468,0,0,3,322,0.536,10.969,-0.625,0
291,35.204,-97.468,0,0,3,322,0.552,10.924,-0.555,0
292,35.204,-97.468,0,0,3,322,0.522,10.925,-0.704,0
293,35.204,-97.468,0,0,3,322,0.539,10.958,-0.597,0
294,35.204,-97.468,0,0,3,322,0.536,10.966,-0.575,0
295,35.204,-97.468,0,0,3,322,0.541,10.963,-0.575,0
296,35.204,-97.468,0,0,3,322,0.54,10.968,-0.666,0
297,35.204,-97.468,0,0,3,322,0.534,10.992,-0.636,0
298,35.204,-97.468,0,0,3,322,0.545,10.961,-0.705,0
299,35.204,-97.468,0,0,3,322,0.509,10.963,-0.526,0
300,35.204,-97.468,0,0,3,322,0.521,10.946,-0.602,0
301,35.204,-97.468,0,0,3,322,0.543,10.989,-0.671,0
302,35.204,-97.468,0,0,3,322,0.542,10.978,-0.685,0
303,35.204,-97.468,0,0,3,322,0.533,10.976,-0.562,0
304,35.204,-97.468,0,0,3,322,0.549,10.961,-0.706,0
305,35.204,-97.468,0,0,3,324,0.52,10.965,-0.559,0
306,35.204,-97.468,0,0,3,324,0.533,10.987,-0.547,0
307,35.204,-97.468,0,0,3,324,0.531,10.95,-0.704,0
308,35.204,-97.468,0,0,3,324,0.52,10.955,-0.686,0
309,35.204,-97.468,0,0,3,324,0.542,10.976,-0.56,0
310,35.204,-97.468,0,0,3,324,0.554,10.987,-0.642,0
311,35.204,-97.468,0,0,3,322,0.534,10.972,-0.693,0
312,35.204,-97.468,0,0,3,322,0.539,10.97,-0.662,0
313,35.204,-97.468,0,0,3,322,0.541,10.968,-0.597,0
314,35.204,-97.468,0,0,3,322,0.534,10.957,-0.583,0
315,35.204,-97.468,0,0,3,322,0.523,10.988,-0.6,0
316,35.204,-97.468,0,0,3,322,0.528,10.993,-0.673,0
317,35.204,-97.468,0,0,3,322,0.552,10.983,-0.637,0
318,35.204,-97.468,0,0,3,322,0.537,10.941,-0.666,0
319,35.204,-97.468,0,0,3,322,0.527,10.956,-0.653,0
320,35.204,-97.468,0,0,3,322,0.54,10.983,-0.719,0
321,35.204,-97.468,0,0,3,322,0.533,10.954,-0.698,0
322,35.204,-97.468,0,0,3,322,0.524,10.971,-0.534,0
323,35.204,-97.468,0,0,3,322,0.519,10.96,-0.529,0
324,35.204,-97.468,0,0,3,322,0.516,10.979,-0.544,0
325,35.204,-97.468,0,0,3,322,0.544,11.006,-0.687,0
327,35.204,-97.468,0,0,3,322,0.542,10.947,-0.634,0
327,35.204,-97.468,0,0,3,322,0.542,10.947,-0.634,0
328,35.204,-97.468,0,0,3,322,0.545,10.96,-0.699,0
329,35.204,-97.468,0,0,3,322,0.539,10.959,-0.652,0
330,35.204,-97.468,0,0,3,322,0.526,10.985,-0.544,0
331,35.204,-97.468,0,0,3,322,0.535,10.963,-0.674,0
332,35.204,-97.468,0,0,3,322,0.538,11.001,-0.61,0
333,35.204,-97.468,0,0,3,322,0.53,10.959,-0.642,0
334,35.204,-97.468,0,0,3,322,0.518,10.977,-0.553,0
335,35.204,-97.468,0,0,3,322,0.544,10.995,-0.679,0
336,35.204,-97.468,0,0,3,322,0.526,10.959,-0.65,0
337,35.204,-97.468,0,0,3,322,0.519,10.971,-0.534,0
338,35.204,-97.468,0,0,3,322,0.033,10.977,-0.539,0
339,35.204,-97.468,0,0,3,322,-2.945,10.83,-0.443,0
340,35.204,-97.468,0,0,3,322,-1.582,10.91,-0.774,0
341,35.204,-97.468,270.8,3.8605,3,321,-1.476,10.698,-1.027,0
342,35.204,-97.468,270.3,4.6907,3,321,0.151,11.112,0.376,0
343,35.204,-97.468,270.1,8.1202,3,321,0.154,10.532,-0.61,0
344,35.204,-97.468,269.9,9.03,3,321,-0.144,10.926,-0.853,0
345,35.204,-97.468,269.8,9.6103,3,322,-0.286,10.874,-0.611,0
346,35.204,-97.468,269.9,10.35,3,322,-0.167,10.687,-0.51,0
347,35.204,-97.468,269.8,11.08,3,321,-0.044,11.043,-0.951,0
348,35.204,-97.468,269.9,11.79,3,321,-0.062,10.695,-0.93,0
349,35.204,-97.469,269.9,12.5,3,321,-0.108,10.899,-0.901,0
350,35.204,-97.469,270,13.2,3,321,-0.34,11.059,-0.572,0
351,35.204,-97.469,270.1,13.9,3,321,0.086,10.483,-1.24,0
352,35.204,-97.469,270.1,14.66,3,321,0.523,11.1,-0.811,0
353,35.204,-97.469,270.1,15.69,3,321,0.224,10.782,-0.716,0
354,35.204,-97.47,270.1,16.03,3,321,1.007,10.88,-0.041,0
355,35.204,-97.47,270.2,16.03,3,321,0.517,11.569,-0.409,0
356,35.204,-97.47,270,15.98,3,321,0.668,10.827,-0.747,0
357,35.204,-97.47,269.9,15.96,3,322,0.777,11.139,-0.873,0
358,35.204,-97.47,269.6,15.91,3,322,0.466,10.915,-0.439,0
359,35.204,-97.47,269.8,15.87,3,322,0.682,10.825,-1.113,0
360,35.204,-97.471,270.1,15.79,3,322,0.683,11.097,-0.829,0
361,35.204,-97.471,270.3,15.76,3,322,0.616,11.129,-0.882,0
362,35.204,-97.471,270.3,15.77,3,322,0.564,10.863,-0.574,0
363,35.204,-97.471,270.2,15.8,3,322,0.603,11.053,-0.673,0
364,35.204,-97.471,270.1,15.79,3,322,0.577,11.226,-0.851,0
365,35.204,-97.471,270.2,15.76,3,322,0.549,11.14,-0.791,0
366,35.204,-97.472,270.1,15.71,3,323,0.533,10.665,-0.58,0
367,35.204,-97.472,270.1,15.63,3,323,0.647,10.939,-0.503,0
368,35.204,-97.472,270.1,15.54,3,323,0.399,11.188,-0.903,0
369,35.204,-97.472,270,15.45,3,324,0.703,10.779,-0.614,0
370,35.204,-97.472,270.3,15.36,3,324,0.493,10.729,-0.844,0
371,35.204,-97.472,270.2,15.38,3,324,0.472,10.87,-0.725,0
372,35.204,-97.473,269.8,15.49,3,323,0.556,11.164,-0.845,0
373,35.204,-97.473,270.2,15.46,3,323,0.527,10.74,-0.687,0
374,35.204,-97.473,269.9,15.6,3,323,0.56,10.797,-0.343,0
375,35.204,-97.473,269.8,15.65,3,323,0.603,11.541,-1.072,0
376,35.204,-97.473,269.8,15.68,3,323,0.483,11.24,-0.582,0
377,35.204,-97.474,269.7,15.67,3,323,0.516,11.113,-0.574,0
378,35.204,-97.474,269.8,15.62,3,323,0.664,11.116,-0.954,0
379,35.204,-97.474,270.1,15.55,3,324,0.425,10.894,-0.388,0
380,35.204,-97.474,270.1,15.49,3,324,0.543,11.07,-0.681,0
381,35.204,-97.474,270.1,15.44,3,324,0.51,10.817,-0.41,0
382,35.204,-97.474,269.9,15.45,3,324,0.575,10.941,-0.606,0
383,35.204,-97.475,269.9,15.41,3,324,0.39,10.943,-0.758,0
384,35.204,-97.475,269.9,15.41,3,324,0.434,10.864,-0.471,0
385,35.204,-97.475,269.9,15.46,3,324,0.732,11.242,-0.472,0
386,35.204,-97.475,269.9,15.52,3,323,0.631,11.23,-0.627,0
387,35.204,-97.475,270.1,15.58,3,323,0.536,10.981,-0.358,0
389,35.204,-97.475,270.4,15.63,3,323,0.367,11.03,-1.276,0
389,35.204,-97.475,270.4,15.63,3,323,0.367,11.03,-1.276,0
390,35.204,-97.476,270.5,15.66,3,323,0.644,10.529,-0.949,0
391,35.204,-97.476,270.5,15.58,3,323,0.628,10.55,-0.692,0
392,35.204,-97.476,270.8,15.53,3,323,0.116,11.368,-0.766,0
393,35.204,-97.476,271.2,15.47,3,323,0.777,10.951,-0.798,0
394,35.204,-97.476,270.8,15.5,3,323,0.55,10.779,-0.423,0
395,35.204,-97.476,270.7,15.4,3,323,0.591,10.519,-0.544,0
396,35.204,-97.477,270.9,15.41,3,323,0.808,10.966,-0.917,0
397,35.204,-97.477,270.2,15.38,3,323,0.817,9.93,-0.34,0
398,35.204,-97.477,269.9,15.33,3,323,0.563,11.233,-1.042,0
399,35.204,-97.477,269.8,15.34,3,324,0.543,10.941,-0.524,0
400,35.204,-97.477,270,15.29,3,324,0.517,10.838,-0.759,0
401,35.204,-97.477,270.2,15.221,3,325,0.405,10.791,-0.464,0
402,35.204,-97.478,270.3,15.131,3,325,0.38,11.098,-1.092,0
403,35.204,-97.478,270.3,15.061,3,325,0.441,10.997,-0.959,0
404,35.204,-97.478,270.3,15.021,3,325,0.391,10.881,-0.68,0
405,35.204,-97.478,270,14.991,3,325,0.366,10.988,-1.26,0
406,35.204,-97.478,269.6,15.001,3,326,0.662,10.919,-1.434,0
407,35.204,-97.478,269.2,15.041,3,326,0.932,10.749,-1.996,0
408,35.204,-97.479,270.1,14.88,3,326,0.216,10.432,-2.935,0
409,35.204,-97.479,274.7,14.41,3,327,0.162,10.004,-4.071,0
410,35.204,-97.479,283.8,14.48,3,327,1.213,9.956,-5.191,0
411,35.204,-97.479,296.6,14.65,3,327,0.306,10.783,-5.185,0
412,35.204,-97.479,312.1,14.44,3,326,-0.289,10.55,-2.703,0
413,35.204,-97.479,328.5,14.582,3,326,-0.317,10.597,-1.427,0
414,35.204,-97.479,339.2,15.311,3,326,-0.435,10.724,-0.928,0
415,35.205,-97.479,341,16.501,3,326,-0.219,10.958,-1.08,0
416,35.205,-97.479,341.9,17.696,3,325,-0.185,11.003,-0.776,0
417,35.205,-97.48,341.7,20.177,3,323,-0.144,10.873,0.152,0
418,35.205,-97.48,341.1,21.307,3,322,-0.057,11.026,-0.578,0
419,35.205,-97.48,341.2,22.336,3,321,-0.169,11.308,-0.759,0
420,35.206,-97.48,341.1,23.293,3,320,-0.198,11.269,-0.693,0
421,35.206,-97.48,341.1,24.131,3,320,-0.22,11.014,-0.37,0
422,35.206,-97.48,340.8,24.88,3,319,0.042,10.852,-0.885,0
423,35.206,-97.48,340.1,25.49,3,319,-0.064,10.904,-0.931,0
424,35.207,-97.48,339.7,26.07,3,319,0.142,10.483,-1.264,0
425,35.207,-97.48,339.2,26.66,3,319,0.005,11.27,-1.278,0
426,35.207,-97.48,338.6,27.15,3,319,-0.192,11.048,-0.56,0
427,35.207,-97.48,337.7,27.63,3,320,0.486,11.001,-0.708,0
428,35.207,-97.481,336.8,27.97,3,320,0.305,11.173,-0.851,0
429,35.208,-97.481,335.8,28.12,3,320,0.36,10.654,-0.644,0
430,35.208,-97.481,334.8,28.181,3,320,0.149,11.363,-0.419,0
431,35.208,-97.481,333.5,28.411,3,320,0.046,10.673,-0.475,0
432,35.208,-97.481,332.3,28.511,3,321,0.275,11.015,-0.839,0
433,35.209,-97.481,330.8,28.8,3,321,0.084,11.053,-1.256,0
434,35.209,-97.481,330.4,29.06,3,321,0.104,10.888,-1.652,0
435,35.209,-97.482,330.9,29.33,3,321,0.148,10.992,-0.589,0
436,35.209,-97.482,331.3,29.641,3,321,0.16,11.066,-0.956,0
437,35.21,-97.482,331.6,29.931,3,321,0.197,10.625,-0.501,0
438,35.21,-97.482,331.2,30.22,3,322,0.204,10.793,-0.898,0
439,35.21,-97.482,330.7,30.54,3,322,0.217,10.882,-0.848,0
440,35.21,-97.482,331,30.85,3,323,0.118,11.161,-0.44,0
441,35.211,-97.483,331.3,31.18,3,323,0.153,10.847,-1.272,0
442,35.211,-97.483,331.9,31.42,3,323,0.426,11.189,-0.396,0
443,35.211,-97.483,332,31.33,3,323,0.501,10.63,-0.453,0
444,35.211,-97.483,332,31.28,3,323,0.398,10.922,-0.37,0
445,35.212,-97.483,331.8,31.41,3,323,0.333,10.859,-0.521,0
446,35.212,-97.483,331,31.54,3,322,0.43,10.872,-0.255,0
447,35.212,-97.484,330.4,31.65,3,322,0.383,11.726,-1.184,0
448,35.212,-97.484,330.4,31.77,3,323,0.539,10.982,-1.339,0
449,35.212,-97.484,331.1,31.87,3,323,1.088,10.808,-0.579,0
450,35.213,-97.484,332.1,31.58,3,323,0.968,10.916,-0.998,0
451,35.213,-97.484,333.2,31.19,3,323,1.278,10.987,-0.293,0
452,35.213,-97.484,333.6,30.71,3,324,1.1,10.892,-1.548,0
453,35.213,-97.485,334.2,30.21,3,323,0.458,10.857,-2.216,0
454,35.214,-97.485,337.4,29.89,3,323,0.517,11.06,-1.316,0
455,35.214,-97.485,339.7,29.89,3,323,0.466,10.837,-1.329,0
456,35.214,-97.485,341.5,29.93,3,323,0.097,10.98,-1.588,0
457,35.215,-97.485,343.1,30.12,3,324,0.355,11.112,-1.44,0
459,35.215,-97.485,344.7,30.36,3,323,0.428,10.728,-1.93,0
459,35.215,-97.485,344.7,30.36,3,323,0.428,10.728,-1.93,0
460,35.215,-97.485,346,30.53,3,323,0.376,10.845,-1.603,0
461,35.215,-97.485,347.7,30.66,3,323,0.367,11.321,-1.231,0
462,35.216,-97.485,349.5,30.741,3,324,0.427,10.927,-1.251,0
463,35.216,-97.485,350.6,30.83,3,324,0.501,10.957,-1.398,0
464,35.216,-97.485,352,30.84,3,323,0.539,10.836,-1.803,0
465,35.216,-97.485,353.4,30.9,3,324,0.613,11.251,-1.522,0
466,35.217,-97.485,354.9,30.88,3,324,0.481,10.988,-2.264,0
467,35.217,-97.485,356.4,30.86,3,325,0.431,11.341,-1.564,0
468,35.217,-97.485,358.2,30.83,3,325,0.463,10.626,-1.257,0
469,35.218,-97.485,359.5,30.83,3,325,0.442,10.885,-0.732,0
470,35.218,-97.485,0.2,30.85,3,325,0.434,10.678,-1.006,0
471,35.218,-97.485,359.9,30.88,3,325,0.378,11.156,-1.583,0
472,35.218,-97.485,1.4,30.93,3,325,0.409,10.576,-1.156,0
473,35.219,-97.485,1.4,30.92,3,325,0.434,10.727,-1.47,0
474,35.219,-97.485,1.3,30.61,4,325,0.572,11.286,-0.951,0
475,35.219,-97.485,0,30.96,3,325,0.589,10.742,-1.03,0
476,35.219,-97.485,359.8,31.08,3,325,0.478,10.233,-1.035,0
477,35.22,-97.485,359.8,31.04,3,325,0.532,10.446,-1.126,0
478,35.22,-97.485,359.9,31,3,326,0.561,10.844,-1.032,0
479,35.22,-97.485,359.9,31.01,3,326,0.57,10.915,-1.232,0
480,35.221,-97.485,359.7,31.01,3,326,0.496,10.992,-1.439,0
481,35.221,-97.485,359.6,30.98,3,326,0.471,10.791,-1.375,0
482,35.221,-97.485,359.8,30.98,3,326,0.463,10.822,-1.13,0
483,35.221,-97.485,0.1,30.97,3,326,0.474,10.906,-1.602,0
484,35.222,-97.485,0.1,31.01,3,327,0.467,10.776,-1.202,0
485,35.222,-97.485,0.1,31.03,3,327,0.509,10.837,-1.016,0
486,35.223,-97.485,0,31.08,3,326,0.494,10.787,-0.98,0
487,35.223,-97.485,359.9,31.11,3,327,0.443,10.943,-0.803,0
488,35.223,-97.485,359.8,31.13,3,327,0.464,10.845,-1.258,0
489,35.223,-97.485,359.8,31.12,3,326,0.509,10.828,-1.338,0
490,35.224,-97.485,359.8,31.14,3,326,0.515,10.869,-1.337,0
491,35.224,-97.485,359.8,31.15,3,327,0.481,10.849,-1.373,0
492,35.224,-97.485,0.1,31.17,3,327,0.531,10.925,-1.384,0
493,35.225,-97.485,0.2,31.17,3,328,0.854,11.058,-1.566,0
494,35.225,-97.485,0.1,31.15,3,328,0.496,11.008,-1.242,0
495,35.225,-97.485,359.7,31.18,3,328,0.507,10.832,-1.228,0
496,35.225,-97.485,359.6,31.21,3,328,0.467,10.823,-1.307,0
497,35.226,-97.485,359.8,31.23,3,328,0.518,10.872,-1.4,0
498,35.226,-97.485,0,31.24,3,329,0.481,10.981,-1.102,0
499,35.226,-97.485,0.1,31.24,3,329,0.468,10.723,-1.137,0
500,35.226,-97.485,359.9,31.25,3,329,0.503,10.845,-1.252,0
501,35.227,-97.485,359.8,31.31,3,329,0.522,10.903,-1.164,0
502,35.227,-97.485,359.7,31.29,3,329,0.552,10.684,-1.453,0
503,35.227,-97.485,0,31.3,3,329,0.486,10.829,-1.561,0
504,35.228,-97.485,0.1,31.3,3,329,0.496,10.826,-1.154,0
505,35.228,-97.485,0,31.29,3,329,0.533,10.973,-1.055,0
506,35.228,-97.485,359.9,31.31,3,328,0.516,10.774,-1.195,0
507,35.228,-97.485,359.8,31.27,3,328,0.553,10.903,-1.554,0
508,35.229,-97.485,359.9,31.26,3,328,0.601,10.802,-1.625,0
509,35.229,-97.485,0,31.22,3,328,0.546,10.861,-1.364,0
510,35.229,-97.485,0,31.2,3,328,0.52,10.943,-1.055,0
511,35.23,-97.485,0.1,31.18,3,328,0.446,10.769,-1.421,0
512,35.23,-97.485,0.1,31.2,3,329,0.539,10.796,-1.352,0
513,35.23,-97.485,0,31.23,3,328,0.444,10.834,-1.019,0
514,35.23,-97.485,0,31.25,3,329,0.477,10.98,-0.988,0
515,35.231,-97.485,359.9,31.27,3,329,0.565,10.99,-1.334,0
516,35.231,-97.485,359.8,31.29,3,329,0.499,10.917,-1.261,0
517,35.231,-97.485,359.7,31.33,3,329,0.553,10.853,-1.606,0
518,35.232,-97.485,359.7,31.33,3,329,0.535,10.836,-1.405,0
519,35.232,-97.485,359.8,31.3,3,329,0.544,10.703,-1.464,0
520,35.232,-97.485,0.1,31.31,3,329,0.538,10.82,-1.683,0
521,35.232,-97.485,0,31.3,3,329,0.542,10.863,-1.115,0
523,35.233,-97.485,359.8,31.3,3,329,0.449,10.858,-1.47,0
523,35.233,-97.485,359.8,31.3,3,329,0.449,10.858,-1.47,0
524,35.233,-97.485,0.5,30.97,3,329,0.528,10.892,-1.536,0
525,35.233,-97.485,0.1,31,3,329,0.504,10.879,-0.785,0
526,35.234,-97.485,359.9,31.32,3,329,0.544,10.862,-1.393,0
527,35.234,-97.485,359.9,31.3,3,329,0.433,10.993,-1.354,0
528,35.234,-97.485,359.8,31.31,3,329,0.499,10.859,-1.247,0
529,35.234,-97.486,359.9,31.31,3,329,0.532,10.872,-1.428,0
530,35.235,-97.486,359.9,31.32,3,329,0.482,10.864,-1.133,0
531,35.235,-97.486,359.9,31.32,3,329,0.512,10.875,-1.449,0
532,35.235,-97.486,0,31.34,3,329,0.521,10.908,-1.434,0
533,35.236,-97.485,0,31.37,3,330,0.451,10.858,-1.522,0
534,35.236,-97.485,0,31.38,3,330,0.493,10.938,-1.162,0
535,35.236,-97.485,0.1,31.39,3,330,0.559,10.849,-1.167,0
536,35.236,-97.485,0.2,31.4,3,331,0.619,10.907,-1.372,0
537,35.237,-97.485,0.1,31.39,3,331,0.59,10.922,-0.709,0
538,35.237,-97.485,359.9,31.38,3,331,0.569,10.868,-1.153,0
539,35.237,-97.485,359.8,31.34,3,331,0.507,10.884,-1.148,0
540,35.237,-97.485,359.8,31.3,3,331,0.631,10.815,-1.534,0
541,35.238,-97.485,359.9,31.29,3,331,0.645,10.718,-1.312,0
542,35.238,-97.485,0,31.26,3,331,0.538,10.767,-1.061,0
543,35.238,-97.485,359.9,31.25,3,331,0.525,10.77,-1.329,0
544,35.239,-97.485,359.9,31.27,3,331,0.535,10.906,-1.157,0
545,35.239,-97.485,359.7,31.29,3,331,0.512,10.914,-1.689,0
546,35.239,-97.485,359.7,31.28,3,331,0.57,11.031,-1.661,0
547,35.239,-97.485,0.1,31.29,3,330,0.545,10.959,-1.002,0
548,35.24,-97.485,0.2,31.3,3,330,0.597,11.171,-1.013,0
549,35.24,-97.485,359.9,31.3,3,330,0.656,10.89,-1.113,0
550,35.24,-97.485,359.7,31.3,3,330,0.6,10.775,-1.369,0
551,35.241,-97.485,359.6,31.28,3,330,0.589,10.838,-1.633,0
552,35.241,-97.485,0.2,31.27,3,330,0.565,10.684,-1.587,0
553,35.241,-97.485,359.9,31.3,3,330,0.444,10.898,-1.126,0
554,35.242,-97.485,359.9,31.32,3,330,0.545,10.875,-1.356,0
555,35.242,-97.485,359.8,31.29,3,331,0.529,10.886,-1.559,0
556,35.242,-97.485,0.1,31.29,3,330,0.602,11.161,-1.589,0
557,35.243,-97.485,0,31.31,3,330,0.514,11.024,-1.415,0
558,35.243,-97.485,0.1,31.36,3,330,0.489,10.97,-1.375,0
559,35.243,-97.485,359.8,31.34,3,330,0.599,11.103,-1.439,0
560,35.243,-97.485,359.8,31.32,3,330,0.635,10.843,-1.311,0
561,35.244,-97.485,359.9,31.29,3,330,0.564,10.945,-1.258,0
562,35.244,-97.485,0,31.25,3,330,0.545,10.869,-1.254,0
563,35.244,-97.485,0,31.22,3,330,0.601,10.663,-1.382,0
564,35.245,-97.485,359.9,31.15,3,330,0.575,10.89,-1.297,0
565,35.245,-97.485,359.9,31.16,3,330,0.527,10.886,-1.053,0
566,35.245,-97.485,359.8,31.15,3,330,0.601,10.787,-1.25,0
567,35.245,-97.485,359.7,31.14,3,330,0.615,10.924,-1.384,0
568,35.246,-97.485,359.9,31.11,3,330,0.479,10.971,-1.381,0
569,35.246,-97.485,0.2,31.11,3,330,0.487,11.019,-0.836,0
570,35.246,-97.485,0,31.09,3,330,0.535,10.948,-1.182,0
571,35.247,-97.485,359.8,31.08,3,330,0.68,10.852,-1.345,0
572,35.247,-97.485,359.8,31.08,3,330,0.548,10.945,-1.307,0
573,35.247,-97.485,0,31.07,3,330,0.577,10.89,-1.248,0
574,35.247,-97.485,0.1,31.08,3,330,0.504,10.944,-1.334,0
575,35.248,-97.485,359.9,31.09,3,330,0.494,10.883,-1.06,0
576,35.248,-97.486,359.8,31.35,3,330,0.507,10.891,-1.241,0
577,35.248,-97.486,359.5,30.871,3,331,0.562,10.899,-1.16,0
578,35.248,-97.486,359.9,31.07,3,331,0.624,10.835,-1.531,0
579,35.249,-97.486,359.9,31.01,3,331,0.587,10.881,-1.605,0
580,35.249,-97.486,0,31.04,3,331,0.581,10.91,-1.31,0
581,35.249,-97.486,359.9,31.04,3,331,0.521,10.76,-1.322,0
582,35.25,-97.486,359.8,31.01,3,332,0.469,10.942,-1.147,0
583,35.25,-97.486,359.9,31.01,3,332,0.513,10.778,-1.1,0
584,35.25,-97.486,0,30.95,3,332,0.521,10.835,-1.104,0
585,35.25,-97.486,0,30.93,3,332,0.546,10.937,-1.36,0
586,35.251,-97.486,359.9,30.91,3,332,0.478,10.901,-1.285,0
587,35.251,-97.486,359.9,30.91,3,332,0.466,10.97,-1.096,0
588,35.251,-97.486,359.9,30.92,3,332,0.492,10.943,-1.124,0
590,35.252,-97.486,359.7,30.93,3,332,0.45,10.858,-1.458,0
590,35.252,-97.486,359.7,30.93,3,332,0.45,10.858,-1.458,0
591,35.252,-97.486,359.9,30.94,3,332,0.445,10.961,-1.305,0
592,35.252,-97.486,0.2,30.94,3,332,0.439,10.972,-1.243,0
593,35.252,-97.486,0.2,30.96,3,332,0.469,10.845,-1.143,0
594,35.253,-97.486,0,30.96,3,332,0.496,10.9,-0.984,0
595,35.253,-97.486,359.9,30.98,3,332,0.504,10.847,-1.11,0
596,35.253,-97.486,359.9,31.02,3,333,0.427,10.879,-0.841,0
597,35.253,-97.486,359.8,31.02,3,333,0.493,10.896,-0.964,0
598,35.254,-97.486,359.8,31.03,3,332,0.549,10.828,-1.245,0
599,35.254,-97.486,359.8,31.05,3,332,0.481,10.95,-1.449,0
600,35.254,-97.486,359.8,31.03,3,332,0.486,10.73,-1.249,0
601,35.255,-97.486,359.9,31.01,3,332,0.499,10.902,-1.643,0
602,35.255,-97.486,0,30.99,3,332,0.42,10.866,-1.215,0
603,35.255,-97.486,359.9,31,3,332,0.449,11.004,-1.285,0
604,35.255,-97.486,359.8,31.05,3,332,0.483,10.802,-1.415,0
605,35.256,-97.486,0,31.07,3,332,0.538,10.959,-1.262,0
606,35.256,-97.486,0,31.11,3,333,0.486,10.879,-0.761,0
607,35.256,-97.486,359.9,31.17,3,333,0.514,10.809,-1.337,0
608,35.257,-97.486,359.8,31.2,3,332,0.538,10.927,-1.281,0
609,35.257,-97.486,359.8,31.22,3,332,0.542,10.928,-1.387,0
610,35.257,-97.486,359.9,31.21,3,333,0.484,10.865,-1.906,0
611,35.257,-97.486,359.9,31.2,3,332,0.487,10.912,-1.515,0
612,35.258,-97.486,359.8,31.22,3,332,0.565,10.815,-1.22,0
613,35.258,-97.486,359.9,31.21,3,332,0.523,10.802,-1.335,0
614,35.258,-97.486,0,31.18,3,333,0.523,10.947,-1.221,0
615,35.259,-97.486,0.2,31.2,3,333,0.554,10.824,-1.117,0
616,35.259,-97.486,0,31.22,3,333,0.621,10.789,-1.045,0
617,35.259,-97.486,0,31.2,3,333,0.571,10.753,-1.294,0
618,35.26,-97.486,359.9,31.18,3,332,0.545,10.936,-1.372,0
619,35.26,-97.486,359.8,31.16,3,332,0.594,10.969,-1.461,0
620,35.26,-97.486,359.9,31.17,3,332,0.609,10.867,-1.377,0
621,35.261,-97.486,359.9,31.17,3,332,0.552,10.845,-1.296,0
622,35.261,-97.486,359.9,31.2,3,332,0.506,10.725,-1.211,0
623,35.261,-97.486,359.9,31.21,3,331,0.482,10.874,-1.293,0
624,35.261,-97.486,359.8,31.21,3,331,0.509,10.84,-1.131,0
625,35.262,-97.486,359.8,31.24,3,331,0.52,10.877,-1.312,0
626,35.262,-97.486,359.5,31.261,3,331,0.493,10.774,-1.34,0
627,35.262,-97.486,359.1,31.271,3,331,0.565,10.808,-1.565,0
628,35.262,-97.486,0,31.28,3,330,0.554,10.618,-1.839,0
629,35.263,-97.486,359.9,31.27,3,330,0.561,10.731,-1.264,0
630,35.263,-97.486,359.7,31.26,3,330,0.595,11.014,-1.579,0
631,35.263,-97.486,359.8,31.24,3,331,0.559,10.947,-1.765,0
632,35.264,-97.486,0.2,31.21,3,331,0.547,10.945,-1.551,0
633,35.264,-97.486,0.2,31.18,3,331,0.478,10.968,-0.928,0
634,35.264,-97.486,0,31.2,3,331,0.484,10.995,-1.227,0
635,35.264,-97.486,359.9,31.18,3,331,0.545,10.693,-1.255,0
636,35.265,-97.486,359.8,31.2,3,331,0.537,10.947,-1.199,0
637,35.265,-97.486,359.9,31.22,3,332,0.515,10.878,-1.321,0
638,35.265,-97.486,359.9,31.23,3,332,0.548,10.788,-1.448,0
639,35.266,-97.486,0,31.23,3,332,0.564,10.852,-1.408,0
640,35.266,-97.486,0,31.21,3,332,0.553,10.92,-1.259,0
641,35.266,-97.486,0.1,31.22,3,332,0.54,10.958,-0.967,0
642,35.266,-97.486,359.9,31.2,3,331,0.537,10.854,-1.29,0
643,35.267,-97.486,359.8,31.2,3,331,0.513,10.792,-1.164,0
644,35.267,-97.486,0,31.23,3,331,0.537,10.966,-0.94,0
645,35.267,-97.486,0,31.21,3,331,0.533,10.965,-1.116,0
646,35.268,-97.486,359.9,31.2,3,331,0.575,10.965,-1.259,0
647,35.268,-97.486,359.9,31.2,3,331,0.574,10.96,-0.773,0
648,35.268,-97.486,359.8,31.19,3,331,0.575,10.948,-1.205,0
649,35.268,-97.486,359.7,31.19,3,331,0.56,10.808,-1.427,0
650,35.269,-97.486,359.6,31.21,3,331,0.544,10.931,-1.179,0
651,35.269,-97.486,359.9,31.21,3,331,0.544,10.829,-1.134,0
652,35.269,-97.486,359.9,31.19,3,331,0.559,10.871,-1.31,0
653,35.27,-97.486,0,31.2,3,330,0.53,10.863,-1.778,0
654,35.27,-97.486,0.2,31.21,3,330,0.548,10.845,-1.11,0
656,35.27,-97.486,0,31.26,3,329,0.58,10.721,-0.629,0
656,35.27,-97.486,0,31.26,3,329,0.58,10.721,-0.629,0
657,35.27,-97.486,0,31.31,3,329,0.612,10.826,-1.433,0
658,35.271,-97.486,359.9,31.34,3,329,0.622,10.793,-1.022,0
659,35.271,-97.486,359.9,31.411,3,329,0.58,10.961,-1.414,0
660,35.271,-97.486,359.9,31.431,3,328,0.625,10.906,-1.423,0
661,35.272,-97.486,0,31.441,3,328,0.677,10.872,-1.658,0
662,35.272,-97.486,0.1,31.44,3,327,0.692,10.882,-1.534,0
663,35.272,-97.486,0.1,31.421,3,327,0.67,10.996,-1.553,0
664,35.272,-97.486,0,31.371,3,327,0.681,10.839,-1.146,0
665,35.273,-97.486,359.9,31.321,3,326,0.652,10.905,-1.279,0
666,35.273,-97.486,359.8,31.311,3,326,0.62,10.845,-1.474,0
667,35.273,-97.486,359.7,31.31,3,326,0.652,10.958,-1.283,0
668,35.273,-97.486,359.7,31.31,3,326,0.652,10.823,-1.52,0
669,35.274,-97.486,359.9,31.311,3,326,0.648,10.847,-1.312,0
670,35.274,-97.486,0,31.341,3,325,0.638,10.848,-1.296,0
671,35.274,-97.486,0.1,31.351,3,325,0.696,10.918,-1.443,0
672,35.275,-97.486,359.9,31.351,3,324,0.633,10.921,-1.336,0
673,35.275,-97.486,359.9,31.36,3,324,0.569,10.915,-1.446,0
674,35.275,-97.486,0,31.36,3,324,0.67,10.93,-1.453,0
675,35.275,-97.486,359.9,31.33,3,324,0.645,11.02,-1.543,0
676,35.276,-97.486,0,31.27,3,324,0.661,11.003,-1.598,0
677,35.276,-97.486,0,31.21,3,324,0.654,11.129,-1.274,0
678,35.276,-97.486,0.1,31.09,3,324,0.598,11.063,-1.515,0
679,35.277,-97.486,0.3,30.951,3,324,0.617,10.875,-1.786,0
680,35.277,-97.486,1.3,30.712,3,325,0.531,10.977,-2.018,0
681,35.277,-97.486,3.3,30.522,3,325,0.389,10.835,-2.57,0
682,35.277,-97.485,6,30.422,3,326,0.492,10.561,-3.108,0
683,35.278,-97.485,14.6,30.161,3,327,0.417,10.736,-2.639,0
684,35.278,-97.485,17.2,30.081,3,327,0.462,10.591,-1.661,0
685,35.278,-97.485,18.7,30.11,3,328,0.427,10.942,-1.38,0
686,35.279,-97.485,19.2,30.17,3,328,0.332,11.011,-0.965,0
687,35.279,-97.485,18.9,30.34,3,328,0.335,10.986,-0.626,0
688,35.279,-97.485,18.4,30.47,3,329,0.323,10.944,-0.469,0
689,35.279,-97.485,18.1,30.66,3,329,0.345,10.854,-0.87,0
690,35.28,-97.485,17.8,30.52,3,329,0.378,10.973,-1.232,0
691,35.28,-97.484,17,31.142,3,329,0.441,11.003,0.026,0
692,35.28,-97.484,13.9,30.94,3,329,0.558,10.953,1.613,0
693,35.281,-97.484,10.9,30.97,3,329,0.468,10.909,1.547,0
694,35.281,-97.484,8.3,31.011,3,330,0.472,10.851,1.77,0
695,35.281,-97.484,5.4,31.04,3,330,0.461,10.996,1.454,0
696,35.281,-97.484,3,31.03,3,330,0.446,11.04,1.795,0
697,35.282,-97.484,359.7,31.12,3,331,0.59,10.916,2.141,0
698,35.282,-97.484,356.5,31.14,3,332,0.556,10.962,1.569,0
699,35.282,-97.484,353.9,31.16,3,332,0.594,11.004,1.646,0
700,35.283,-97.484,352.2,31.44,3,331,0.572,10.956,1.605,0
701,35.283,-97.484,348.5,31.15,3,331,0.587,10.882,1.669,0
702,35.283,-97.485,345.9,31.12,3,332,0.522,10.905,1.743,0
703,35.283,-97.485,343.6,31.101,3,332,0.533,10.954,1.048,0
704,35.284,-97.485,342.4,31.125,3,333,0.407,10.931,0.271,0
705,35.284,-97.485,343.3,31.231,3,333,0.443,10.88,0.229,0
706,35.284,-97.485,343.1,31.121,3,333,0.508,10.892,0.529,0
707,35.284,-97.485,343.6,31.15,3,333,0.506,10.856,0.831,0
708,35.285,-97.485,343.5,31.19,3,333,0.425,10.977,0.785,0
709,35.285,-97.485,343.2,31.23,3,333,0.471,10.891,0.479,0
710,35.285,-97.485,343.2,31.25,3,333,0.49,10.912,0.328,0
711,35.285,-97.485,343.3,31.32,3,333,0.5,10.959,0.721,0
712,35.286,-97.486,343.2,31.32,3,334,0.556,10.918,0.478,0
713,35.286,-97.486,343.2,31.3,3,334,0.612,10.922,1.013,0
714,35.286,-97.486,343,31.22,3,334,0.543,10.92,0.551,0
715,35.287,-97.486,343.2,31.17,3,334,0.671,10.908,0.911,0
716,35.287,-97.486,343,31.09,3,334,0.561,11.008,0.508,0
717,35.287,-97.486,343.2,31,3,334,0.492,11.088,0.429,0
718,35.287,-97.486,343.3,30.97,3,334,0.467,10.872,0.527,0
719,35.288,-97.486,343.5,30.96,3,334,0.508,11.032,0.519,0
720,35.288,-97.486,343.4,30.98,3,334,0.507,10.936,0.448,0
721,35.288,-97.486,343.4,30.97,3,334,0.502,10.904,0.664,0
723,35.288,-97.487,343.5,31.02,3,334,0.54,10.924,0.739,0
723,35.288,-97.487,343.5,31.02,3,334,0.54,10.924,0.739,0
724,35.289,-97.487,343.3,31.02,3,335,0.541,10.954,0.98,0
725,35.289,-97.487,343.2,31.01,3,334,0.591,10.896,0.946,0
726,35.289,-97.487,343,30.99,3,334,0.507,10.954,0.894,0
727,35.29,-97.487,343,30.94,3,334,0.49,11.008,0.556,0
728,35.29,-97.487,343.3,30.9,3,334,0.531,11.001,0.675,0
729,35.29,-97.487,343.5,30.86,3,334,0.612,10.942,1.132,0
730,35.29,-97.487,343.4,30.88,3,334,0.601,10.858,1.122,0
731,35.291,-97.487,343.2,30.88,3,334,0.525,11.014,0.873,0
732,35.291,-97.487,343.1,30.91,3,334,0.48,11.124,0.778,0
733,35.291,-97.487,342.7,30.972,3,335,0.497,10.948,0.467,0
734,35.291,-97.488,343.5,31.15,3,335,0.518,10.995,0.749,0
735,35.292,-97.488,343.5,31.02,3,336,0.562,10.83,0.826,0
736,35.292,-97.488,343.4,31.05,3,335,0.594,10.799,0.84,0
737,35.292,-97.488,343.3,31.02,3,335,0.513,10.833,0.763,0
738,35.292,-97.488,343.4,31.11,3,336,0.552,10.977,0.939,0
739,35.293,-97.488,343.5,31.17,3,335,0.552,10.975,1.028,0
740,35.293,-97.488,343.4,31.29,3,335,0.556,10.903,0.851,0
741,35.293,-97.488,343.4,31.34,3,335,0.591,10.933,0.921,0
742,35.294,-97.488,343.2,31.39,3,334,0.629,10.902,1.014,0
743,35.294,-97.488,343.2,31.44,3,334,0.564,11.053,0.828,0
744,35.294,-97.489,343.2,31.44,3,334,0.603,10.979,0.737,0
745,35.294,-97.489,343.2,31.6,3,333,0.693,10.956,0.654,0
746,35.295,-97.489,343.2,31.61,3,333,0.688,10.978,0.734,0
747,35.295,-97.489,343.3,31.53,3,333,0.739,10.864,0.945,0
748,35.295,-97.489,343.3,31.45,3,332,0.689,10.974,0.697,0
749,35.295,-97.489,343.4,31.391,3,332,0.745,11.006,0.905,0
750,35.296,-97.489,344.2,31.24,3,331,0.617,11.09,0.323,0
751,35.296,-97.489,345.1,31.24,3,330,0.655,10.971,0.509,0
752,35.297,-97.489,346.1,31.13,3,330,0.565,11.09,0.333,0
753,35.297,-97.49,347,31.04,3,329,0.575,10.912,0.505,0
754,35.297,-97.49,348.1,30.9,3,329,0.652,10.865,-0.276,0
755,35.297,-97.49,349.6,30.741,3,329,0.546,11.043,-1.345,0
756,35.298,-97.49,350.5,30.541,3,330,0.431,11.085,-1.369,0
757,35.298,-97.49,351.1,30.291,3,331,0.451,10.769,-1.51,0
758,35.298,-97.49,352.4,30.362,3,331,0.464,10.849,-1.496,0
759,35.298,-97.49,353.3,30.292,3,332,0.315,10.867,-1.427,0
760,35.299,-97.49,354.3,30.352,3,332,0.342,10.85,-1.364,0
761,35.299,-97.49,355.4,30.382,3,333,0.291,10.863,-1.568,0
762,35.299,-97.49,356.8,30.472,3,334,0.311,10.953,-1.298,0
763,35.3,-97.49,357.8,30.502,3,335,0.364,10.809,-1.272,0
764,35.3,-97.49,358.7,30.522,3,335,0.369,10.878,-1.269,0
765,35.3,-97.49,359.3,30.571,3,335,0.355,10.831,-0.943,0
766,35.3,-97.49,359.5,30.712,3,336,0.286,10.932,-0.7,0
767,35.301,-97.49,359.8,30.711,3,336,0.416,10.957,-0.787,0
768,35.301,-97.49,359.8,30.771,3,336,0.426,10.726,-1.161,0
769,35.301,-97.49,359.8,30.85,3,336,0.417,10.888,-1.361,0
770,35.301,-97.49,0.1,30.91,3,336,0.491,10.755,-0.876,0
771,35.302,-97.49,0.2,30.98,3,336,0.332,10.973,-0.903,0
772,35.302,-97.49,359.8,31.05,3,336,0.376,10.984,-0.989,0
773,35.302,-97.49,0,31.15,3,336,0.383,11.064,-0.732,0
774,35.303,-97.49,0,31.21,3,336,0.536,11.018,-0.771,0
775,35.303,-97.49,359.9,31.23,3,336,0.496,10.811,-0.859,0
776,35.303,-97.49,0.1,31.28,3,336,0.489,10.844,-1.136,0
777,35.303,-97.49,0.5,31.33,3,337,0.421,10.821,-1.338,0
778,35.304,-97.49,1.1,31.41,3,336,0.511,10.761,-1.14,0
779,35.304,-97.49,1.4,31.47,3,336,0.602,10.802,-0.465,0
780,35.304,-97.49,1,31.63,3,336,0.556,10.957,-0.205,0
781,35.305,-97.49,0.4,31.48,3,336,0.578,10.991,-0.563,0
782,35.305,-97.49,0,31.48,3,335,0.659,10.963,-0.547,0
783,35.305,-97.49,1.3,31.03,3,336,0.597,10.978,-1.033,0
784,35.305,-97.49,359.8,31.23,3,336,0.62,10.897,-0.722,0
785,35.306,-97.49,359.4,31.42,3,336,0.548,11.029,-0.654,0
786,35.306,-97.49,358.9,31.36,3,336,0.776,10.852,-0.494,0
787,35.306,-97.49,358.4,31.3,3,336,0.631,10.846,-1.508,0
788,35.307,-97.49,358.8,31.25,3,336,0.694,10.783,-1.624,0
790,35.307,-97.49,359.5,31.2,3,335,0.674,10.906,-1.257,0
790,35.307,-97.49,359.5,31.2,3,335,0.674,10.906,-1.257,0
791,35.307,-97.49,0,31.18,3,335,0.618,10.967,-0.846,0
792,35.307,-97.49,359.9,31.14,3,336,0.636,10.867,-0.939,0
793,35.308,-97.49,359.9,31.09,3,335,0.616,10.944,-1.005,0
794,35.308,-97.49,359.8,31.07,3,335,0.595,10.977,-1.034,0
795,35.308,-97.49,359.8,31.04,3,335,0.6,11.002,-0.927,0
796,35.309,-97.49,0,31,3,335,0.585,10.945,-0.907,0
797,35.309,-97.49,0,30.94,3,335,0.544,11.077,-0.891,0
798,35.309,-97.49,0,30.9,3,334,0.657,10.823,-0.937,0
799,35.309,-97.49,359.9,30.86,3,335,0.611,10.926,-1.121,0
800,35.31,-97.49,0,30.8,3,335,0.52,11.03,-1.207,0
801,35.31,-97.49,0.2,30.76,3,335,0.524,10.956,-0.801,0
802,35.31,-97.49,359.9,30.74,3,336,0.425,10.985,-0.989,0
803,35.31,-97.49,359.9,30.74,3,335,0.465,10.994,-0.715,0
804,35.311,-97.49,0,30.7,3,336,0.556,10.963,-1.059,0
805,35.311,-97.49,359.9,30.69,3,336,0.557,10.901,-1.113,0
806,35.311,-97.49,359.9,30.64,3,336,0.562,11.028,-0.819,0
807,35.312,-97.49,359.9,30.54,3,336,0.622,10.916,-0.67,0
808,35.312,-97.49,359.9,30.44,3,337,0.569,10.971,-0.802,0
809,35.312,-97.49,0.1,30.321,3,337,0.54,10.797,-0.782,0
810,35.312,-97.49,0,30.211,3,337,0.419,11.043,-1.09,0
811,35.313,-97.49,0,30.22,3,337,0.33,10.816,-0.977,0
812,35.313,-97.49,0,30.241,3,337,0.346,10.875,-0.851,0
813,35.313,-97.49,0,30.33,3,337,0.362,10.952,-0.831,0
814,35.313,-97.49,359.9,30.421,3,337,0.367,10.914,-0.951,0
815,35.314,-97.49,359.9,30.51,3,337,0.366,10.896,-1.04,0
816,35.314,-97.49,359.9,30.54,3,337,0.405,10.916,-1.082,0
817,35.314,-97.49,0.1,30.591,3,338,0.387,10.9,-0.87,0
818,35.315,-97.49,0.1,30.651,3,338,0.422,10.915,-0.662,0
819,35.315,-97.49,359.9,30.751,3,338,0.525,10.986,-0.664,0
820,35.315,-97.49,0,30.76,3,339,0.478,10.882,-1.133,0
821,35.316,-97.49,0.3,30.771,3,339,0.538,10.847,-0.736,0
822,35.316,-97.49,0.1,30.771,3,339,0.408,10.941,-0.718,0
823,35.316,-97.49,0,30.77,3,339,0.39,11,-0.953,0
824,35.317,-97.49,0,30.761,3,339,0.449,10.667,-0.952,0
825,35.317,-97.49,0,30.751,3,340,0.473,10.79,-0.617,0
826,35.317,-97.49,0,30.871,3,340,0.425,11.02,-0.633,0
827,35.317,-97.49,0,30.811,3,340,0.485,11.044,-0.943,0
828,35.318,-97.49,0,30.83,3,340,0.417,10.928,-0.701,0
829,35.318,-97.49,359.9,30.831,3,341,0.535,10.869,-0.516,0
830,35.318,-97.49,359.8,30.821,3,341,0.496,10.825,-0.937,0
831,35.318,-97.49,359.8,30.811,3,341,0.477,10.698,-1.017,0
832,35.319,-97.49,0,30.81,3,341,0.506,10.94,-0.947,0
833,35.319,-97.49,0.2,30.81,3,341,0.466,10.93,-0.826,0
834,35.319,-97.49,0,30.8,3,341,0.506,10.838,-0.308,0
835,35.32,-97.49,359.9,30.9,3,341,0.455,10.857,-0.823,0
836,35.32,-97.49,359.7,30.94,3,341,0.449,10.816,-0.59,0
837,35.32,-97.49,359.8,31.01,3,342,0.382,10.941,-1.107,0
838,35.32,-97.49,0,31.13,3,342,0.52,10.799,-1.072,0
839,35.321,-97.49,0.1,31.2,3,342,0.523,10.914,-1.108,0
840,35.321,-97.49,0,31.19,3,342,0.523,10.92,-1.055,0
841,35.321,-97.49,359.8,31.22,3,342,0.549,10.734,-0.833,0
842,35.322,-97.49,359.8,31.23,3,342,0.487,10.92,-1.158,0
843,35.322,-97.49,359.9,31.29,3,341,0.635,10.992,-0.7,0
844,35.322,-97.49,359.9,31.29,3,341,0.541,10.944,-0.893,0
845,35.322,-97.49,359.7,31.29,3,341,0.577,10.903,-0.859,0
846,35.323,-97.49,359.6,31.29,3,341,0.57,10.957,-0.815,0
847,35.323,-97.49,359.7,31.27,3,341,0.503,11.075,-1.081,0
848,35.323,-97.49,359.9,31.23,3,341,0.569,10.77,-1.17,0
849,35.324,-97.49,0.4,31.203,3,342,0.516,10.881,-0.738,0
850,35.324,-97.49,0.1,31.17,3,342,0.433,10.921,-0.76,0
851,35.324,-97.49,0,31.17,3,342,0.439,10.96,-1.201,0
852,35.324,-97.49,359.9,31.16,3,342,0.536,10.887,-0.985,0
853,35.325,-97.49,359.8,31.16,3,342,0.616,10.739,-0.887,0
854,35.325,-97.49,359.9,31.11,3,342,0.635,10.889,-0.584,0
855,35.325,-97.49,359.8,31.06,3,342,0.553,10.812,-0.912,0
856,35.325,-97.49,359.8,31.03,3,342,0.494,11.056,-0.979,0
857,35.326,-97.49,359.8,31.01,3,343,0.46,10.872,-0.961,0
858,35.326,-97.49,0,30.99,3,343,0.568,10.87,-0.857,0
860,35.326,-97.49,0.1,31,3,343,0.478,11.013,-0.842,0
860,35.326,-97.49,0.1,31,3,343,0.478,11.013,-0.842,0
861,35.327,-97.49,0,31.02,3,343,0.488,11.02,-1.12,0
862,35.327,-97.49,0,31.04,3,343,0.577,10.696,-1.033,0
863,35.327,-97.49,0,31.05,3,343,0.432,10.788,-0.948,0
864,35.327,-97.49,359.8,30.99,3,343,0.464,10.757,-0.926,0
865,35.328,-97.49,0,31.07,3,344,0.417,10.748,-1.043,0
866,35.328,-97.49,0.1,31.07,3,344,0.483,10.854,-1.15,0
867,35.328,-97.49,0.2,31.15,3,344,0.447,10.864,-1.154,0
868,35.329,-97.49,0.1,31.16,3,344,0.484,11.048,-0.952,0
869,35.329,-97.49,359.9,31.19,3,344,0.467,10.906,-1.017,0
870,35.329,-97.49,359.7,31.21,3,344,0.475,11.075,-1.138,0
871,35.329,-97.49,359.9,31.14,3,344,0.566,10.934,-0.857,0
872,35.33,-97.49,0,31.09,3,345,0.475,10.952,-0.811,0
873,35.33,-97.49,359.9,31.091,3,346,0.38,11.026,-0.953,0
874,35.33,-97.49,359.8,31.02,3,346,0.423,10.955,-1.095,0
875,35.331,-97.49,0,31,3,346,0.395,11.097,-0.901,0
876,35.331,-97.49,0,31.02,3,346,0.614,10.828,-0.968,0
877,35.331,-97.49,359.9,31,3,346,0.576,11.035,-0.883,0
878,35.331,-97.49,359.8,30.91,3,346,0.53,10.831,-1.176,0
879,35.332,-97.49,359.8,30.91,3,346,0.551,10.864,-0.827,0
880,35.332,-97.49,359.8,30.701,3,346,0.513,10.766,-1.217,0
881,35.332,-97.49,359.5,30.75,3,346,0.499,10.946,-1.019,0
882,35.332,-97.49,359.7,30.7,3,346,0.382,10.952,-1.338,0
883,35.333,-97.49,359.3,30.71,3,346,0.426,10.742,-0.958,0
884,35.333,-97.49,358.2,30.72,3,346,0.531,11.052,-0.769,0
885,35.333,-97.49,357,30.88,3,346,0.571,11.053,-0.701,0
886,35.334,-97.49,355.5,30.95,3,347,0.468,11.197,-0.95,0
887,35.334,-97.49,354.8,30.7,3,347,0.574,11.138,-0.665,0
888,35.334,-97.49,353.9,31.56,3,348,0.53,11.042,-0.037,0
889,35.335,-97.49,349.1,31.06,3,348,0.573,11.011,-0.493,0
890,35.335,-97.49,347.8,31.05,3,348,0.525,10.888,-0.9,0
891,35.335,-97.49,346.9,31.07,3,348,0.393,10.87,-0.852,0
892,35.336,-97.49,345.8,31.1,3,348,0.442,10.901,-0.615,0
893,35.336,-97.491,344.5,31.11,3,348,0.45,10.964,-0.734,0
894,35.336,-97.491,343.2,31.081,3,349,0.464,11.123,-1.179,0
895,35.336,-97.491,342.2,31.012,3,349,0.545,11.253,-1.046,0
896,35.337,-97.491,341.7,30.894,3,350,0.492,11.043,-1.11,0
897,35.337,-97.491,341.6,30.745,3,350,0.471,10.896,-1.01,0
898,35.337,-97.491,341.7,30.595,3,351,0.325,11.021,-1.037,0
899,35.337,-97.491,341.8,30.446,3,351,0.387,10.902,-0.928,0
900,35.338,-97.491,341.8,30.344,3,352,0.311,10.788,-0.849,0
901,35.338,-97.491,341.8,30.373,3,353,0.194,10.593,-0.404,0
902,35.338,-97.491,341.6,30.502,3,353,0.262,11.2,-1.051,0
903,35.338,-97.492,341.5,30.672,3,354,0.646,10.537,0.11,0
904,35.339,-97.492,341.3,30.802,3,354,0.219,10.356,-0.379,0
905,35.339,-97.492,341.3,30.931,3,354,0.304,10.791,-0.866,0
906,35.339,-97.492,341.4,31.09,3,354,0.318,10.876,-0.974,0
907,35.339,-97.492,341.7,31.25,3,354,0.448,10.792,-0.948,0
908,35.34,-97.492,341.8,31.35,3,354,0.379,11.017,-0.599,0
909,35.34,-97.492,341.5,31.4,3,355,0.497,10.904,-0.571,0
910,35.34,-97.492,341.2,31.38,3,354,0.483,10.921,-1.075,0
911,35.341,-97.492,341.3,31.4,3,354,0.467,10.874,-0.872,0
912,35.341,-97.493,341.4,31.36,3,354,0.486,10.815,-0.678,0
913,35.341,-97.493,341.4,31.37,3,354,0.578,11,-0.862,0
914,35.341,-97.493,341.3,31.37,3,354,0.599,10.815,-0.7,0
915,35.342,-97.493,341.3,31.37,3,354,0.52,10.831,-0.83,0
916,35.342,-97.493,341.5,31.39,3,354,0.54,10.715,-0.689,0
917,35.342,-97.493,341.4,31.44,3,353,0.609,10.9,-0.415,0
918,35.342,-97.493,341.1,31.45,3,354,0.559,10.87,-0.89,0
919,35.343,-97.493,341.2,31.47,3,354,0.533,10.939,-1.373,0
920,35.343,-97.493,341.5,31.44,3,354,0.668,11.057,-1.08,0
921,35.343,-97.494,341.6,31.47,3,354,0.797,10.879,-1.589,0
922,35.343,-97.494,341.8,31.45,3,353,0.67,11.013,-1.017,0
923,35.344,-97.494,342.3,31.44,3,353,0.719,10.719,-1.458,0
924,35.344,-97.494,343.3,31.501,3,353,0.645,10.83,-1.355,0
925,35.344,-97.494,344.2,31.622,3,352,0.664,10.904,-1.372,0
926,35.345,-97.494,345.2,31.642,3,351,0.775,10.674,-1.105,0
927,35.345,-97.494,346,31.621,3,351,0.802,10.817,-1.778,0
928,35.345,-97.494,347.4,31.571,3,350,0.763,11.153,-1.535,0
929,35.345,-97.494,348.7,31.48,3,350,0.768,10.868,-1.406,0
930,35.346,-97.494,349.8,31.29,3,351,0.694,10.95,-1.539,0
932,35.346,-97.494,350.8,31.1,3,351,0.649,10.724,-1.257,0
932,35.346,-97.494,350.8,31.1,3,351,0.649,10.724,-1.257,0
933,35.346,-97.494,351.6,30.9,3,351,0.613,10.719,-1.602,0
934,35.347,-97.494,352.6,30.741,3,352,0.565,10.744,-1.275,0
935,35.347,-97.495,353.8,30.651,3,352,0.535,10.794,-1.258,0
936,35.347,-97.495,354.7,30.58,3,352,0.394,11.107,-1.433,0
937,35.347,-97.495,355.7,30.56,3,352,0.414,10.81,-1.521,0
938,35.348,-97.495,356.7,30.541,3,352,0.487,10.849,-1.486,0
939,35.348,-97.495,357.5,30.54,3,352,0.459,10.832,-1.258,0
940,35.348,-97.495,358.3,30.53,3,352,0.435,10.86,-1.376,0
941,35.348,-97.495,358.8,30.561,3,352,0.385,10.802,-1.125,0
942,35.349,-97.495,359.1,30.35,3,352,0.751,10.48,-0.853,0
943,35.349,-97.495,358.9,30.58,3,352,0.438,10.514,-0.475,0
944,35.349,-97.495,359.7,30.681,3,353,0.425,11.05,-2.193,0
945,35.35,-97.495,359.7,30.711,3,354,0.635,10.944,-1.225,0
946,35.35,-97.495,359.8,30.721,3,354,0.45,10.737,-0.881,0
947,35.35,-97.495,359.9,30.741,3,354,0.388,10.957,-0.629,0
948,35.35,-97.495,359.9,30.781,3,354,0.339,11.003,-0.487,0
949,35.351,-97.495,359.7,30.791,3,354,0.403,10.849,-0.801,0
950,35.351,-97.495,359.6,30.821,3,355,0.429,10.95,-0.764,0
951,35.351,-97.495,359.5,30.821,3,355,0.484,10.88,-0.94,0
952,35.351,-97.495,359.6,30.831,3,355,0.469,11.029,-0.831,0
953,35.352,-97.495,359.8,30.821,3,355,0.43,10.751,-0.754,0
954,35.352,-97.495,359.8,30.841,3,356,0.431,10.857,-0.789,0
955,35.352,-97.495,359.9,30.831,3,355,0.515,10.898,-0.868,0
956,35.353,-97.495,359.9,30.821,3,355,0.448,10.889,-0.601,0
957,35.353,-97.495,359.7,30.871,3,355,0.446,10.949,-0.552,0
958,35.353,-97.495,359.5,30.871,3,356,0.479,10.694,-0.237,0
959,35.353,-97.495,359.5,30.891,3,356,0.303,11.014,-0.617,0
960,35.354,-97.495,359.4,30.85,3,356,0.359,10.915,-0.614,0
961,35.354,-97.495,359.5,30.881,3,356,0.514,10.976,-0.513,0
962,35.355,-97.495,359.4,30.84,3,356,0.487,10.801,-1.304,0
963,35.355,-97.495,359.7,30.85,3,356,0.545,10.945,0.029,0
964,35.355,-97.495,359.8,30.851,3,356,0.517,11.06,-0.291,0
965,35.355,-97.495,0,30.91,3,356,0.442,11.05,-0.852,0
966,35.356,-97.495,359.8,30.851,3,356,0.534,10.646,-0.796,0
967,35.356,-97.495,359.6,30.87,3,357,0.563,10.596,-0.92,0
968,35.356,-97.495,359.6,30.92,3,357,0.59,10.793,-0.945,0
969,35.356,-97.495,359.4,30.891,3,357,0.553,11.129,-1.237,0
970,35.357,-97.495,359.5,30.9,3,357,0.49,10.986,-1.195,0
971,35.357,-97.495,359.3,30.881,3,357,0.316,10.892,-0.626,0
972,35.357,-97.495,359.3,30.901,3,358,0.466,10.761,-0.446,0
973,35.358,-97.495,359.3,30.921,3,358,0.656,10.844,-0.907,0
974,35.358,-97.495,359.2,30.871,3,358,0.492,10.662,-0.657,0
975,35.358,-97.495,359.4,30.93,3,359,0.457,10.874,-0.586,0
976,35.358,-97.495,359.4,30.95,3,359,0.43,10.903,-0.821,0
977,35.359,-97.495,359.3,30.931,3,359,0.46,10.992,-0.838,0
978,35.359,-97.495,359.2,30.941,3,359,0.536,10.898,-1.014,0
979,35.359,-97.495,359.4,30.931,3,359,0.549,10.569,-0.883,0
980,35.36,-97.495,359.4,30.94,3,359,0.469,10.931,-1.208,0
981,35.36,-97.495,359.1,30.901,3,359,0.443,10.867,-0.756,0
982,35.36,-97.495,359,30.87,3,359,0.382,10.853,-0.221,0
983,35.36,-97.495,359.1,30.851,3,359,0.447,10.802,-0.971,0
984,35.361,-97.495,359.3,30.781,3,360,0.53,10.931,-0.986,0
985,35.361,-97.495,359.3,30.712,3,360,0.468,11.004,-0.923,0
986,35.361,-97.495,359.3,30.623,3,360,0.545,11.11,-0.834,0
987,35.361,-97.495,359.5,30.554,3,361,0.334,11.063,-1.311,0
988,35.362,-97.495,359.3,30.455,3,362,0.437,10.932,-1.084,0
989,35.362,-97.495,359.3,30.404,3,363,0.145,10.787,-1.425,0
990,35.362,-97.495,359.4,30.433,3,363,0.254,10.771,-0.562,0
991,35.363,-97.495,359.4,30.562,3,363,0.125,10.938,-0.293,0
992,35.363,-97.495,359.4,30.731,3,364,0.222,10.616,-1.032,0
993,35.363,-97.495,359.4,30.87,3,364,0.344,10.4,-0.396,0
994,35.363,-97.495,359.3,31.06,3,364,0.216,11.008,-0.582,0
995,35.364,-97.495,359.4,31.22,3,364,0.552,10.104,-0.825,0
996,35.364,-97.495,359.5,31.401,3,364,0.122,10.836,-0.22,0
997,35.364,-97.495,359.3,31.592,3,364,0.617,10.89,-0.227,0
999,35.365,-97.495,359.2,31.753,3,364,0.749,11.159,-0.695,0
999,35.365,-97.495,359.2,31.753,3,364,0.749,11.159,-0.695,0
1000,35.365,-97.495,359.2,31.852,3,364,0.69,11.111,-0.246,0
1001,35.365,-97.495,359,31.861,3,364,0.693,11.439,-0.739,0
1002,35.365,-97.495,359,31.75,3,363,0.779,10.987,-0.688,0
1003,35.366,-97.495,359.3,31.59,3,363,0.925,10.642,-0.62,0
1004,35.366,-97.495,359.4,31.4,3,363,0.876,10.751,-1.124,0
1005,35.366,-97.495,359.4,31.171,3,364,0.637,10.969,-1.102,0
1006,35.367,-97.495,359.4,30.932,3,364,0.532,11.146,-1.071,0
1007,35.367,-97.495,359.3,30.752,3,364,0.505,11.076,-0.936,0
1008,35.367,-97.495,359.3,30.592,3,365,0.485,10.701,-0.921,0
1009,35.367,-97.495,359.4,30.502,3,365,0.42,10.967,-1.009,0
1010,35.368,-97.495,359.2,30.28,3,366,0.428,10.936,-0.549,0
1011,35.368,-97.495,359.5,30.412,3,366,0.382,10.882,-0.732,0
1012,35.368,-97.495,359.4,30.422,3,367,0.371,10.962,-0.767,0
1013,35.368,-97.495,359.2,30.432,3,367,0.247,10.943,-0.664,0
1014,35.369,-97.495,359.1,30.462,3,368,0.187,10.894,-0.849,0
1015,35.369,-97.495,359.2,30.542,3,368,0.391,10.851,-0.825,0
1016,35.369,-97.495,359.2,30.632,3,369,0.362,10.754,-0.943,0
1017,35.37,-97.495,359.2,30.711,3,369,0.374,10.855,-0.532,0
1018,35.37,-97.495,359.4,30.781,3,369,0.373,11.01,-0.858,0
1019,35.37,-97.495,359.4,30.86,3,370,0.322,11.133,-0.744,0
1020,35.37,-97.495,359,30.88,3,369,0.386,10.773,-0.997,0
1021,35.371,-97.495,359,30.98,3,369,0.518,10.854,-0.639,0
1022,35.371,-97.495,359.2,31.08,3,370,0.41,11.094,-1.079,0
1023,35.371,-97.495,359.1,31.15,3,370,0.507,10.933,-0.714,0
1024,35.372,-97.495,359.2,31.18,3,370,0.485,10.923,-0.674,0
1025,35.372,-97.495,359.2,31.18,3,370,0.62,10.836,-0.813,0
1026,35.372,-97.495,359.3,31.18,3,370,0.423,10.832,-1.18,0
1027,35.372,-97.495,359.4,31.19,3,370,0.456,11.076,-1.143,0
1028,35.373,-97.495,359.5,31.22,3,370,0.474,10.691,-0.682,0
1029,35.373,-97.495,359.3,31.25,3,371,0.427,11.165,-0.453,0
1030,35.373,-97.495,359.2,31.23,3,370,0.436,10.925,-0.526,0
1031,35.374,-97.495,359.4,31.33,3,371,0.496,10.715,-0.631,0
1032,35.374,-97.495,359.2,31.28,3,371,0.526,10.95,-0.468,0
1033,35.374,-97.495,359.4,31.36,3,372,0.496,10.741,-1.025,0
1034,35.375,-97.495,359.6,31.39,3,372,0.425,10.96,-0.662,0
1035,35.375,-97.495,359.8,31.371,3,373,0.632,11.162,-0.909,0
1036,35.375,-97.495,359.6,31.232,3,373,0.507,11.163,-1.011,0
1037,35.375,-97.495,359.8,31.173,3,373,0.534,11.147,-0.543,0
1038,35.376,-97.495,359.9,31.024,3,374,0.44,10.944,-0.57,0
1039,35.376,-97.495,359.6,30.904,3,375,0.597,10.838,-0.227,0
1040,35.376,-97.495,359.6,30.823,3,375,0.478,10.77,-0.369,0
1041,35.377,-97.495,359.7,30.832,3,375,0.523,10.839,-1.08,0
1042,35.377,-97.495,359.9,30.871,3,376,0.359,10.757,-0.582,0
1043,35.377,-97.495,0,30.931,3,376,0.643,10.75,-1.259,0
1044,35.377,-97.495,0,31,3,376,0.637,10.085,-0.63,0
1045,35.378,-97.495,0,31.08,3,377,0.5,9.921,-0.146,0
1046,35.378,-97.495,359.8,31.21,3,377,1.62,10.414,-0.85,0
1047,35.378,-97.495,359.7,31.35,3,377,0.733,10.591,-0.808,0
1048,35.379,-97.495,359.6,31.501,3,376,0.502,10.516,-0.767,0
1049,35.379,-97.495,359.5,31.612,3,376,0.579,10.834,-0.964,0
