time,lat,lng,bearing,spd,acc,alt,accx,accy,accz,stable,
0,35.247,-97.485,359.8,31.08,3,330,0.548,10.945,-1.307,0
1,35.247,-97.485,0,31.07,3,330,0.577,10.89,-1.248,0
2,35.247,-97.485,0.1,31.08,3,330,0.504,10.944,-1.334,0
3,35.248,-97.485,359.9,31.09,3,330,0.494,10.883,-1.06,0
4,35.248,-97.486,359.8,31.35,3,330,0.507,10.891,-1.241,0
5,35.248,-97.486,359.5,30.871,3,331,0.562,10.899,-1.16,0
6,35.248,-97.486,359.9,31.07,3,331,0.624,10.835,-1.531,0
7,35.249,-97.486,359.9,31.01,3,331,0.587,10.881,-1.605,0
8,35.249,-97.486,0,31.04,3,331,0.581,10.91,-1.31,0
9,35.249,-97.486,359.9,31.04,3,331,0.521,10.76,-1.322,0
10,35.25,-97.486,359.8,31.01,3,332,0.469,10.942,-1.147,0
11,35.25,-97.486,359.9,31.01,3,332,0.513,10.778,-1.1,0
12,35.25,-97.486,0,30.95,3,332,0.521,10.835,-1.104,0
13,35.25,-97.486,0,30.93,3,332,0.546,10.937,-1.36,0
14,35.251,-97.486,359.9,30.91,3,332,0.478,10.901,-1.285,0
15,35.251,-97.486,359.9,30.91,3,332,0.466,10.97,-1.096,0
16,35.251,-97.486,359.9,30.92,3,332,0.492,10.943,-1.124,0
18,35.252,-97.486,359.7,30.93,3,332,0.45,10.858,-1.458,0
18,35.252,-97.486,359.7,30.93,3,332,0.45,10.858,-1.458,0
19,35.252,-97.486,359.9,30.94,3,332,0.445,10.961,-1.305,0
20,35.252,-97.486,0.2,30.94,3,332,0.439,10.972,-1.243,0
21,35.252,-97.486,0.2,30.96,3,332,0.469,10.845,-1.143,0
22,35.253,-97.486,0,30.96,3,332,0.496,10.9,-0.984,0
23,35.253,-97.486,359.9,30.98,3,332,0.504,10.847,-1.11,0
24,35.253,-97.486,359.9,31.02,3,333,0.427,10.879,-0.841,0
25,35.253,-97.486,359.8,31.02,3,333,0.493,10.896,-0.964,0
26,35.254,-97.486,359.8,31.03,3,332,0.549,10.828,-1.245,0
27,35.254,-97.486,359.8,31.05,3,332,0.481,10.95,-1.449,0
28,35.254,-97.486,359.8,31.03,3,332,0.486,10.73,-1.249,0
29,35.255,-97.486,359.9,31.01,3,332,0.499,10.902,-1.643,0
30,35.255,-97.486,0,30.99,3,332,0.42,10.866,-1.215,0
31,35.255,-97.486,359.9,31,3,332,0.449,11.004,-1.285,0
32,35.255,-97.486,359.8,31.05,3,332,0.483,10.802,-1.415,0
33,35.256,-97.486,0,31.07,3,332,0.538,10.959,-1.262,0
34,35.256,-97.486,0,31.11,3,333,0.486,10.879,-0.761,0
35,35.256,-97.486,359.9,31.17,3,333,0.514,10.809,-1.337,0
36,35.257,-97.486,359.8,31.2,3,332,0.538,10.927,-1.281,0
37,35.257,-97.486,359.8,31.22,3,332,0.542,10.928,-1.387,0
38,35.257,-97.486,359.9,31.21,3,333,0.484,10.865,-1.906,0
39,35.257,-97.486,359.9,31.2,3,332,0.487,10.912,-1.515,0
40,35.258,-97.486,359.8,31.22,3,332,0.565,10.815,-1.22,0
41,35.258,-97.486,359.9,31.21,3,332,0.523,10.802,-1.335,0
42,35.258,-97.486,0,31.18,3,333,0.523,10.947,-1.221,0
43,35.259,-97.486,0.2,31.2,3,333,0.554,10.824,-1.117,0
44,35.259,-97.486,0,31.22,3,333,0.621,10.789,-1.045,0
45,35.259,-97.486,0,31.2,3,333,0.571,10.753,-1.294,0
46,35.26,-97.486,359.9,31.18,3,332,0.545,10.936,-1.372,0
47,35.26,-97.486,359.8,31.16,3,332,0.594,10.969,-1.461,0
48,35.26,-97.486,359.9,31.17,3,332,0.609,10.867,-1.377,0
49,35.261,-97.486,359.9,31.17,3,332,0.552,10.845,-1.296,0
50,35.261,-97.486,359.9,31.2,3,332,0.506,10.725,-1.211,0
51,35.261,-97.486,359.9,31.21,3,331,0.482,10.874,-1.293,0
52,35.261,-97.486,359.8,31.21,3,331,0.509,10.84,-1.131,0
53,35.262,-97.486,359.8,31.24,3,331,0.52,10.877,-1.312,0
54,35.262,-97.486,359.5,31.261,3,331,0.493,10.774,-1.34,0
55,35.262,-97.486,359.1,31.271,3,331,0.565,10.808,-1.565,0
56,35.262,-97.486,0,31.28,3,330,0.554,10.618,-1.839,0
57,35.263,-97.486,359.9,31.27,3,330,0.561,10.731,-1.264,0
58,35.263,-97.486,359.7,31.26,3,330,0.595,11.014,-1.579,0
59,35.263,-97.486,359.8,31.24,3,331,0.559,10.947,-1.765,0
60,35.264,-97.486,0.2,31.21,3,331,0.547,10.945,-1.551,0
61,35.264,-97.486,0.2,31.18,3,331,0.478,10.968,-0.928,0
62,35.264,-97.486,0,31.2,3,331,0.484,10.995,-1.227,0
63,35.264,-97.486,359.9,31.18,3,331,0.545,10.693,-1.255,0
64,35.265,-97.486,359.8,31.2,3,331,0.537,10.947,-1.199,0
65,35.265,-97.486,359.9,31.22,3,332,0.515,10.878,-1.321,0
66,35.265,-97.486,359.9,31.23,3,332,0.548,10.788,-1.448,0
67,35.266,-97.486,0,31.23,3,332,0.564,10.852,-1.408,0
68,35.266,-97.486,0,31.21,3,332,0.553,10.92,-1.259,0
69,35.266,-97.486,0.1,31.22,3,332,0.54,10.958,-0.967,0
70,35.266,-97.486,359.9,31.2,3,331,0.537,10.854,-1.29,0
71,35.267,-97.486,359.8,31.2,3,331,0.513,10.792,-1.164,0
72,35.267,-97.486,0,31.23,3,331,0.537,10.966,-0.94,0
73,35.267,-97.486,0,31.21,3,331,0.533,10.965,-1.116,0
74,35.268,-97.486,359.9,31.2,3,331,0.575,10.965,-1.259,0
75,35.268,-97.486,359.9,31.2,3,331,0.574,10.96,-0.773,0
76,35.268,-97.486,359.8,31.19,3,331,0.575,10.948,-1.205,0
77,35.268,-97.486,359.7,31.19,3,331,0.56,10.808,-1.427,0
78,35.269,-97.486,359.6,31.21,3,331,0.544,10.931,-1.179,0
79,35.269,-97.486,359.9,31.21,3,331,0.544,10.829,-1.134,0
80,35.269,-97.486,359.9,31.19,3,331,0.559,10.871,-1.31,0
81,35.27,-97.486,0,31.2,3,330,0.53,10.863,-1.778,0
82,35.27,-97.486,0.2,31.21,3,330,0.548,10.845,-1.11,0
84,35.27,-97.486,0,31.26,3,329,0.58,10.721,-0.629,0
84,35.27,-97.486,0,31.26,3,329,0.58,10.721,-0.629,0
85,35.27,-97.486,0,31.31,3,329,0.612,10.826,-1.433,0
86,35.271,-97.486,359.9,31.34,3,329,0.622,10.793,-1.022,0
87,35.271,-97.486,359.9,31.411,3,329,0.58,10.961,-1.414,0
88,35.271,-97.486,359.9,31.431,3,328,0.625,10.906,-1.423,0
89,35.272,-97.486,0,31.441,3,328,0.677,10.872,-1.658,0
90,35.272,-97.486,0.1,31.44,3,327,0.692,10.882,-1.534,0
91,35.272,-97.486,0.1,31.421,3,327,0.67,10.996,-1.553,0
92,35.272,-97.486,0,31.371,3,327,0.681,10.839,-1.146,0
93,35.273,-97.486,359.9,31.321,3,326,0.652,10.905,-1.279,0
94,35.273,-97.486,359.8,31.311,3,326,0.62,10.845,-1.474,0
95,35.273,-97.486,359.7,31.31,3,326,0.652,10.958,-1.283,0
96,35.273,-97.486,359.7,31.31,3,326,0.652,10.823,-1.52,0
97,35.274,-97.486,359.9,31.311,3,326,0.648,10.847,-1.312,0
98,35.274,-97.486,0,31.341,3,325,0.638,10.848,-1.296,0
99,35.274,-97.486,0.1,31.351,3,325,0.696,10.918,-1.443,0
100,35.275,-97.486,359.9,31.351,3,324,0.633,10.921,-1.336,0
101,35.275,-97.486,359.9,31.36,3,324,0.569,10.915,-1.446,0
102,35.275,-97.486,0,31.36,3,324,0.67,10.93,-1.453,0
103,35.275,-97.486,359.9,31.33,3,324,0.645,11.02,-1.543,0
104,35.276,-97.486,0,31.27,3,324,0.661,11.003,-1.598,0
105,35.276,-97.486,0,31.21,3,324,0.654,11.129,-1.274,0
106,35.276,-97.486,0.1,31.09,3,324,0.598,11.063,-1.515,0
107,35.277,-97.486,0.3,30.951,3,324,0.617,10.875,-1.786,0
108,35.277,-97.486,1.3,30.712,3,325,0.531,10.977,-2.018,0
109,35.277,-97.486,3.3,30.522,3,325,0.389,10.835,-2.57,0
110,35.277,-97.485,6,30.422,3,326,0.492,10.561,-3.108,0
111,35.278,-97.485,14.6,30.161,3,327,0.417,10.736,-2.639,0
112,35.278,-97.485,17.2,30.081,3,327,0.462,10.591,-1.661,0
113,35.278,-97.485,18.7,30.11,3,328,0.427,10.942,-1.38,0
114,35.279,-97.485,19.2,30.17,3,328,0.332,11.011,-0.965,0
115,35.279,-97.485,18.9,30.34,3,328,0.335,10.986,-0.626,0
116,35.279,-97.485,18.4,30.47,3,329,0.323,10.944,-0.469,0
117,35.279,-97.485,18.1,30.66,3,329,0.345,10.854,-0.87,0
118,35.28,-97.485,17.8,30.52,3,329,0.378,10.973,-1.232,0
119,35.28,-97.484,17,31.142,3,329,0.441,11.003,0.026,0
120,35.28,-97.484,13.9,30.94,3,329,0.558,10.953,1.613,0
121,35.281,-97.484,10.9,30.97,3,329,0.468,10.909,1.547,0
122,35.281,-97.484,8.3,31.011,3,330,0.472,10.851,1.77,0
123,35.281,-97.484,5.4,31.04,3,330,0.461,10.996,1.454,0
124,35.281,-97.484,3,31.03,3,330,0.446,11.04,1.795,0
125,35.282,-97.484,359.7,31.12,3,331,0.59,10.916,2.141,0
126,35.282,-97.484,356.5,31.14,3,332,0.556,10.962,1.569,0
127,35.282,-97.484,353.9,31.16,3,332,0.594,11.004,1.646,0
128,35.283,-97.484,352.2,31.44,3,331,0.572,10.956,1.605,0
129,35.283,-97.484,348.5,31.15,3,331,0.587,10.882,1.669,0
130,35.283,-97.485,345.9,31.12,3,332,0.522,10.905,1.743,0
131,35.283,-97.485,343.6,31.101,3,332,0.533,10.954,1.048,0
132,35.284,-97.485,342.4,31.125,3,333,0.407,10.931,0.271,0
133,35.284,-97.485,343.3,31.231,3,333,0.443,10.88,0.229,0
134,35.284,-97.485,343.1,31.121,3,333,0.508,10.892,0.529,0
135,35.284,-97.485,343.6,31.15,3,333,0.506,10.856,0.831,0
136,35.285,-97.485,343.5,31.19,3,333,0.425,10.977,0.785,0
137,35.285,-97.485,343.2,31.23,3,333,0.471,10.891,0.479,0
138,35.285,-97.485,343.2,31.25,3,333,0.49,10.912,0.328,0
139,35.285,-97.485,343.3,31.32,3,333,0.5,10.959,0.721,0
140,35.286,-97.486,343.2,31.32,3,334,0.556,10.918,0.478,0
141,35.286,-97.486,343.2,31.3,3,334,0.612,10.922,1.013,0
142,35.286,-97.486,343,31.22,3,334,0.543,10.92,0.551,0
143,35.287,-97.486,343.2,31.17,3,334,0.671,10.908,0.911,0
144,35.287,-97.486,343,31.09,3,334,0.561,11.008,0.508,0
145,35.287,-97.486,343.2,31,3,334,0.492,11.088,0.429,0
146,35.287,-97.486,343.3,30.97,3,334,0.467,10.872,0.527,0
147,35.288,-97.486,343.5,30.96,3,334,0.508,11.032,0.519,0
148,35.288,-97.486,343.4,30.98,3,334,0.507,10.936,0.448,0
149,35.288,-97.486,343.4,30.97,3,334,0.502,10.904,0.664,0
151,35.288,-97.487,343.5,31.02,3,334,0.54,10.924,0.739,0
151,35.288,-97.487,343.5,31.02,3,334,0.54,10.924,0.739,0
152,35.289,-97.487,343.3,31.02,3,335,0.541,10.954,0.98,0
153,35.289,-97.487,343.2,31.01,3,334,0.591,10.896,0.946,0
154,35.289,-97.487,343,30.99,3,334,0.507,10.954,0.894,0
155,35.29,-97.487,343,30.94,3,334,0.49,11.008,0.556,0
156,35.29,-97.487,343.3,30.9,3,334,0.531,11.001,0.675,0
157,35.29,-97.487,343.5,30.86,3,334,0.612,10.942,1.132,0
158,35.29,-97.487,343.4,30.88,3,334,0.601,10.858,1.122,0
159,35.291,-97.487,343.2,30.88,3,334,0.525,11.014,0.873,0
160,35.291,-97.487,343.1,30.91,3,334,0.48,11.124,0.778,0
161,35.291,-97.487,342.7,30.972,3,335,0.497,10.948,0.467,0
162,35.291,-97.488,343.5,31.15,3,335,0.518,10.995,0.749,0
163,35.292,-97.488,343.5,31.02,3,336,0.562,10.83,0.826,0
164,35.292,-97.488,343.4,31.05,3,335,0.594,10.799,0.84,0
165,35.292,-97.488,343.3,31.02,3,335,0.513,10.833,0.763,0
166,35.292,-97.488,343.4,31.11,3,336,0.552,10.977,0.939,0
167,35.293,-97.488,343.5,31.17,3,335,0.552,10.975,1.028,0
168,35.293,-97.488,343.4,31.29,3,335,0.556,10.903,0.851,0
169,35.293,-97.488,343.4,31.34,3,335,0.591,10.933,0.921,0
170,35.294,-97.488,343.2,31.39,3,334,0.629,10.902,1.014,0
171,35.294,-97.488,343.2,31.44,3,334,0.564,11.053,0.828,0
172,35.294,-97.489,343.2,31.44,3,334,0.603,10.979,0.737,0
173,35.294,-97.489,343.2,31.6,3,333,0.693,10.956,0.654,0
174,35.295,-97.489,343.2,31.61,3,333,0.688,10.978,0.734,0
175,35.295,-97.489,343.3,31.53,3,333,0.739,10.864,0.945,0
176,35.295,-97.489,343.3,31.45,3,332,0.689,10.974,0.697,0
177,35.295,-97.489,343.4,31.391,3,332,0.745,11.006,0.905,0
178,35.296,-97.489,344.2,31.24,3,331,0.617,11.09,0.323,0
179,35.296,-97.489,345.1,31.24,3,330,0.655,10.971,0.509,0
180,35.297,-97.489,346.1,31.13,3,330,0.565,11.09,0.333,0
181,35.297,-97.49,347,31.04,3,329,0.575,10.912,0.505,0
182,35.297,-97.49,348.1,30.9,3,329,0.652,10.865,-0.276,0
183,35.297,-97.49,349.6,30.741,3,329,0.546,11.043,-1.345,0
184,35.298,-97.49,350.5,30.541,3,330,0.431,11.085,-1.369,0
185,35.298,-97.49,351.1,30.291,3,331,0.451,10.769,-1.51,0
186,35.298,-97.49,352.4,30.362,3,331,0.464,10.849,-1.496,0
187,35.298,-97.49,353.3,30.292,3,332,0.315,10.867,-1.427,0
188,35.299,-97.49,354.3,30.352,3,332,0.342,10.85,-1.364,0
189,35.299,-97.49,355.4,30.382,3,333,0.291,10.863,-1.568,0
190,35.299,-97.49,356.8,30.472,3,334,0.311,10.953,-1.298,0
191,35.3,-97.49,357.8,30.502,3,335,0.364,10.809,-1.272,0
192,35.3,-97.49,358.7,30.522,3,335,0.369,10.878,-1.269,0
193,35.3,-97.49,359.3,30.571,3,335,0.355,10.831,-0.943,0
194,35.3,-97.49,359.5,30.712,3,336,0.286,10.932,-0.7,0
195,35.301,-97.49,359.8,30.711,3,336,0.416,10.957,-0.787,0
196,35.301,-97.49,359.8,30.771,3,336,0.426,10.726,-1.161,0
197,35.301,-97.49,359.8,30.85,3,336,0.417,10.888,-1.361,0
198,35.301,-97.49,0.1,30.91,3,336,0.491,10.755,-0.876,0
199,35.302,-97.49,0.2,30.98,3,336,0.332,10.973,-0.903,0
200,35.302,-97.49,359.8,31.05,3,336,0.376,10.984,-0.989,0
201,35.302,-97.49,0,31.15,3,336,0.383,11.064,-0.732,0
202,35.303,-97.49,0,31.21,3,336,0.536,11.018,-0.771,0
203,35.303,-97.49,359.9,31.23,3,336,0.496,10.811,-0.859,0
204,35.303,-97.49,0.1,31.28,3,336,0.489,10.844,-1.136,0
205,35.303,-97.49,0.5,31.33,3,337,0.421,10.821,-1.338,0
206,35.304,-97.49,1.1,31.41,3,336,0.511,10.761,-1.14,0
207,35.304,-97.49,1.4,31.47,3,336,0.602,10.802,-0.465,0
208,35.304,-97.49,1,31.63,3,336,0.556,10.957,-0.205,0
209,35.305,-97.49,0.4,31.48,3,336,0.578,10.991,-0.563,0
210,35.305,-97.49,0,31.48,3,335,0.659,10.963,-0.547,0
211,35.305,-97.49,1.3,31.03,3,336,0.597,10.978,-1.033,0
212,35.305,-97.49,359.8,31.23,3,336,0.62,10.897,-0.722,0
213,35.306,-97.49,359.4,31.42,3,336,0.548,11.029,-0.654,0
214,35.306,-97.49,358.9,31.36,3,336,0.776,10.852,-0.494,0
215,35.306,-97.49,358.4,31.3,3,336,0.631,10.846,-1.508,0
216,35.307,-97.49,358.8,31.25,3,336,0.694,10.783,-1.624,0
218,35.307,-97.49,359.5,31.2,3,335,0.674,10.906,-1.257,0
218,35.307,-97.49,359.5,31.2,3,335,0.674,10.906,-1.257,0
219,35.307,-97.49,0,31.18,3,335,0.618,10.967,-0.846,0
220,35.307,-97.49,359.9,31.14,3,336,0.636,10.867,-0.939,0
221,35.308,-97.49,359.9,31.09,3,335,0.616,10.944,-1.005,0
222,35.308,-97.49,359.8,31.07,3,335,0.595,10.977,-1.034,0
223,35.308,-97.49,359.8,31.04,3,335,0.6,11.002,-0.927,0
224,35.309,-97.49,0,31,3,335,0.585,10.945,-0.907,0
225,35.309,-97.49,0,30.94,3,335,0.544,11.077,-0.891,0
226,35.309,-97.49,0,30.9,3,334,0.657,10.823,-0.937,0
227,35.309,-97.49,359.9,30.86,3,335,0.611,10.926,-1.121,0
228,35.31,-97.49,0,30.8,3,335,0.52,11.03,-1.207,0
229,35.31,-97.49,0.2,30.76,3,335,0.524,10.956,-0.801,0
230,35.31,-97.49,359.9,30.74,3,336,0.425,10.985,-0.989,0
231,35.31,-97.49,359.9,30.74,3,335,0.465,10.994,-0.715,0
232,35.311,-97.49,0,30.7,3,336,0.556,10.963,-1.059,0
233,35.311,-97.49,359.9,30.69,3,336,0.557,10.901,-1.113,0
234,35.311,-97.49,359.9,30.64,3,336,0.562,11.028,-0.819,0
235,35.312,-97.49,359.9,30.54,3,336,0.622,10.916,-0.67,0
236,35.312,-97.49,359.9,30.44,3,337,0.569,10.971,-0.802,0
237,35.312,-97.49,0.1,30.321,3,337,0.54,10.797,-0.782,0
238,35.312,-97.49,0,30.211,3,337,0.419,11.043,-1.09,0
239,35.313,-97.49,0,30.22,3,337,0.33,10.816,-0.977,0
240,35.313,-97.49,0,30.241,3,337,0.346,10.875,-0.851,0
241,35.313,-97.49,0,30.33,3,337,0.362,10.952,-0.831,0
242,35.313,-97.49,359.9,30.421,3,337,0.367,10.914,-0.951,0
243,35.314,-97.49,359.9,30.51,3,337,0.366,10.896,-1.04,0
244,35.314,-97.49,359.9,30.54,3,337,0.405,10.916,-1.082,0
245,35.314,-97.49,0.1,30.591,3,338,0.387,10.9,-0.87,0
246,35.315,-97.49,0.1,30.651,3,338,0.422,10.915,-0.662,0
247,35.315,-97.49,359.9,30.751,3,338,0.525,10.986,-0.664,0
248,35.315,-97.49,0,30.76,3,339,0.478,10.882,-1.133,0
249,35.316,-97.49,0.3,30.771,3,339,0.538,10.847,-0.736,0
250,35.316,-97.49,0.1,30.771,3,339,0.408,10.941,-0.718,0
251,35.316,-97.49,0,30.77,3,339,0.39,11,-0.953,0
252,35.317,-97.49,0,30.761,3,339,0.449,10.667,-0.952,0
253,35.317,-97.49,0,30.751,3,340,0.473,10.79,-0.617,0
254,35.317,-97.49,0,30.871,3,340,0.425,11.02,-0.633,0
255,35.317,-97.49,0,30.811,3,340,0.485,11.044,-0.943,0
256,35.318,-97.49,0,30.83,3,340,0.417,10.928,-0.701,0
257,35.318,-97.49,359.9,30.831,3,341,0.535,10.869,-0.516,0
258,35.318,-97.49,359.8,30.821,3,341,0.496,10.825,-0.937,0
259,35.318,-97.49,359.8,30.811,3,341,0.477,10.698,-1.017,0
260,35.319,-97.49,0,30.81,3,341,0.506,10.94,-0.947,0
261,35.319,-97.49,0.2,30.81,3,341,0.466,10.93,-0.826,0
262,35.319,-97.49,0,30.8,3,341,0.506,10.838,-0.308,0
263,35.32,-97.49,359.9,30.9,3,341,0.455,10.857,-0.823,0
264,35.32,-97.49,359.7,30.94,3,341,0.449,10.816,-0.59,0
265,35.32,-97.49,359.8,31.01,3,342,0.382,10.941,-1.107,0
266,35.32,-97.49,0,31.13,3,342,0.52,10.799,-1.072,0
267,35.321,-97.49,0.1,31.2,3,342,0.523,10.914,-1.108,0
268,35.321,-97.49,0,31.19,3,342,0.523,10.92,-1.055,0
269,35.321,-97.49,359.8,31.22,3,342,0.549,10.734,-0.833,0
270,35.322,-97.49,359.8,31.23,3,342,0.487,10.92,-1.158,0
271,35.322,-97.49,359.9,31.29,3,341,0.635,10.992,-0.7,0
272,35.322,-97.49,359.9,31.29,3,341,0.541,10.944,-0.893,0
273,35.322,-97.49,359.7,31.29,3,341,0.577,10.903,-0.859,0
274,35.323,-97.49,359.6,31.29,3,341,0.57,10.957,-0.815,0
275,35.323,-97.49,359.7,31.27,3,341,0.503,11.075,-1.081,0
276,35.323,-97.49,359.9,31.23,3,341,0.569,10.77,-1.17,0
277,35.324,-97.49,0.4,31.203,3,342,0.516,10.881,-0.738,0
278,35.324,-97.49,0.1,31.17,3,342,0.433,10.921,-0.76,0
279,35.324,-97.49,0,31.17,3,342,0.439,10.96,-1.201,0
280,35.324,-97.49,359.9,31.16,3,342,0.536,10.887,-0.985,0
281,35.325,-97.49,359.8,31.16,3,342,0.616,10.739,-0.887,0
282,35.325,-97.49,359.9,31.11,3,342,0.635,10.889,-0.584,0
283,35.325,-97.49,359.8,31.06,3,342,0.553,10.812,-0.912,0
284,35.325,-97.49,359.8,31.03,3,342,0.494,11.056,-0.979,0
285,35.326,-97.49,359.8,31.01,3,343,0.46,10.872,-0.961,0
286,35.326,-97.49,0,30.99,3,343,0.568,10.87,-0.857,0
288,35.326,-97.49,0.1,31,3,343,0.478,11.013,-0.842,0
288,35.326,-97.49,0.1,31,3,343,0.478,11.013,-0.842,0
289,35.327,-97.49,0,31.02,3,343,0.488,11.02,-1.12,0
290,35.327,-97.49,0,31.04,3,343,0.577,10.696,-1.033,0
291,35.327,-97.49,0,31.05,3,343,0.432,10.788,-0.948,0
292,35.327,-97.49,359.8,30.99,3,343,0.464,10.757,-0.926,0
293,35.328,-97.49,0,31.07,3,344,0.417,10.748,-1.043,0
294,35.328,-97.49,0.1,31.07,3,344,0.483,10.854,-1.15,0
295,35.328,-97.49,0.2,31.15,3,344,0.447,10.864,-1.154,0
296,35.329,-97.49,0.1,31.16,3,344,0.484,11.048,-0.952,0
297,35.329,-97.49,359.9,31.19,3,344,0.467,10.906,-1.017,0
298,35.329,-97.49,359.7,31.21,3,344,0.475,11.075,-1.138,0
299,35.329,-97.49,359.9,31.14,3,344,0.566,10.934,-0.857,0
300,35.33,-97.49,0,31.09,3,345,0.475,10.952,-0.811,0
301,35.33,-97.49,359.9,31.091,3,346,0.38,11.026,-0.953,0
302,35.33,-97.49,359.8,31.02,3,346,0.423,10.955,-1.095,0
303,35.331,-97.49,0,31,3,346,0.395,11.097,-0.901,0
304,35.331,-97.49,0,31.02,3,346,0.614,10.828,-0.968,0
305,35.331,-97.49,359.9,31,3,346,0.576,11.035,-0.883,0
306,35.331,-97.49,359.8,30.91,3,346,0.53,10.831,-1.176,0
307,35.332,-97.49,359.8,30.91,3,346,0.551,10.864,-0.827,0
308,35.332,-97.49,359.8,30.701,3,346,0.513,10.766,-1.217,0
309,35.332,-97.49,359.5,30.75,3,346,0.499,10.946,-1.019,0
310,35.332,-97.49,359.7,30.7,3,346,0.382,10.952,-1.338,0
311,35.333,-97.49,359.3,30.71,3,346,0.426,10.742,-0.958,0
312,35.333,-97.49,358.2,30.72,3,346,0.531,11.052,-0.769,0
313,35.333,-97.49,357,30.88,3,346,0.571,11.053,-0.701,0
314,35.334,-97.49,355.5,30.95,3,347,0.468,11.197,-0.95,0
315,35.334,-97.49,354.8,30.7,3,347,0.574,11.138,-0.665,0
316,35.334,-97.49,353.9,31.56,3,348,0.53,11.042,-0.037,0
317,35.335,-97.49,349.1,31.06,3,348,0.573,11.011,-0.493,0
318,35.335,-97.49,347.8,31.05,3,348,0.525,10.888,-0.9,0
319,35.335,-97.49,346.9,31.07,3,348,0.393,10.87,-0.852,0
320,35.336,-97.49,345.8,31.1,3,348,0.442,10.901,-0.615,0
321,35.336,-97.491,344.5,31.11,3,348,0.45,10.964,-0.734,0
322,35.336,-97.491,343.2,31.081,3,349,0.464,11.123,-1.179,0
323,35.336,-97.491,342.2,31.012,3,349,0.545,11.253,-1.046,0
324,35.337,-97.491,341.7,30.894,3,350,0.492,11.043,-1.11,0
325,35.337,-97.491,341.6,30.745,3,350,0.471,10.896,-1.01,0
326,35.337,-97.491,341.7,30.595,3,351,0.325,11.021,-1.037,0
327,35.337,-97.491,341.8,30.446,3,351,0.387,10.902,-0.928,0
328,35.338,-97.491,341.8,30.344,3,352,0.311,10.788,-0.849,0
329,35.338,-97.491,341.8,30.373,3,353,0.194,10.593,-0.404,0
330,35.338,-97.491,341.6,30.502,3,353,0.262,11.2,-1.051,0
331,35.338,-97.492,341.5,30.672,3,354,0.646,10.537,0.11,0
332,35.339,-97.492,341.3,30.802,3,354,0.219,10.356,-0.379,0
333,35.339,-97.492,341.3,30.931,3,354,0.304,10.791,-0.866,0
334,35.339,-97.492,341.4,31.09,3,354,0.318,10.876,-0.974,0
335,35.339,-97.492,341.7,31.25,3,354,0.448,10.792,-0.948,0
336,35.34,-97.492,341.8,31.35,3,354,0.379,11.017,-0.599,0
337,35.34,-97.492,341.5,31.4,3,355,0.497,10.904,-0.571,0
338,35.34,-97.492,341.2,31.38,3,354,0.483,10.921,-1.075,0
339,35.341,-97.492,341.3,31.4,3,354,0.467,10.874,-0.872,0
340,35.341,-97.493,341.4,31.36,3,354,0.486,10.815,-0.678,0
341,35.341,-97.493,341.4,31.37,3,354,0.578,11,-0.862,0
342,35.341,-97.493,341.3,31.37,3,354,0.599,10.815,-0.7,0
343,35.342,-97.493,341.3,31.37,3,354,0.52,10.831,-0.83,0
344,35.342,-97.493,341.5,31.39,3,354,0.54,10.715,-0.689,0
345,35.342,-97.493,341.4,31.44,3,353,0.609,10.9,-0.415,0
346,35.342,-97.493,341.1,31.45,3,354,0.559,10.87,-0.89,0
347,35.343,-97.493,341.2,31.47,3,354,0.533,10.939,-1.373,0
348,35.343,-97.493,341.5,31.44,3,354,0.668,11.057,-1.08,0
349,35.343,-97.494,341.6,31.47,3,354,0.797,10.879,-1.589,0
350,35.343,-97.494,341.8,31.45,3,353,0.67,11.013,-1.017,0
351,35.344,-97.494,342.3,31.44,3,353,0.719,10.719,-1.458,0
352,35.344,-97.494,343.3,31.501,3,353,0.645,10.83,-1.355,0
353,35.344,-97.494,344.2,31.622,3,352,0.664,10.904,-1.372,0
354,35.345,-97.494,345.2,31.642,3,351,0.775,10.674,-1.105,0
355,35.345,-97.494,346,31.621,3,351,0.802,10.817,-1.778,0
356,35.345,-97.494,347.4,31.571,3,350,0.763,11.153,-1.535,0
357,35.345,-97.494,348.7,31.48,3,350,0.768,10.868,-1.406,0
358,35.346,-97.494,349.8,31.29,3,351,0.694,10.95,-1.539,0
360,35.346,-97.494,350.8,31.1,3,351,0.649,10.724,-1.257,0
360,35.346,-97.494,350.8,31.1,3,351,0.649,10.724,-1.257,0
361,35.346,-97.494,351.6,30.9,3,351,0.613,10.719,-1.602,0
362,35.347,-97.494,352.6,30.741,3,352,0.565,10.744,-1.275,0
363,35.347,-97.495,353.8,30.651,3,352,0.535,10.794,-1.258,0
364,35.347,-97.495,354.7,30.58,3,352,0.394,11.107,-1.433,0
365,35.347,-97.495,355.7,30.56,3,352,0.414,10.81,-1.521,0
366,35.348,-97.495,356.7,30.541,3,352,0.487,10.849,-1.486,0
367,35.348,-97.495,357.5,30.54,3,352,0.459,10.832,-1.258,0
368,35.348,-97.495,358.3,30.53,3,352,0.435,10.86,-1.376,0
369,35.348,-97.495,358.8,30.561,3,352,0.385,10.802,-1.125,0
370,35.349,-97.495,359.1,30.35,3,352,0.751,10.48,-0.853,0
371,35.349,-97.495,358.9,30.58,3,352,0.438,10.514,-0.475,0
372,35.349,-97.495,359.7,30.681,3,353,0.425,11.05,-2.193,0
373,35.35,-97.495,359.7,30.711,3,354,0.635,10.944,-1.225,0
374,35.35,-97.495,359.8,30.721,3,354,0.45,10.737,-0.881,0
375,35.35,-97.495,359.9,30.741,3,354,0.388,10.957,-0.629,0
376,35.35,-97.495,359.9,30.781,3,354,0.339,11.003,-0.487,0
377,35.351,-97.495,359.7,30.791,3,354,0.403,10.849,-0.801,0
378,35.351,-97.495,359.6,30.821,3,355,0.429,10.95,-0.764,0
379,35.351,-97.495,359.5,30.821,3,355,0.484,10.88,-0.94,0
380,35.351,-97.495,359.6,30.831,3,355,0.469,11.029,-0.831,0
381,35.352,-97.495,359.8,30.821,3,355,0.43,10.751,-0.754,0
382,35.352,-97.495,359.8,30.841,3,356,0.431,10.857,-0.789,0
383,35.352,-97.495,359.9,30.831,3,355,0.515,10.898,-0.868,0
384,35.353,-97.495,359.9,30.821,3,355,0.448,10.889,-0.601,0
385,35.353,-97.495,359.7,30.871,3,355,0.446,10.949,-0.552,0
386,35.353,-97.495,359.5,30.871,3,356,0.479,10.694,-0.237,0
387,35.353,-97.495,359.5,30.891,3,356,0.303,11.014,-0.617,0
388,35.354,-97.495,359.4,30.85,3,356,0.359,10.915,-0.614,0
389,35.354,-97.495,359.5,30.881,3,356,0.514,10.976,-0.513,0
390,35.355,-97.495,359.4,30.84,3,356,0.487,10.801,-1.304,0
391,35.355,-97.495,359.7,30.85,3,356,0.545,10.945,0.029,0
392,35.355,-97.495,359.8,30.851,3,356,0.517,11.06,-0.291,0
393,35.355,-97.495,0,30.91,3,356,0.442,11.05,-0.852,0
394,35.356,-97.495,359.8,30.851,3,356,0.534,10.646,-0.796,0
395,35.356,-97.495,359.6,30.87,3,357,0.563,10.596,-0.92,0
396,35.356,-97.495,359.6,30.92,3,357,0.59,10.793,-0.945,0
397,35.356,-97.495,359.4,30.891,3,357,0.553,11.129,-1.237,0
398,35.357,-97.495,359.5,30.9,3,357,0.49,10.986,-1.195,0
399,35.357,-97.495,359.3,30.881,3,357,0.316,10.892,-0.626,0
400,35.357,-97.495,359.3,30.901,3,358,0.466,10.761,-0.446,0
401,35.358,-97.495,359.3,30.921,3,358,0.656,10.844,-0.907,0
402,35.358,-97.495,359.2,30.871,3,358,0.492,10.662,-0.657,0
403,35.358,-97.495,359.4,30.93,3,359,0.457,10.874,-0.586,0
404,35.358,-97.495,359.4,30.95,3,359,0.43,10.903,-0.821,0
405,35.359,-97.495,359.3,30.931,3,359,0.46,10.992,-0.838,0
406,35.359,-97.495,359.2,30.941,3,359,0.536,10.898,-1.014,0
407,35.359,-97.495,359.4,30.931,3,359,0.549,10.569,-0.883,0
408,35.36,-97.495,359.4,30.94,3,359,0.469,10.931,-1.208,0
409,35.36,-97.495,359.1,30.901,3,359,0.443,10.867,-0.756,0
410,35.36,-97.495,359,30.87,3,359,0.382,10.853,-0.221,0
411,35.36,-97.495,359.1,30.851,3,359,0.447,10.802,-0.971,0
412,35.361,-97.495,359.3,30.781,3,360,0.53,10.931,-0.986,0
413,35.361,-97.495,359.3,30.712,3,360,0.468,11.004,-0.923,0
414,35.361,-97.495,359.3,30.623,3,360,0.545,11.11,-0.834,0
415,35.361,-97.495,359.5,30.554,3,361,0.334,11.063,-1.311,0
416,35.362,-97.495,359.3,30.455,3,362,0.437,10.932,-1.084,0
417,35.362,-97.495,359.3,30.404,3,363,0.145,10.787,-1.425,0
418,35.362,-97.495,359.4,30.433,3,363,0.254,10.771,-0.562,0
419,35.363,-97.495,359.4,30.562,3,363,0.125,10.938,-0.293,0
420,35.363,-97.495,359.4,30.731,3,364,0.222,10.616,-1.032,0
421,35.363,-97.495,359.4,30.87,3,364,0.344,10.4,-0.396,0
422,35.363,-97.495,359.3,31.06,3,364,0.216,11.008,-0.582,0
423,35.364,-97.495,359.4,31.22,3,364,0.552,10.104,-0.825,0
424,35.364,-97.495,359.5,31.401,3,364,0.122,10.836,-0.22,0
425,35.364,-97.495,359.3,31.592,3,364,0.617,10.89,-0.227,0
427,35.365,-97.495,359.2,31.753,3,364,0.749,11.159,-0.695,0
427,35.365,-97.495,359.2,31.753,3,364,0.749,11.159,-0.695,0
428,35.365,-97.495,359.2,31.852,3,364,0.69,11.111,-0.246,0
429,35.365,-97.495,359,31.861,3,364,0.693,11.439,-0.739,0
430,35.365,-97.495,359,31.75,3,363,0.779,10.987,-0.688,0
431,35.366,-97.495,359.3,31.59,3,363,0.925,10.642,-0.62,0
432,35.366,-97.495,359.4,31.4,3,363,0.876,10.751,-1.124,0
433,35.366,-97.495,359.4,31.171,3,364,0.637,10.969,-1.102,0
434,35.367,-97.495,359.4,30.932,3,364,0.532,11.146,-1.071,0
435,35.367,-97.495,359.3,30.752,3,364,0.505,11.076,-0.936,0
436,35.367,-97.495,359.3,30.592,3,365,0.485,10.701,-0.921,0
437,35.367,-97.495,359.4,30.502,3,365,0.42,10.967,-1.009,0
438,35.368,-97.495,359.2,30.28,3,366,0.428,10.936,-0.549,0
439,35.368,-97.495,359.5,30.412,3,366,0.382,10.882,-0.732,0
440,35.368,-97.495,359.4,30.422,3,367,0.371,10.962,-0.767,0
441,35.368,-97.495,359.2,30.432,3,367,0.247,10.943,-0.664,0
442,35.369,-97.495,359.1,30.462,3,368,0.187,10.894,-0.849,0
443,35.369,-97.495,359.2,30.542,3,368,0.391,10.851,-0.825,0
444,35.369,-97.495,359.2,30.632,3,369,0.362,10.754,-0.943,0
445,35.37,-97.495,359.2,30.711,3,369,0.374,10.855,-0.532,0
446,35.37,-97.495,359.4,30.781,3,369,0.373,11.01,-0.858,0
447,35.37,-97.495,359.4,30.86,3,370,0.322,11.133,-0.744,0
448,35.37,-97.495,359,30.88,3,369,0.386,10.773,-0.997,0
449,35.371,-97.495,359,30.98,3,369,0.518,10.854,-0.639,0
450,35.371,-97.495,359.2,31.08,3,370,0.41,11.094,-1.079,0
451,35.371,-97.495,359.1,31.15,3,370,0.507,10.933,-0.714,0
452,35.372,-97.495,359.2,31.18,3,370,0.485,10.923,-0.674,0
453,35.372,-97.495,359.2,31.18,3,370,0.62,10.836,-0.813,0
454,35.372,-97.495,359.3,31.18,3,370,0.423,10.832,-1.18,0
455,35.372,-97.495,359.4,31.19,3,370,0.456,11.076,-1.143,0
456,35.373,-97.495,359.5,31.22,3,370,0.474,10.691,-0.682,0
457,35.373,-97.495,359.3,31.25,3,371,0.427,11.165,-0.453,0
458,35.373,-97.495,359.2,31.23,3,370,0.436,10.925,-0.526,0
459,35.374,-97.495,359.4,31.33,3,371,0.496,10.715,-0.631,0
460,35.374,-97.495,359.2,31.28,3,371,0.526,10.95,-0.468,0
461,35.374,-97.495,359.4,31.36,3,372,0.496,10.741,-1.025,0
462,35.375,-97.495,359.6,31.39,3,372,0.425,10.96,-0.662,0
463,35.375,-97.495,359.8,31.371,3,373,0.632,11.162,-0.909,0
464,35.375,-97.495,359.6,31.232,3,373,0.507,11.163,-1.011,0
465,35.375,-97.495,359.8,31.173,3,373,0.534,11.147,-0.543,0
466,35.376,-97.495,359.9,31.024,3,374,0.44,10.944,-0.57,0
467,35.376,-97.495,359.6,30.904,3,375,0.597,10.838,-0.227,0
468,35.376,-97.495,359.6,30.823,3,375,0.478,10.77,-0.369,0
469,35.377,-97.495,359.7,30.832,3,375,0.523,10.839,-1.08,0
470,35.377,-97.495,359.9,30.871,3,376,0.359,10.757,-0.582,0
471,35.377,-97.495,0,30.931,3,376,0.643,10.75,-1.259,0
472,35.377,-97.495,0,31,3,376,0.637,10.085,-0.63,0
473,35.378,-97.495,0,31.08,3,377,0.5,9.921,-0.146,0
474,35.378,-97.495,359.8,31.21,3,377,1.62,10.414,-0.85,0
475,35.378,-97.495,359.7,31.35,3,377,0.733,10.591,-0.808,0
476,35.379,-97.495,359.6,31.501,3,376,0.502,10.516,-0.767,0
477,35.379,-97.495,359.5,31.612,3,376,0.579,10.834,-0.964,0
478,35.379,-97.495,359.6,31.752,3,375,0.559,10.993,-0.966,0
479,35.379,-97.495,359.8,31.832,3,375,0.64,11.129,-1.124,0
480,35.38,-97.495,359.8,31.872,3,374,0.737,10.875,-0.926,0
481,35.38,-97.495,359.7,31.84,3,374,0.759,10.917,-0.655,0
482,35.38,-97.495,359.8,31.73,3,374,0.93,10.793,-0.689,0
483,35.381,-97.495,359.8,31.6,3,374,0.866,10.673,-0.379,0
484,35.381,-97.495,359.7,31.46,3,374,0.703,10.543,-0.763,0
485,35.381,-97.495,359.6,31.35,3,374,0.644,10.621,-0.769,0
486,35.381,-97.495,359.7,31.3,3,374,0.727,10.826,-0.75,0
487,35.382,-97.495,359.6,31.281,3,374,0.625,10.771,-0.776,0
488,35.382,-97.495,359.7,31.323,3,373,0.656,10.717,-0.781,0
489,35.382,-97.495,359.8,31.435,3,372,0.71,10.568,-0.861,0
490,35.383,-97.495,359.8,31.547,3,372,0.816,10.871,-0.677,0
491,35.383,-97.495,359.8,31.689,3,371,0.726,10.866,-0.747,0
492,35.383,-97.495,359.7,31.838,3,370,0.792,10.914,-0.955,0
493,35.383,-97.495,359.5,31.979,3,369,0.916,10.786,-1.26,0
494,35.384,-97.495,359.7,32.079,3,368,0.859,10.888,-1.375,0
495,35.384,-97.495,359.8,32.157,3,367,1.006,11.059,-1.128,0
496,35.384,-97.495,0,32.155,3,366,0.891,11.561,-1.123,0
497,35.385,-97.495,1.4,31.69,3,367,1.069,11.708,-0.718,0
499,35.385,-97.495,0.8,32.16,3,366,0.968,11.117,-0.999,0
499,35.385,-97.495,0.8,32.16,3,366,0.968,11.117,-0.999,0
500,35.385,-97.495,359.8,31.72,3,366,0.941,11.252,-0.945,0
501,35.385,-97.495,359.5,31.34,3,365,0.774,11.108,-0.797,0
502,35.386,-97.495,359.8,30.84,3,366,0.667,10.812,-0.594,0
503,35.386,-97.495,359.9,30.821,3,365,0.594,10.969,-0.837,0
504,35.386,-97.495,359.8,30.651,3,366,0.572,10.722,-0.953,0
505,35.387,-97.495,359.7,30.55,3,366,0.526,10.681,-0.814,0
506,35.387,-97.495,359.6,30.46,3,366,0.596,10.693,-1.301,0
507,35.387,-97.495,359.8,30.59,3,366,0.561,10.834,-1.126,0
508,35.387,-97.495,359.7,30.66,3,365,0.578,10.948,-0.671,0
509,35.388,-97.495,359.6,30.711,3,365,0.614,11.007,-0.862,0
510,35.388,-97.495,359.6,30.86,3,365,0.629,10.895,-1.346,0
511,35.388,-97.495,359.7,30.85,3,365,0.553,10.872,-0.922,0
512,35.388,-97.495,359.8,30.9,3,365,0.547,10.865,-1.354,0
513,35.389,-97.495,359.9,30.93,3,365,0.625,10.983,-0.788,0
514,35.389,-97.495,359.8,30.98,3,365,0.554,10.796,-0.689,0
515,35.389,-97.495,359.6,31.02,3,364,0.617,10.989,-0.963,0
516,35.39,-97.495,359.8,31.02,3,364,0.593,11.047,-0.878,0
517,35.39,-97.495,359.9,31.03,3,364,0.713,10.923,-0.853,0
518,35.39,-97.495,359.8,31.02,3,364,0.639,10.882,-1.116,0
519,35.39,-97.495,359.7,31.04,3,364,0.609,10.8,-0.935,0
520,35.391,-97.495,359.9,31.05,3,363,0.616,10.73,-1.495,0
521,35.391,-97.495,359.9,31.04,3,363,0.626,10.824,-0.976,0
522,35.391,-97.495,359.8,31.04,3,363,0.526,11.04,-0.919,0
523,35.392,-97.495,359.8,30.99,3,363,0.631,11.165,-0.957,0
524,35.392,-97.495,0.6,30.53,3,363,0.672,10.906,-0.907,0
525,35.392,-97.495,359.7,30.84,3,363,0.687,10.846,-1.174,0
526,35.393,-97.495,359.9,30.681,3,364,0.601,10.916,-0.794,0
527,35.393,-97.495,359.9,30.6,3,364,0.571,10.945,-1.049,0
528,35.393,-97.495,359.9,30.491,3,364,0.553,10.842,-0.976,0
529,35.393,-97.495,359.9,30.381,3,364,0.513,10.765,-0.734,0
530,35.394,-97.495,0.1,30.291,3,364,0.569,10.75,-1.101,0
531,35.394,-97.495,0.3,30.181,3,364,0.563,11.031,-0.796,0
532,35.394,-97.495,0,30.051,3,364,0.595,10.844,-0.348,0
533,35.395,-97.495,359.9,30,3,364,0.503,10.959,-0.835,0
534,35.395,-97.495,359.8,29.971,3,364,0.51,10.96,-0.989,0
535,35.395,-97.495,0.1,29.94,3,365,0.475,10.898,-1.12,0
536,35.395,-97.495,359.9,29.801,3,365,0.553,10.851,-0.778,0
537,35.396,-97.495,0,29.71,3,365,0.713,11.084,-0.763,0
538,35.396,-97.495,0.1,29.5,3,365,0.87,10.899,-0.79,0
539,35.396,-97.495,0,29.161,3,365,0.87,10.898,-0.843,0
540,35.396,-97.495,0,28.8,3,366,0.949,10.817,-1.032,0
541,35.397,-97.495,0.1,28.46,3,365,0.846,10.814,-0.86,0
542,35.397,-97.495,359.8,28.311,3,365,0.701,10.873,-0.684,0
543,35.397,-97.495,359.7,28.391,3,364,0.488,10.716,-0.773,0
544,35.397,-97.495,359.9,28.542,3,364,0.546,10.68,-0.463,0
545,35.398,-97.495,359.9,28.733,3,363,0.644,10.939,-0.719,0
546,35.398,-97.495,359.9,28.933,3,363,0.595,10.731,-0.849,0
547,35.398,-97.495,359.9,29.143,3,362,0.628,11.082,-0.884,0
548,35.399,-97.495,359.9,29.282,3,361,0.629,11.198,-0.736,0
549,35.399,-97.495,359.9,29.381,3,360,0.602,11.342,-0.653,0
550,35.399,-97.495,1.4,28.46,3,360,0.518,11.14,-0.82,0
551,35.399,-97.495,1.9,28.53,3,360,0.58,11.021,-0.792,0
552,35.4,-97.495,0.2,29.421,3,361,0.592,11.039,-0.718,0
553,35.4,-97.495,0.1,29.262,3,361,0.632,11.263,-0.966,0
554,35.4,-97.495,0,29.113,3,362,0.44,11.214,-0.809,0
555,35.4,-97.495,359.9,29.054,3,362,0.376,10.922,-0.643,0
556,35.401,-97.495,359.8,29.033,3,363,0.235,10.786,-1.15,0
557,35.401,-97.495,0,29.123,3,363,0.167,10.647,-1.019,0
558,35.401,-97.495,0,29.292,3,364,0.245,10.576,-1.243,0
559,35.401,-97.495,0.6,29.521,3,364,0.128,10.699,-1.448,0
560,35.402,-97.495,1.9,29.851,3,364,0.164,10.71,-1.432,0
561,35.402,-97.495,3.2,30.23,3,365,0.153,10.658,-1.098,0
562,35.402,-97.495,4.2,30.55,3,365,0.328,10.842,-1.443,0
563,35.403,-97.495,5.1,30.79,3,364,0.382,10.777,-1.446,0
564,35.403,-97.495,5.9,31.021,3,365,0.454,10.826,-1.368,0
565,35.403,-97.495,7,31.121,3,365,0.642,10.416,-2.043,0
566,35.403,-97.495,8,31.26,3,364,0.659,10.781,-1.597,0
568,35.404,-97.495,9.1,31.501,3,364,0.721,10.909,-1.373,0
568,35.404,-97.495,9.1,31.501,3,364,0.721,10.909,-1.373,0
569,35.404,-97.495,10.2,31.521,3,364,0.67,11.155,-1.632,0
570,35.404,-97.495,11.4,31.49,3,364,0.646,11.01,-1.402,0
571,35.404,-97.495,12.4,31.4,3,364,0.763,10.953,-1.476,0
572,35.405,-97.494,13.3,31.29,3,364,0.66,10.999,-0.976,0
573,35.405,-97.494,14.3,31.131,3,364,0.533,11.142,-1.046,0
574,35.405,-97.494,15.4,30.892,3,365,0.579,10.753,-1.214,0
575,35.406,-97.494,16.3,30.722,3,366,0.597,10.734,-1.242,0
576,35.406,-97.494,17.2,30.592,3,366,0.475,10.825,-0.965,0
577,35.406,-97.494,17.5,30.491,3,367,0.532,10.923,-0.418,0
578,35.406,-97.494,17.5,30.461,3,367,0.334,10.967,-1.03,0
579,35.407,-97.494,17.5,30.511,3,368,0.453,10.798,-0.775,0
580,35.407,-97.494,17.3,30.58,3,368,0.553,10.985,-0.528,0
581,35.407,-97.494,17.3,30.7,3,368,0.433,10.934,-1.158,0
582,35.407,-97.493,17.4,30.741,3,369,0.596,10.932,-1.096,0
583,35.408,-97.493,17.3,30.76,3,369,0.398,10.965,-1.212,0
584,35.408,-97.493,17.6,30.811,3,369,0.557,11.019,-0.878,0
585,35.408,-97.493,17.7,30.88,3,369,0.563,11.16,-0.829,0
586,35.408,-97.493,17.6,30.95,3,369,0.608,10.298,-0.62,0
587,35.409,-97.493,17.5,30.96,3,369,0.108,11.191,-1.039,0
588,35.409,-97.493,17.6,31.08,3,369,0.229,10.789,-0.564,0
589,35.409,-97.493,17.6,31.17,3,369,0.523,10.719,-0.699,0
590,35.41,-97.493,17.5,31.23,3,368,0.48,11.121,-1.16,0
591,35.41,-97.493,17.8,31.351,3,368,0.339,10.689,-1.231,0
592,35.41,-97.492,17.5,31.471,3,367,0.557,10.59,-0.515,0
593,35.41,-97.492,17.5,31.562,3,366,0.666,10.851,-0.665,0
594,35.411,-97.492,17.6,31.672,3,365,0.69,11.102,-0.739,0
595,35.411,-97.492,17.4,31.773,3,364,0.858,11.157,-0.702,0
596,35.411,-97.492,17.4,31.783,3,363,0.803,10.83,-1.171,0
597,35.412,-97.492,17.5,31.733,3,362,0.865,10.781,-1.165,0
598,35.412,-97.492,17.5,31.673,3,361,0.954,10.778,-0.659,0
599,35.412,-97.492,17.6,31.583,3,360,0.967,10.812,-0.952,0
600,35.412,-97.492,17.6,31.533,3,359,0.9,10.976,-0.551,0
601,35.413,-97.491,17.6,31.503,3,358,0.821,11.06,-0.864,0
602,35.413,-97.491,17.5,31.453,3,358,0.964,10.929,-0.498,0
603,35.413,-97.491,17.4,31.403,3,357,0.851,10.901,-0.974,0
604,35.414,-97.491,17.5,31.321,3,355,0.855,11.155,-0.786,0
605,35.414,-97.491,17.7,31.19,3,355,0.779,11.351,-1.034,0
606,35.414,-97.491,18.4,31.03,3,355,0.842,11.075,-0.268,0
607,35.414,-97.491,17.8,30.83,3,355,0.789,11.082,-0.754,0
608,35.415,-97.491,17.5,30.621,3,355,0.7,11.303,-0.609,0
609,35.415,-97.491,17.5,30.383,3,356,0.602,11.23,-0.736,0
610,35.415,-97.49,17.6,30.194,3,357,0.483,10.791,-0.704,0
611,35.415,-97.49,17.5,30.093,3,358,0.532,10.795,-0.844,0
612,35.416,-97.49,17.3,30.142,3,359,0.409,10.973,-0.733,0
613,35.416,-97.49,17.5,30.122,3,360,0.326,10.796,-0.963,0
614,35.416,-97.49,17.7,30.191,3,360,0.266,10.641,-0.938,0
615,35.416,-97.49,17.6,30.36,3,360,0.323,10.846,-0.713,0
616,35.417,-97.49,17.5,30.58,3,361,0.483,10.784,-0.365,0
617,35.417,-97.49,17.4,30.78,3,361,0.333,10.742,-0.658,0
618,35.417,-97.49,17.4,30.99,3,360,0.401,10.454,-0.835,0
619,35.418,-97.49,17.5,31.171,3,360,0.549,10.624,-0.943,0
620,35.418,-97.489,17.5,31.351,3,359,0.542,11.019,-0.95,0
621,35.418,-97.489,17.5,31.46,3,359,0.589,10.874,-0.813,0
622,35.418,-97.489,17.6,31.44,3,359,0.632,11.155,-0.66,0
623,35.419,-97.489,17.8,31.35,3,359,0.61,11.204,-0.881,0
624,35.419,-97.489,17.8,31.241,3,359,0.592,11.095,-0.83,0
625,35.419,-97.489,17.7,31.102,3,360,0.62,10.762,-0.802,0
626,35.419,-97.489,18,30.883,3,361,0.51,10.679,-1.146,0
627,35.42,-97.489,19.1,30.742,3,361,0.356,10.77,-1.158,0
628,35.42,-97.489,20.4,30.692,3,362,0.423,10.882,-1.176,0
629,35.42,-97.488,21.2,30.701,3,362,0.51,10.779,-0.986,0
630,35.42,-97.488,21.4,30.751,3,362,0.957,10.348,-0.598,0
631,35.421,-97.488,21.9,30.8,3,362,0.522,10.633,-1.121,0
632,35.421,-97.488,22.4,30.88,3,363,0.428,10.655,-0.571,0
633,35.421,-97.488,22.4,30.97,3,363,0.309,10.619,-0.908,0
634,35.421,-97.488,22.1,31.1,3,363,0.55,10.912,-1.125,0
636,35.422,-97.488,22.1,31.21,3,363,0.558,10.826,-0.543,0
636,35.422,-97.488,22.1,31.21,3,363,0.558,10.826,-0.543,0
637,35.422,-97.488,22.2,31.331,3,363,0.549,10.715,-0.413,0
638,35.422,-97.487,22.1,31.442,3,362,0.598,10.885,-0.882,0
639,35.423,-97.487,22.3,31.532,3,361,0.663,10.617,-0.912,0
640,35.423,-97.487,22.3,31.643,3,360,0.759,10.924,-0.964,0
641,35.423,-97.487,21.8,31.713,3,360,0.71,11.057,-0.998,0
642,35.423,-97.487,21.5,31.752,3,359,0.67,10.917,-0.439,0
643,35.424,-97.487,20.8,31.753,3,358,0.815,11.017,-0.453,0
644,35.424,-97.487,18.9,31.713,3,357,0.921,11.1,-0.211,0
645,35.424,-97.487,16.9,31.633,3,357,0.723,10.896,-0.91,0
646,35.424,-97.487,15.4,31.532,3,356,0.822,11.073,-0.482,0
647,35.425,-97.486,13.8,31.502,3,355,0.787,10.942,-0.7,0
648,35.425,-97.486,12.3,31.611,3,354,0.918,10.784,0.092,0
649,35.425,-97.486,11.1,31.65,3,354,0.992,10.723,-0.123,0
650,35.426,-97.486,9.6,31.402,3,353,0.95,10.786,-0.526,0
651,35.426,-97.486,8,31.441,3,353,0.821,10.824,-1.019,0
652,35.426,-97.486,6.1,31.43,3,353,0.759,10.82,-0.498,0
653,35.426,-97.486,4.7,31.441,3,352,1.054,10.857,-0.774,0
654,35.427,-97.486,3.4,31.162,3,351,0.964,10.754,-1.357,0
655,35.427,-97.486,2,30.902,3,351,1.126,10.768,-1.375,0
656,35.427,-97.486,0.9,30.492,3,350,-0.016,10.859,-1.031,0
657,35.427,-97.486,0.3,30.702,3,350,-0.513,10.969,-1.019,0
658,35.428,-97.486,0.1,31.861,3,350,-0.548,11.021,-0.964,0
659,35.428,-97.486,359.7,32.76,3,349,-0.543,10.811,-1.276,0
660,35.428,-97.486,359.4,32.83,3,349,0.074,10.946,-0.806,0
661,35.429,-97.486,1.4,35.33,3,349,0.956,10.629,-0.681,0
662,35.429,-97.486,1.3,35.52,3,349,1.134,11.129,-0.916,0
663,35.43,-97.486,359.8,34.63,3,348,1.037,10.84,-0.771,0
664,35.43,-97.486,0.2,34.19,3,348,1.059,11.071,-0.873,0
665,35.43,-97.486,359.3,34.662,3,349,0.99,11.185,-0.792,0
666,35.431,-97.486,0.3,33.131,3,349,1.051,11.022,-0.985,0
667,35.431,-97.486,0,32.701,3,349,0.853,10.888,-0.756,0
668,35.431,-97.486,359.8,32.33,3,350,0.823,10.813,-1.467,0
669,35.431,-97.486,359.6,31.951,3,350,0.861,10.707,-0.499,0
670,35.432,-97.486,359.9,31.57,3,350,0.93,10.631,-0.976,0
671,35.432,-97.486,0,31.15,3,350,2.098,10.95,-0.221,0
672,35.432,-97.486,0.1,30.82,3,350,1.096,10.731,-0.512,0
673,35.433,-97.486,359.9,30.52,3,350,0.901,10.802,-0.924,0
674,35.433,-97.486,359.8,30.28,3,350,0.888,10.951,-0.672,0
675,35.433,-97.486,359.7,30.091,3,349,0.763,10.909,-0.732,0
676,35.433,-97.486,359.7,29.931,3,348,0.814,10.896,-0.984,0
677,35.434,-97.486,359.8,29.882,3,348,0.704,11.029,-1.267,0
678,35.434,-97.486,359.9,29.973,3,347,0.59,10.846,-0.846,0
679,35.434,-97.486,0,30.223,3,346,0.491,11.074,-0.969,0
680,35.434,-97.486,0,30.442,3,346,0.191,11.149,-1.322,0
681,35.435,-97.486,0.2,31.041,3,345,0.557,11.021,-0.913,0
682,35.435,-97.486,359.9,31.14,3,346,0.547,11.137,-1.107,0
683,35.435,-97.486,0.3,31.19,3,346,0.447,11.209,-1.042,0
684,35.436,-97.486,359.6,31.59,3,345,0.377,11.034,-1.089,0
685,35.436,-97.486,0.1,31.36,3,346,0.462,10.857,-0.445,0
686,35.436,-97.486,0.1,31.39,3,346,0.474,10.935,-0.873,0
687,35.436,-97.486,0,31.43,3,346,0.708,10.852,-0.612,0
688,35.437,-97.486,359.9,31.23,3,346,0.887,11.203,-0.513,0
689,35.437,-97.486,359.9,30.86,3,346,0.843,11.017,-0.943,0
690,35.437,-97.486,359.9,30.47,3,346,0.881,10.968,-0.839,0
691,35.438,-97.486,0,30.08,3,346,0.762,11.001,-0.391,0
692,35.438,-97.486,0,29.73,3,346,0.81,10.974,-1.059,0
693,35.438,-97.486,0.3,29.36,3,347,0.854,10.843,-1.123,0
694,35.438,-97.486,0.4,29,3,347,0.848,10.919,-0.838,0
695,35.439,-97.486,0.2,28.74,3,347,0.7,10.978,-0.939,0
696,35.439,-97.486,0.1,28.62,3,347,0.694,11.077,-0.611,0
697,35.439,-97.486,0.2,29.17,3,346,0.701,10.826,-0.751,0
698,35.439,-97.486,359.7,28.74,3,346,0.723,10.615,-0.701,0
700,35.44,-97.486,359.6,27.98,3,346,0.742,10.824,-0.775,0
700,35.44,-97.486,359.6,27.98,3,346,0.742,10.824,-0.775,0
701,35.44,-97.486,359.6,27.88,3,346,0.744,10.988,-1.02,0
702,35.44,-97.486,359.7,27.67,3,346,0.776,10.898,-0.855,0
703,35.44,-97.486,0,27.42,3,346,0.926,11.029,-0.676,0
704,35.441,-97.486,359.9,27.06,3,346,0.782,11.017,-1.028,0
705,35.441,-97.486,359.7,26.76,3,347,0.723,11.075,-0.874,0
706,35.441,-97.486,359.8,26.6,3,347,0.701,10.685,-0.979,0
707,35.441,-97.486,0.2,26.5,3,347,0.505,10.957,-0.734,0
708,35.442,-97.486,0.2,26.34,3,348,0.347,10.826,-0.825,0
709,35.442,-97.486,0.1,26.56,3,348,0.097,10.757,-0.93,0
710,35.442,-97.486,0,26.95,3,347,-0.005,11.12,-1.056,0
711,35.442,-97.486,0.2,27.41,3,347,0.445,10.897,-0.775,0
712,35.443,-97.486,0,27.791,3,347,0.65,10.736,-1.015,0
713,35.443,-97.486,359.9,27.991,3,347,0.505,10.888,-0.775,0
714,35.443,-97.486,0,27.911,3,346,0.448,10.774,-0.986,0
715,35.443,-97.486,0,27.992,3,346,0.49,10.816,-0.895,0
716,35.444,-97.486,359.8,28.222,3,345,0.782,11.127,-0.767,0
717,35.444,-97.486,359.7,28.361,3,345,0.926,10.801,-0.763,0
718,35.444,-97.486,359.5,28.341,3,345,0.965,11.034,-1.007,0
719,35.444,-97.486,359.1,28.043,3,344,0.974,11.074,-1.204,0
720,35.445,-97.486,358.5,27.862,3,343,0.954,11.361,-0.862,0
721,35.445,-97.486,357.8,27.671,3,343,0.547,11.071,-1.003,0
722,35.445,-97.486,357.7,28.07,3,342,0.486,11.133,-0.633,0
723,35.445,-97.486,356.1,27.7,3,342,0.432,10.845,-0.291,0
724,35.446,-97.486,355,27.93,3,341,0.44,10.889,-0.701,0
725,35.446,-97.486,354,28.14,3,340,0.561,10.981,-0.577,0
726,35.446,-97.486,353.1,28.31,3,340,0.466,11.101,-1.21,0
727,35.447,-97.486,351.4,28.39,3,339,0.575,10.978,-1.007,0
728,35.447,-97.486,350.3,28.28,3,339,0.737,11.051,-0.758,0
729,35.447,-97.486,349,28.09,3,339,0.855,10.836,-1.001,0
730,35.447,-97.487,348.5,27.81,3,339,0.934,10.775,-0.879,0
731,35.448,-97.487,347.8,27.51,3,338,0.926,10.612,-0.49,0
732,35.448,-97.487,346.6,27.231,3,338,0.757,10.737,-0.824,0
733,35.448,-97.487,345.9,27.201,3,338,0.639,10.893,-0.898,0
734,35.448,-97.487,345.1,27.281,3,337,0.658,10.806,-1.031,0
735,35.449,-97.487,344.1,27.321,3,337,0.63,10.851,-0.788,0
736,35.449,-97.487,343,27.391,3,336,0.652,10.982,-0.451,0
737,35.449,-97.487,341.9,27.401,3,336,0.584,10.872,-0.945,0
738,35.449,-97.487,341.2,27.531,3,336,0.474,11.015,-0.878,0
739,35.449,-97.487,340.4,27.681,3,336,0.513,11.044,-0.995,0
740,35.45,-97.487,339.9,27.68,3,336,0.504,10.827,-0.938,0
741,35.45,-97.487,338.9,27.46,3,336,0.56,10.996,-1.194,0
742,35.45,-97.488,339.2,27.73,3,336,0.554,10.829,-1.058,0
743,35.45,-97.488,339.4,28,3,336,0.786,10.927,-1.045,0
744,35.451,-97.488,339.4,27.741,3,336,0.776,10.934,-0.556,0
745,35.451,-97.488,339.3,27.392,3,337,0.426,10.989,-0.699,0
746,35.451,-97.488,339.2,27.382,3,337,0.205,10.942,-0.76,0
747,35.451,-97.488,339.4,27.542,3,337,0.056,10.632,-0.685,0
748,35.452,-97.488,339.6,27.842,3,337,0.138,10.951,-0.637,0
749,35.452,-97.488,339.7,28.142,3,338,-0.055,11.187,-1.236,0
750,35.452,-97.488,340.3,28.413,3,339,0.134,10.932,-1.386,0
751,35.452,-97.489,340.6,28.693,3,339,0.044,10.822,-1.235,0
752,35.453,-97.489,341,28.963,3,340,0.07,10.753,-0.829,0
753,35.453,-97.489,341,29.183,3,341,0.506,10.888,-0.873,0
754,35.453,-97.489,341,29.013,3,342,0.779,10.742,-0.902,0
755,35.453,-97.489,341,28.632,3,343,0.725,10.56,-1.098,0
756,35.454,-97.489,340.9,28.211,3,343,1.011,10.499,-0.636,0
757,35.454,-97.489,340.9,27.861,3,343,0.891,10.885,-1.41,0
758,35.454,-97.489,341.1,27.57,3,343,0.649,10.606,-0.872,0
759,35.454,-97.489,341.1,27.35,3,343,0.784,10.647,-0.693,0
760,35.454,-97.489,341.1,27.22,3,343,0.915,10.662,-0.765,0
761,35.455,-97.49,340.8,26.991,3,342,0.709,10.705,-0.733,0
762,35.455,-97.49,340.9,26.922,3,341,0.641,10.881,-0.825,0
763,35.455,-97.49,341,27.023,3,340,0.466,11.079,-0.774,0
765,35.455,-97.49,341,27.333,3,340,0.914,10.685,-0.806,0
765,35.455,-97.49,341,27.333,3,340,0.914,10.685,-0.806,0
766,35.456,-97.49,340.8,27.413,3,339,0.737,10.86,-0.534,0
767,35.456,-97.49,340.6,27.284,3,338,0.779,10.766,-0.798,0
768,35.456,-97.49,340.7,27.473,3,337,0.747,11.035,-0.656,0
769,35.456,-97.49,340.7,27.573,3,336,0.841,11.077,-0.356,0
770,35.457,-97.49,340.4,27.452,3,336,1.023,11.243,-0.514,0
771,35.457,-97.49,340.2,27.311,3,336,0.93,11.167,-0.98,0
772,35.457,-97.491,340.2,27.02,3,335,0.915,10.637,-0.925,0
773,35.457,-97.491,340.5,26.74,3,335,0.775,10.763,-1.267,0
774,35.457,-97.491,340.8,26.48,3,335,0.631,10.377,-0.661,0
775,35.458,-97.491,340.9,26.43,3,335,0.496,10.824,-1.003,0
776,35.458,-97.491,341,26.441,3,336,0.478,10.469,-1.197,0
777,35.458,-97.491,341,26.391,3,336,0.559,10.53,-0.6,0
778,35.458,-97.491,340.8,26.321,3,337,0.617,10.777,-1.195,0
779,35.459,-97.491,340.7,26.221,3,337,0.939,10.746,-1.417,0
780,35.459,-97.491,340.7,26.031,3,338,1.007,10.794,-1.426,0
781,35.459,-97.491,340.8,25.57,3,339,1.023,10.943,-1.107,0
782,35.459,-97.491,341.1,25.22,3,339,1.17,10.556,-1.225,0
783,35.459,-97.492,341.2,24.771,3,339,0.739,10.573,-1.361,0
784,35.46,-97.492,341.7,24.341,3,340,0.559,10.987,-1.379,0
785,35.46,-97.492,342.3,24.08,3,341,-0.204,11.009,-1.274,0
786,35.46,-97.492,342.1,24.48,3,341,-0.075,11.014,-1.349,0
787,35.46,-97.492,341.8,25.281,3,341,-0.281,10.862,-0.846,0
788,35.461,-97.492,341.5,25.941,3,341,-0.326,10.762,-0.703,0
789,35.461,-97.492,340.8,26.73,3,341,-0.024,10.771,-1.203,0
790,35.461,-97.492,340.3,27.77,3,342,0.405,11.115,-1.217,0
791,35.461,-97.492,339.6,27.731,3,343,0.589,11.013,0.031,0
792,35.462,-97.493,336.7,27.75,3,343,0.687,11.51,1.695,0
793,35.462,-97.493,332.7,27.661,3,342,0.751,10.983,2.494,0
794,35.462,-97.493,332.1,28.07,3,343,0.726,10.988,1.955,0
795,35.462,-97.493,329,27.15,3,343,0.729,10.972,2.265,0
796,35.463,-97.493,326,26.61,5,343,0.774,11.075,1.943,0
797,35.463,-97.493,315.4,26.86,3,343,0.945,10.994,1.94,0
798,35.463,-97.494,312,26.551,3,343,0.993,11.265,1.777,0
799,35.463,-97.494,308.5,25.911,3,343,1.044,10.791,1.87,0
800,35.463,-97.494,304.3,25.57,3,344,1.008,10.95,1.723,0
801,35.463,-97.494,300.4,25.02,3,344,1.232,10.838,1.671,0
802,35.463,-97.495,297.5,24.41,3,344,1.189,10.97,1.489,0
803,35.463,-97.495,295.4,23.91,3,344,0.421,10.787,-0.124,0
804,35.463,-97.495,295.3,24.05,3,344,-0.063,10.89,-1.493,0
805,35.464,-97.495,295.7,24.65,3,344,-0.174,10.892,-1.502,0
806,35.464,-97.496,296,25.34,3,344,0.441,10.918,-1.143,0
807,35.464,-97.496,296,25.48,3,344,0.323,10.995,-0.548,0
808,35.464,-97.496,295.8,25.6,3,343,0.407,11.023,-1.344,0
809,35.464,-97.496,296.1,25.5,3,343,0.575,10.913,-1.029,0
810,35.464,-97.497,296.2,25.4,3,344,0.296,10.947,-0.663,0
811,35.464,-97.497,296,25.43,3,344,0.494,10.908,-0.916,0
812,35.464,-97.497,296.2,25.51,3,344,0.35,10.922,-1.131,0
813,35.464,-97.497,296.7,25.59,3,343,0.279,10.962,-1.037,0
814,35.464,-97.498,297.8,25.72,3,343,0.396,10.834,-1.643,0
815,35.465,-97.498,300.4,25.85,3,343,0.403,10.942,-1.659,0
816,35.465,-97.498,302.2,25.88,3,343,0.411,10.873,-1.712,0
817,35.465,-97.498,304.6,25.87,3,343,0.469,10.735,-1.437,0
818,35.465,-97.499,306.7,25.98,3,344,0.426,10.793,-1.591,0
819,35.465,-97.499,308.5,25.92,3,344,0.332,11.079,-1.542,0
820,35.465,-97.499,310,26.2,3,344,0.386,11.156,-1.843,0
821,35.465,-97.499,312.2,26.23,3,344,0.342,10.726,-1.613,0
822,35.466,-97.499,314.1,26.33,3,344,0.325,11.35,-1.532,0
823,35.466,-97.5,316,26.71,3,344,0.041,11.085,-1.212,0
824,35.466,-97.5,318,27.25,3,345,-0.024,10.877,-1.181,0
825,35.466,-97.5,319.9,27.96,3,346,-0.204,9.99,-1.495,0
826,35.466,-97.5,322.2,28.62,3,346,-0.034,11.091,-1.258,0
827,35.467,-97.5,323.6,29.22,3,346,0.196,10.784,-0.319,0
828,35.467,-97.501,324.4,29.56,3,345,0.255,11.602,-0.708,0
829,35.467,-97.501,324.5,29.821,3,346,0.036,10.665,-0.545,0
830,35.467,-97.501,324.5,30.132,3,346,-0.144,11.223,-0.904,0
831,35.467,-97.501,325,30.725,3,347,0.076,11.395,-1.232,0
833,35.468,-97.501,324.9,31.221,3,348,0.484,11.225,1.035,0
833,35.468,-97.501,324.9,31.221,3,348,0.484,11.225,1.035,0
834,35.468,-97.502,324.2,31.638,3,349,-0.243,10.753,1.003,0
835,35.468,-97.502,323.9,32.207,3,351,0.023,10.74,1.629,0
836,35.468,-97.502,323.3,32.838,3,352,-0.446,10.765,0.968,0
837,35.469,-97.502,323.1,33.385,3,353,-0.291,10.608,1.148,0
838,35.469,-97.502,323,34.014,3,354,0.864,10.757,1.098,0
839,35.469,-97.503,322.4,33.862,3,354,1.104,10.632,1.041,0
840,35.469,-97.503,322.1,33.142,3,355,1.393,10.464,0.68,0
841,35.47,-97.503,321.8,32.512,3,356,1.126,10.623,1.025,0
842,35.47,-97.503,321.7,31.952,3,356,1.853,11.595,0.533,0
843,35.47,-97.504,321.3,31.401,3,357,1.171,10.697,0.824,0
844,35.47,-97.504,321.2,30.9,3,357,1.18,10.806,0.642,0
845,35.47,-97.504,321.3,30.39,3,357,1.111,11.118,0.673,0
846,35.471,-97.504,321.5,29.93,3,358,1.135,11.08,0.872,0
847,35.471,-97.504,321.8,29.57,3,358,1.067,11.075,1.146,0
848,35.471,-97.505,321.8,29.21,3,358,0.978,10.912,1.03,0
849,35.471,-97.505,321.5,28.85,3,358,1.079,10.837,1.33,0
850,35.472,-97.505,321.1,28.52,3,357,1.104,11.374,1.078,0
851,35.472,-97.505,320.8,28.19,3,357,0.872,11.08,0.883,0
852,35.472,-97.505,320.6,27.85,3,357,1.033,10.8,0.652,0
853,35.472,-97.506,320.3,27.54,3,357,0.941,10.69,0.637,0
854,35.472,-97.506,320.3,27.23,3,357,0.914,10.779,0.812,0
855,35.472,-97.506,320.5,26.981,3,357,0.826,11.105,1.04,0
856,35.473,-97.506,320.7,26.74,3,357,0.897,10.746,1.093,0
857,35.473,-97.506,320.3,26.762,3,356,0.93,10.693,0.835,0
858,35.473,-97.507,320.3,26.713,3,356,0.757,10.599,1.072,0
859,35.473,-97.507,320.5,26.694,3,355,0.491,10.902,1.119,0
860,35.473,-97.507,320.5,26.904,3,354,0.607,10.783,1.093,0
861,35.474,-97.507,320.5,27.345,3,353,0.486,10.977,0.749,0
862,35.474,-97.507,320.6,28.032,3,353,0.854,11.059,0.429,0
863,35.474,-97.508,321.8,28.053,3,351,0.908,11.215,-1.056,0
864,35.474,-97.508,323.5,27.9,3,351,0.509,11.192,-1.909,0
865,35.475,-97.508,326.1,28.191,3,349,0.448,11.178,-1.775,0
866,35.475,-97.508,328.3,27.99,3,349,0.516,11.09,-1.678,0
867,35.475,-97.508,330,27.771,3,350,0.706,11.028,-1.369,0
868,35.475,-97.508,331.5,27.58,3,349,0.709,10.567,-1.574,0
869,35.475,-97.509,333.3,27.42,3,349,0.645,10.608,-1.621,0
870,35.476,-97.509,335.1,27.33,3,348,0.743,10.636,-1.564,0
871,35.476,-97.509,337.1,27.31,3,348,0.615,10.667,-1.505,0
872,35.476,-97.509,338.7,27.41,3,348,0.604,10.807,-1.593,0
873,35.476,-97.509,340.8,27.451,3,348,0.709,10.983,-1.71,0
874,35.477,-97.509,342.8,27.501,3,347,0.661,10.699,-1.547,0
875,35.477,-97.509,344.6,27.481,3,347,0.84,10.746,-1.769,0
876,35.477,-97.509,346.4,27.321,3,346,0.849,10.914,-1.373,0
877,35.477,-97.509,347.9,27.271,3,345,0.642,11.063,-1.626,0
878,35.478,-97.509,349.7,27.28,3,345,0.502,11.059,-1.685,0
879,35.478,-97.509,351.6,27.33,3,345,0.58,11.235,-1.497,0
880,35.478,-97.509,351.3,27.68,3,344,0.467,11.079,-1.595,0
881,35.478,-97.51,352.3,27.91,3,345,0.551,11.009,-1.392,0
882,35.479,-97.51,355.2,27.33,4,344,0.486,10.951,-1.131,0
883,35.479,-97.51,357,27.131,3,345,0.316,10.88,-0.925,0
884,35.479,-97.51,357.1,27.161,3,346,0.654,10.825,-1.016,0
885,35.479,-97.51,356.9,27.011,3,346,0.548,11.004,-0.738,0
886,35.48,-97.51,356.8,26.931,3,346,0.628,10.846,-0.797,0
887,35.48,-97.51,356.7,26.8,3,346,0.523,10.766,-1.036,0
888,35.48,-97.51,356.5,26.76,3,346,0.449,10.731,-0.904,0
889,35.48,-97.51,355.6,26.85,3,346,0.604,10.947,-0.902,0
890,35.481,-97.51,354.8,26.85,3,345,0.769,10.814,-1.039,0
891,35.481,-97.51,354.2,26.66,3,345,0.897,11.011,-1.023,0
892,35.481,-97.51,353.5,26.3,3,344,0.933,10.91,-0.785,0
893,35.481,-97.51,352.8,25.98,3,344,0.831,10.839,-0.914,0
894,35.481,-97.51,352.1,25.77,3,344,0.566,11.018,-0.821,0
895,35.482,-97.51,351.7,25.81,3,344,0.557,10.961,-0.665,0
896,35.482,-97.51,351,25.87,3,343,0.573,11.033,-1.16,0
897,35.482,-97.51,350.3,25.92,3,342,0.544,11.139,-1.144,0
898,35.482,-97.51,350.7,25.6,3,343,0.513,11.096,-0.998,0
899,35.483,-97.51,351.8,25.37,3,343,0.556,11.067,-0.803,0
901,35.483,-97.51,348.3,25.813,3,344,0.549,11.056,-0.649,0
901,35.483,-97.51,348.3,25.813,3,344,0.549,11.056,-0.649,0
902,35.483,-97.51,347.5,25.543,3,344,0.517,11.06,-1.027,0
903,35.483,-97.51,347,25.365,3,345,0.498,10.965,-1.041,0
904,35.483,-97.51,347,25.165,3,346,0.183,10.999,-0.931,0
905,35.484,-97.51,346.8,24.995,3,347,-0.464,10.708,-0.725,0
906,35.484,-97.51,346.8,25.715,3,348,-0.279,10.776,-0.841,0
907,35.484,-97.51,347.1,26.286,3,348,-0.246,10.881,-1.232,0
908,35.484,-97.511,347.6,26.746,3,349,-0.065,10.685,-1.179,0
909,35.485,-97.511,348.2,27.036,3,350,-0.117,10.859,-1.092,0
910,35.485,-97.511,349.1,27.297,3,350,-0.252,10.869,-1.532,0
911,35.485,-97.511,350.3,27.736,3,351,-0.475,10.302,-0.3,0
912,35.485,-97.511,351.3,28.105,3,351,-0.484,10.856,-0.793,0
913,35.486,-97.511,352.4,28.725,3,352,-0.02,11.214,-1.584,0
914,35.486,-97.511,353,29.087,3,353,0.819,10.724,-1.341,0
915,35.486,-97.511,353.8,28.567,3,354,0.836,10.42,-1.623,0
916,35.486,-97.511,354.9,27.916,3,354,1.038,11.166,-1.708,0
917,35.487,-97.511,356.1,27.235,3,355,0.951,10.76,-1.42,0
918,35.487,-97.511,357.3,26.654,3,356,0.756,10.393,-1.08,0
919,35.487,-97.511,358.2,26.172,3,356,0.676,10.668,-1.057,0
920,35.487,-97.511,358.5,26.001,3,357,0.402,11.141,-1.411,0
921,35.488,-97.511,358.8,25.92,3,357,0.454,10.815,-1.344,0
922,35.488,-97.511,359.9,25.9,3,357,0.587,10.719,-1.087,0
923,35.488,-97.511,0,26.03,3,358,0.569,10.944,-1.026,0
924,35.488,-97.511,0.3,26.1,3,358,0.249,10.963,-0.521,0
925,35.489,-97.511,0.4,26.32,3,358,0.241,10.902,-1.048,0
926,35.489,-97.511,0.3,26.7,3,357,0.118,11.07,-0.876,0
927,35.489,-97.511,359.8,27.19,3,357,0.329,11.044,-0.998,0
928,35.49,-97.511,357,27.84,3,357,0.368,10.723,-0.324,0
929,35.49,-97.511,355.1,27.98,3,356,0.773,11.166,-0.917,0
930,35.49,-97.511,353.5,27.87,3,356,0.721,10.829,-0.132,0
931,35.49,-97.511,352,27.6,3,356,1.018,10.697,-1.215,0
932,35.491,-97.511,350.1,27.27,3,355,0.919,11.219,-0.732,0
933,35.491,-97.511,348.3,27.12,3,355,0.864,10.84,-1.026,0
934,35.491,-97.511,346.9,26.87,3,355,0.748,10.839,-0.754,0
935,35.491,-97.511,345.5,26.78,3,355,0.206,10.659,-0.641,0
936,35.491,-97.511,344.2,27.11,3,354,0.307,11.172,-0.898,0
937,35.492,-97.511,343.2,27.44,3,354,0.31,11.126,-0.713,0
938,35.492,-97.512,342.5,27.61,3,354,0.748,11.263,-0.804,0
939,35.492,-97.512,341.8,27.55,3,354,0.675,11.326,0.083,0
940,35.492,-97.512,339.8,27.43,3,354,0.681,10.785,1.989,0
941,35.493,-97.512,336.8,27.311,3,353,0.306,11.504,1.18,0
942,35.493,-97.512,335.2,27.49,3,354,0.47,10.892,1.043,0
943,35.493,-97.512,334.6,27.81,3,353,0.445,11.121,0.852,0
944,35.493,-97.512,334.6,28.181,3,353,0.482,11.071,0.77,0
945,35.494,-97.512,334.6,28.351,3,353,0.608,10.654,0.471,0
946,35.494,-97.513,334.6,28.501,3,352,0.835,10.882,0.84,0
947,35.494,-97.513,334.6,28.513,3,352,0.694,10.878,0.197,0
948,35.494,-97.513,335.7,28.564,3,351,0.902,10.963,-0.879,0
949,35.494,-97.513,337.1,28.485,3,350,0.824,10.642,-1.538,0
950,35.495,-97.513,339.1,28.546,3,349,0.513,10.733,-1.601,0
951,35.495,-97.513,340.7,28.766,3,348,0.434,10.804,-1.774,0
952,35.495,-97.513,342.6,29.097,3,347,0.719,10.901,-1.824,0
953,35.495,-97.513,344.4,29.336,3,346,0.721,10.803,-1.697,0
954,35.496,-97.513,345.9,29.646,3,345,0.698,10.83,-1.278,0
955,35.496,-97.514,347.6,29.936,3,345,0.775,10.772,-1.851,0
956,35.496,-97.514,349.6,30.196,3,344,-0.318,10.753,-1.488,0
957,35.497,-97.514,351.1,30.317,3,343,1.224,11.212,-1.664,0
958,35.497,-97.514,352.8,30.605,3,342,0.433,10.859,-1.899,0
959,35.497,-97.514,354.9,31.076,3,341,0.36,10.636,-1.649,0
960,35.497,-97.514,356.6,31.556,3,340,0.404,10.875,-1.593,0
961,35.498,-97.514,357.9,32.006,3,339,0.742,10.852,-0.82,0
962,35.498,-97.514,358,32.077,3,338,0.947,10.884,-1.193,0
963,35.498,-97.514,358.3,32.027,3,337,1.049,11.078,-0.842,0
964,35.499,-97.514,358.4,31.984,3,336,1.005,11.215,-0.712,0
965,35.499,-97.514,358.2,31.842,3,335,0.941,11.119,-0.777,0
966,35.499,-97.514,358.2,31.73,3,335,0.668,10.966,-0.9,0
967,35.499,-97.514,358.2,31.68,3,335,0.842,10.909,-0.762,0
969,35.5,-97.514,358.2,31.56,3,335,0.915,11.029,-0.623,0
969,35.5,-97.514,358.2,31.56,3,335,0.915,11.029,-0.623,0
970,35.5,-97.514,358,31.25,3,335,0.883,11.081,-0.935,0
971,35.5,-97.514,358,30.9,3,334,0.825,10.895,-0.918,0
972,35.5,-97.514,358.1,30.75,3,334,0.839,10.819,-0.776,0
973,35.501,-97.514,358.2,30.52,3,334,0.847,10.978,-0.725,0
974,35.501,-97.514,358.1,30.23,3,334,0.867,10.854,-0.734,0
975,35.501,-97.514,358.2,30.09,3,334,0.898,10.871,-0.633,0
976,35.502,-97.514,358.1,29.87,3,334,0.872,10.812,-0.886,0
977,35.502,-97.514,358,29.56,3,334,0.816,10.912,-0.752,0
978,35.502,-97.514,357.9,29.2,3,334,0.794,11.131,-0.892,0
979,35.502,-97.514,357.9,29.01,3,334,0.677,11.124,-0.917,0
980,35.503,-97.514,358,28.87,3,335,0.556,11.115,-0.897,0
981,35.503,-97.514,358.2,28.84,3,335,0.484,11.035,-0.956,0
982,35.503,-97.514,358.2,28.9,3,335,0.575,10.967,-0.969,0
983,35.503,-97.514,358.2,28.92,3,335,0.537,11.143,-0.944,0
984,35.504,-97.514,358.1,28.98,3,335,0.287,11.016,-0.996,0
985,35.504,-97.514,358.3,29.031,3,336,0.493,10.706,-0.708,0
986,35.504,-97.514,358.4,28.94,3,336,0.937,10.806,-1.407,0
987,35.504,-97.514,358.1,28.63,3,337,0.86,10.704,-0.893,0
988,35.505,-97.514,357.6,28.22,3,337,0.769,10.723,-0.94,0
989,35.505,-97.514,357.2,27.82,3,337,0.744,10.786,-1.177,0
990,35.505,-97.514,356.5,27.59,3,337,0.644,10.914,-1.165,0
991,35.505,-97.514,355.8,27.48,3,336,0.819,10.818,-0.735,0
992,35.506,-97.514,354.5,27.41,3,336,0.525,11.003,-0.916,0
993,35.506,-97.514,353.3,27.36,3,335,0.544,10.877,-1.025,0
994,35.506,-97.514,352.4,27.46,3,335,0.451,10.945,-0.976,0
995,35.506,-97.514,352.1,27.6,3,335,0.467,10.861,-1.039,0
996,35.507,-97.514,352.1,27.76,3,335,0.575,11.003,-0.818,0
997,35.507,-97.514,352.4,27.85,3,335,0.554,11.161,-0.87,0
998,35.507,-97.514,352.5,27.78,3,334,0.566,10.925,-0.802,0
999,35.508,-97.514,352.3,27.68,3,334,0.759,10.872,-0.902,0
1000,35.508,-97.514,352.2,27.36,3,334,0.839,10.797,-0.825,0
1001,35.508,-97.514,352.2,26.98,3,334,0.87,10.841,-0.937,0
1002,35.508,-97.515,352.2,26.74,3,334,0.688,10.817,-0.544,0
1003,35.509,-97.515,352.1,26.691,3,334,0.676,11.225,-0.503,0
1004,35.509,-97.515,351.9,26.831,3,333,0.511,10.808,-0.578,0
1005,35.509,-97.515,351.7,27.021,3,333,0.495,10.753,-0.779,0
1006,35.509,-97.515,351.9,27.232,3,332,0.568,10.796,-0.989,0
1007,35.51,-97.515,352.1,27.402,3,332,0.842,10.786,-1.016,0
1008,35.51,-97.515,352.3,27.363,3,331,0.788,10.653,-0.864,0
1009,35.51,-97.515,352.3,27.413,3,330,0.633,10.923,-0.707,0
1010,35.51,-97.515,352.1,27.633,3,329,0.471,11.066,-0.783,0
1011,35.511,-97.515,351.9,27.872,3,328,0.373,10.873,-1.035,0
1012,35.511,-97.515,351.5,28.122,3,328,0.481,10.702,-1.104,0
1013,35.511,-97.515,351.6,28.412,3,327,0.552,10.944,-1.091,0
1014,35.511,-97.515,351.1,28.732,3,326,0.58,10.765,-0.716,0
1015,35.512,-97.515,349.8,28.933,3,326,0.878,10.853,-0.438,0
1016,35.512,-97.515,347.9,28.912,3,325,0.905,10.924,-0.677,0
1017,35.512,-97.515,346.3,28.952,3,325,0.688,10.957,-0.68,0
1018,35.512,-97.515,345.1,29.041,3,324,0.695,11.079,-1.038,0
1019,35.513,-97.515,344.8,29.001,3,324,0.816,10.987,-0.988,0
1020,35.513,-97.515,344.7,28.851,3,324,0.899,11.052,-1.27,0
1021,35.513,-97.516,345,28.731,3,324,0.831,11.17,-1.284,0
1022,35.513,-97.516,345.1,28.53,3,324,0.852,11.036,-0.836,0
1023,35.514,-97.516,345.1,28.34,3,324,0.787,10.989,-0.635,0
1024,35.514,-97.516,345,28.24,3,324,0.805,10.767,-0.888,0
1025,35.514,-97.516,345.1,28.1,3,323,0.93,10.821,-1.022,0
1026,35.514,-97.516,345.3,27.84,3,323,0.997,10.92,-0.68,0
1027,35.515,-97.516,345.2,27.54,3,323,1.068,10.646,-0.919,0
1028,35.515,-97.516,345.3,27.24,3,323,1.003,10.817,-0.884,0
1029,35.515,-97.516,345,27,3,323,0.943,10.803,-0.835,0
1030,35.515,-97.516,345,26.85,3,323,0.74,10.939,-0.944,0
1031,35.516,-97.516,345.2,26.71,3,323,0.492,10.959,-0.98,0
1032,35.516,-97.516,345.3,26.8,3,322,0.412,10.809,-0.435,0
1033,35.516,-97.517,345.1,26.99,3,322,0.508,11.045,-0.732,0
1034,35.516,-97.517,344.9,27.23,3,322,0.468,10.934,-0.947,0
1035,35.516,-97.517,344.7,27.261,3,322,0.411,10.826,-1.087,0
1037,35.517,-97.517,345.1,27.63,3,321,0.451,10.702,-1.172,0
1037,35.517,-97.517,345.1,27.63,3,321,0.451,10.702,-1.172,0
1038,35.517,-97.517,345.2,27.94,3,321,0.476,11.043,-0.672,0
1039,35.517,-97.517,345.1,28.151,3,320,0.426,10.492,-1.028,0
1040,35.517,-97.517,345.2,28.251,3,319,0.613,10.83,-1.083,0
1041,35.518,-97.517,345.5,28.241,3,319,0.843,10.866,-0.714,0
1042,35.518,-97.517,346,28.221,3,319,0.863,10.943,-1.69,0
1043,35.518,-97.517,347.5,28.07,3,318,0.723,10.562,-1.502,0
1044,35.518,-97.517,349.5,27.971,3,318,0.667,10.881,-1.61,0
1045,35.519,-97.517,351.7,28.021,3,318,0.504,10.748,-1.438,0
1046,35.519,-97.517,354.3,28.11,3,318,0.969,10.908,-1.411,0
1047,35.519,-97.517,356.5,28.111,3,317,0.787,10.745,-1.918,0
1048,35.519,-97.517,358.9,28,3,316,0.778,10.75,-1.831,0
1049,35.52,-97.517,1.1,27.961,3,316,0.762,11.128,-1.427,0
