time,lat,lng,bearing,spd,acc,alt,accx,accy,accz,stable,
0,35.28,-97.485,145.1,27.26,15.17,328,-1.564,1.403,9.335,0
1,35.28,-97.485,135.3,27.07,13.653,329,-0.721,1.219,9.271,0
2,35.279,-97.484,133.6,26.53,13.653,329,0.198,1.31,9.457,0
3,35.279,-97.484,134.2,26.43,13.653,329,0.214,1.431,9.396,0
4,35.279,-97.484,134.3,26.52,13.653,330,0.283,1.717,9.214,0
5,35.279,-97.484,134.4,26.96,13.653,330,0.074,1.533,9.18,0
6,35.279,-97.483,135.1,27.5,13.653,328,0.221,1.204,9.299,0
7,35.279,-97.483,135.6,27.25,15.17,327,1.368,1.117,9.535,0
8,35.278,-97.483,138.6,27.77,15.17,326,2.115,1.139,9.742,0
9,35.278,-97.483,145.3,27.43,13.653,325,1.912,1.183,9.797,0
10,35.278,-97.483,146.4,27.12,15.17,325,1.874,1.182,9.746,0
11,35.278,-97.483,154.3,27.8,15.17,326,2.133,1.538,9.488,0
12,35.278,-97.483,160,27.57,13.653,326,0.833,1.704,9.46,0
13,35.277,-97.482,162.2,28.06,15.17,327,-0.089,1.734,9.489,0
14,35.277,-97.482,163,28.2,13.653,326,-0.226,1.683,9.355,0
15,35.277,-97.482,162.4,28.27,13.653,326,-0.308,1.434,9.526,0
16,35.277,-97.482,162.7,28.6,13.653,326,-0.264,1.193,9.484,0
17,35.276,-97.482,162.4,28.45,13.653,326,-0.251,1.174,9.749,0
18,35.276,-97.482,162.2,28.3,13.653,326,-0.277,1.118,9.556,0
19,35.276,-97.482,162.5,27.93,13.653,325,-0.218,1.139,9.66,0
20,35.276,-97.482,162.2,27.78,13.653,324,-0.198,1.205,9.504,1
21,35.275,-97.482,162,27.75,13.653,325,-0.01,1.42,9.542,1
22,35.275,-97.482,162,27.5,15.17,325,-0.127,1.49,9.557,1
23,35.275,-97.482,161.4,26.78,15.17,327,-0.203,1.653,9.477,1
24,35.275,-97.481,162.6,28.15,15.17,325,-0.173,1.619,9.462,1
25,35.274,-97.481,163.1,28.46,13.653,325,-0.318,1.347,9.621,1
26,35.274,-97.481,163.2,28.26,13.653,325,-0.168,1.482,9.574,1
27,35.274,-97.481,163.1,28.63,15.17,324,-0.111,1.502,9.552,1
28,35.274,-97.481,163.2,28.71,15.17,323,-0.212,1.525,9.634,1
29,35.273,-97.481,163.7,28.29,15.17,323,-0.354,1.518,9.547,1
30,35.273,-97.481,163.4,28.49,15.17,323,-0.412,1.52,9.541,1
31,35.273,-97.481,163.8,28.79,15.17,324,-0.384,1.527,9.529,1
32,35.273,-97.481,163.5,28.85,15.17,322,-0.368,1.541,9.547,1
33,35.272,-97.481,163.8,29.39,15.17,323,-0.338,1.549,9.522,1
34,35.272,-97.481,163.4,28.54,15.17,322,-0.2,1.543,9.511,1
35,35.272,-97.48,163.1,28.01,15.17,323,-0.164,1.573,9.5,1
36,35.272,-97.48,163.2,28.51,15.17,323,-0.197,1.614,9.473,1
37,35.271,-97.48,163.5,27.83,13.653,325,-0.354,1.65,9.48,1
38,35.271,-97.48,163.8,28.14,13.653,325,-0.341,1.698,9.406,1
39,35.271,-97.48,163.6,28.54,13.653,325,-0.347,1.699,9.423,1
40,35.271,-97.48,164.2,28.16,13.653,327,-0.267,1.678,9.424,1
41,35.27,-97.48,163,28.03,13.653,327,-0.278,1.684,9.495,1
42,35.27,-97.48,162.8,28.08,13.653,328,-0.159,1.683,9.471,1
43,35.27,-97.48,163.5,28.72,13.653,328,-0.014,1.653,9.368,1
44,35.27,-97.48,163.3,28.35,13.653,328,0.106,1.655,9.326,1
45,35.269,-97.479,163.2,28.96,13.653,330,0.036,1.651,9.388,1
46,35.269,-97.479,163,28.4,13.653,329,-0.257,1.63,9.346,1
47,35.269,-97.479,162.2,28.52,13.653,328,-0.515,1.603,9.394,1
48,35.269,-97.479,160.8,28.67,13.653,329,-0.329,1.585,9.435,1
49,35.268,-97.479,159.9,28.94,13.653,329,-0.143,1.569,9.476,1
50,35.268,-97.479,159.4,28.66,13.653,328,-0.329,1.526,9.43,1
51,35.268,-97.479,158.6,29.07,15.17,326,-0.37,1.505,9.451,1
52,35.268,-97.479,157.4,28.98,15.17,327,-0.282,1.487,9.472,1
53,35.267,-97.479,156.8,29.46,15.17,327,-0.222,1.457,9.446,1
54,35.267,-97.478,156.2,29.31,13.653,328,-0.255,1.366,9.448,1
55,35.267,-97.478,155.6,29.17,15.17,328,-0.265,1.325,9.587,1
56,35.267,-97.478,154.7,28.79,13.653,327,-0.243,1.279,9.552,1
57,35.266,-97.478,154.4,28.85,15.17,327,-0.31,1.263,9.57,1
58,35.266,-97.478,153.9,28.6,15.17,326,-0.244,1.264,9.61,1
59,35.266,-97.478,153.6,28.72,15.17,326,-0.329,1.252,9.585,1
60,35.266,-97.478,149.5,27.9,15.17,324,-0.346,1.234,9.553,1
61,35.266,-97.477,150.4,28.04,15.17,325,-0.313,1.191,9.621,1
62,35.265,-97.477,150.1,27.59,15.17,325,-0.192,1.099,9.614,1
63,35.265,-97.477,148.9,27.14,13.653,324,-0.077,1.093,9.561,1
65,35.265,-97.477,148.7,27.07,13.653,322,-0.228,1.116,9.657,1
66,35.265,-97.477,147.7,26.3,13.653,322,-0.184,1.144,9.746,1
67,35.265,-97.477,147.8,26.1,13.653,322,-0.119,1.131,9.642,1
68,35.264,-97.476,146.6,25.79,13.653,321,-0.181,1.111,9.593,1
69,35.264,-97.476,146,25.14,13.653,322,-0.178,1.148,9.62,1
70,35.264,-97.476,145.5,24.85,13.653,322,-0.173,1.149,9.603,1
71,35.264,-97.476,144.2,24.41,13.653,321,-0.034,1.141,9.678,1
72,35.264,-97.476,144.1,23.95,13.653,322,0.036,1.135,9.632,1
73,35.263,-97.476,143.9,23.32,13.653,323,0,0.815,9.678,1
74,35.263,-97.476,143.8,22.46,13.653,325,-0.063,0.231,9.781,1
75,35.263,-97.475,143.9,21.2,13.653,324,-0.193,0.063,9.828,1
76,35.263,-97.475,143.8,19.34,13.653,324,-0.3,0.019,9.854,1
77,35.263,-97.475,144.3,17.58,13.653,325,-0.438,-0.014,9.863,1
78,35.263,-97.475,143.7,15.87,13.653,326,-0.477,-0.082,9.847,1
79,35.263,-97.475,143.4,14.24,13.653,326,-0.444,-0.122,9.889,1
80,35.263,-97.475,143,12.37,13.653,327,-0.351,-0.198,9.883,1
81,35.262,-97.475,142.9,10.44,13.653,328,-0.326,-0.308,9.902,1
82,35.262,-97.475,143.3,8.63,13.653,328,-0.324,-0.215,9.875,1
83,35.262,-97.475,143.3,6.77,13.653,328,-0.331,0.039,9.832,1
84,35.262,-97.475,143.3,5.2,13.653,328,-0.339,0.236,9.783,1
85,35.262,-97.475,144.1,4.66,13.653,329,-0.33,0.495,9.76,1
86,35.262,-97.475,143,2.78,13.653,328,-0.32,0.711,9.673,1
87,35.262,-97.475,142.9,2.09,13.653,328,-0.323,0.9,9.633,1
88,35.262,-97.475,142.9,2.09,13.653,328,-0.321,1.028,9.601,1
89,35.262,-97.475,142.9,0.75,13.653,328,-0.322,0.921,9.626,1
90,35.262,-97.475,142.9,0.75,13.653,328,-0.303,1.474,9.5,1
91,35.262,-97.475,0,0,13.653,329,-0.301,1.566,9.471,1
92,35.262,-97.475,0,0,13.653,329,-0.307,1.59,9.471,1
93,35.262,-97.475,0,0,13.653,329,-0.304,1.594,9.466,1
94,35.262,-97.475,0,0,13.653,329,-0.312,1.597,9.468,1
95,35.262,-97.475,0,0,13.653,329,-0.301,1.597,9.466,1
96,35.262,-97.475,0,0,13.653,329,-0.303,1.597,9.463,1
97,35.262,-97.475,0,0,13.653,329,-0.314,1.596,9.466,1
98,35.262,-97.475,0,0,13.653,329,-0.307,1.598,9.464,1
99,35.262,-97.475,0,0,13.653,329,-0.301,1.596,9.469,1
100,35.262,-97.475,0,0,13.653,329,-0.298,1.598,9.467,1
101,35.262,-97.475,0,0,13.653,329,-0.304,1.596,9.465,1
102,35.262,-97.475,0,0,13.653,329,-0.303,1.597,9.466,1
103,35.262,-97.475,0,0,13.653,329,-0.304,1.595,9.467,1
104,35.262,-97.475,0,0,13.653,329,-0.305,1.594,9.466,1
105,35.262,-97.475,0,0,13.653,329,-0.257,3.82,8.884,1
106,35.262,-97.475,0,0,13.653,329,-0.212,4.759,8.651,1
107,35.262,-97.475,0,0,13.653,329,-0.236,4.555,8.705,1
108,35.262,-97.475,141.2,7.15,13.653,330,-0.261,4.487,8.704,1
109,35.262,-97.475,144.7,10.57,13.653,329,-0.383,3.584,8.921,1
110,35.262,-97.474,143.9,12.52,13.653,329,-0.364,2.964,9.088,1
111,35.262,-97.474,143.5,14.26,13.653,329,-0.297,2.47,9.203,1
112,35.262,-97.474,144.9,14.75,13.653,329,-0.304,2.188,9.286,1
113,35.262,-97.474,144,15.27,13.653,329,-0.246,2.174,9.322,1
114,35.262,-97.474,143.2,16.39,13.653,330,-0.242,2.18,9.305,1
115,35.261,-97.474,143.8,17.68,13.653,330,-0.269,2.195,9.345,1
116,35.261,-97.474,144.4,18.37,13.653,331,-0.316,2.172,9.319,1
117,35.261,-97.474,143.1,19.11,13.653,331,-0.296,2.154,9.311,1
118,35.261,-97.473,142.8,19.53,13.653,331,-0.289,2.147,9.342,1
119,35.261,-97.473,143.2,20.13,13.653,331,-0.309,2.117,9.332,1
120,35.261,-97.473,143.5,20.55,13.653,330,-0.261,2.114,9.356,1
121,35.26,-97.473,143.5,21.01,13.653,331,-0.224,2.091,9.337,1
122,35.26,-97.473,143.6,21.76,13.653,331,-0.257,2.077,9.406,1
123,35.26,-97.473,143.5,22.18,13.653,330,-0.246,2.045,9.373,1
124,35.26,-97.473,143.5,22.62,13.653,330,-0.293,2.019,9.373,1
125,35.26,-97.472,143.6,23.2,13.653,330,-0.332,1.94,9.337,1
126,35.26,-97.472,142.1,22.95,13.653,329,-0.315,1.373,9.463,1
127,35.259,-97.472,143.5,23.35,13.653,329,-0.293,1.401,9.495,1
128,35.259,-97.472,143.8,23.15,13.653,329,-0.241,1.573,9.517,1
129,35.259,-97.472,143.8,23.27,13.653,329,-0.285,1.699,9.476,1
130,35.259,-97.472,143.6,23.49,13.653,329,-0.336,1.888,9.509,1
131,35.259,-97.472,143.6,23.9,13.653,329,-0.345,1.904,9.423,1
132,35.259,-97.471,143.8,24.14,13.653,330,-0.291,1.904,9.415,1
133,35.258,-97.471,143.4,24.47,13.653,330,-0.196,1.876,9.425,1
134,35.258,-97.471,143.5,24.71,13.653,330,-0.315,1.843,9.392,1
135,35.258,-97.471,143.3,24.91,13.653,329,-0.367,1.444,9.51,1
137,35.258,-97.471,144.1,25.14,13.653,331,-0.389,1.409,9.484,1
138,35.258,-97.471,143.4,24.68,13.653,330,-0.354,1.428,9.523,1
139,35.258,-97.47,143.4,24.63,13.653,329,-0.268,1.55,9.476,1
140,35.257,-97.47,143.8,24.58,13.653,330,-0.231,1.5,9.459,1
141,35.257,-97.47,143.8,24.45,13.653,330,-0.255,1.642,9.463,1
142,35.257,-97.47,143.9,24.62,13.653,329,-0.36,1.714,9.399,1
143,35.257,-97.47,143.8,24.83,13.653,329,-0.391,1.723,9.435,1
144,35.257,-97.47,143.7,24.97,13.653,329,-0.338,1.455,9.574,1
145,35.256,-97.469,143.5,24.74,13.653,328,-0.289,1.2,9.56,1
146,35.256,-97.469,143.4,24.41,13.653,328,-0.262,1.243,9.457,1
147,35.256,-97.469,143.5,24.11,13.653,328,-0.295,1.62,9.435,1
148,35.256,-97.469,143.5,24.44,13.653,327,-0.286,1.752,9.438,1
149,35.256,-97.469,143.7,24.69,13.653,327,-0.253,1.764,9.41,1
150,35.256,-97.469,143.7,24.86,13.653,327,-0.26,1.553,9.494,1
151,35.255,-97.468,143.9,25,13.653,327,-0.273,1.224,9.536,1
152,35.255,-97.468,143.8,24.76,13.653,327,-0.336,1.195,9.534,1
153,35.255,-97.468,143.6,24.48,13.653,327,-0.381,1.556,9.45,1
154,35.255,-97.468,143.5,24.71,13.653,326,-0.364,1.666,9.412,1
155,35.255,-97.468,143.2,24.96,13.653,326,-0.269,1.413,9.513,1
156,35.254,-97.468,143.2,24.84,13.653,326,-0.234,1.612,9.434,1
157,35.254,-97.467,143.3,25,13.653,325,-0.188,1.556,9.442,1
158,35.254,-97.467,143.8,25.23,13.653,324,-0.228,1.49,9.509,1
159,35.254,-97.467,143.7,25.28,13.653,324,-0.285,1.439,9.544,1
160,35.254,-97.467,143.8,25.36,13.653,324,-0.317,1.391,9.481,1
161,35.254,-97.467,143.9,25.29,13.653,324,-0.319,1.206,9.535,1
162,35.253,-97.467,143.6,25.11,13.653,322,-0.294,1.152,9.605,1
163,35.253,-97.467,143.6,24.76,13.653,322,-0.25,1.139,9.575,1
164,35.253,-97.466,143.6,24.47,13.653,321,-0.291,1.324,9.524,1
165,35.253,-97.466,143.8,24.35,13.653,321,-0.392,1.492,9.489,1
166,35.253,-97.466,143.5,24.4,13.653,321,-0.313,1.541,9.546,1
167,35.252,-97.466,143.5,24.52,13.653,321,-0.225,1.49,9.51,1
168,35.252,-97.466,143.6,24.51,13.653,321,-0.251,1.401,9.531,1
169,35.252,-97.466,143.6,24.51,13.653,321,-0.274,1.32,9.56,1
170,35.252,-97.465,144.9,24.78,13.653,321,-0.312,1.274,9.591,1
171,35.252,-97.465,143.3,24.07,13.653,321,-0.29,1.284,9.545,1
172,35.252,-97.465,143.6,23.92,13.653,321,-0.257,1.346,9.518,1
173,35.251,-97.465,143.7,23.83,13.653,321,-0.297,1.388,9.519,1
174,35.251,-97.465,143.8,23.66,13.653,321,-0.324,1.439,9.477,1
175,35.251,-97.465,143.5,23.58,13.653,321,-0.395,1.472,9.55,1
176,35.251,-97.464,143.5,23.67,13.653,321,-0.289,1.492,9.604,1
177,35.251,-97.464,143.2,23.75,13.653,320,-0.278,1.499,9.596,1
178,35.251,-97.464,143.6,23.61,13.653,321,-0.292,1.503,9.552,1
179,35.25,-97.464,143.4,23.51,13.653,320,-0.293,1.511,9.545,1
180,35.25,-97.464,143.8,23.39,13.653,321,-0.29,1.509,9.533,1
181,35.25,-97.464,143.7,22.96,13.653,319,-0.283,1.525,9.492,1
182,35.25,-97.463,143.9,22.93,13.653,319,-0.29,1.551,9.471,1
183,35.25,-97.463,143.6,22.98,13.653,319,-0.291,1.593,9.419,1
184,35.249,-97.463,143.5,22.9,4.551,319,-0.311,1.645,9.485,1
185,35.249,-97.463,143.7,22.87,6.068,319,-0.31,1.632,9.404,1
186,35.249,-97.463,143.3,22.92,4.551,320,-0.29,1.64,9.471,1
187,35.249,-97.463,143.4,22.91,4.551,321,-0.286,1.641,9.421,1
188,35.249,-97.463,143.3,23.03,4.551,321,-0.287,1.67,9.444,1
189,35.249,-97.462,143.5,23.04,4.551,320,-0.218,1.69,9.453,1
190,35.248,-97.462,143.5,23.16,6.068,321,-0.186,1.703,9.453,1
191,35.248,-97.462,143.7,23.31,6.068,320,-0.205,1.709,9.427,1
192,35.248,-97.462,143.8,23.41,6.068,320,-0.18,1.731,9.416,1
193,35.248,-97.462,143.9,23.69,6.068,319,-0.229,1.724,9.442,1
194,35.248,-97.462,143.9,23.81,6.068,319,-0.208,1.736,9.418,1
195,35.248,-97.461,143.9,23.96,6.068,318,-0.313,1.709,9.416,1
196,35.247,-97.461,143.9,23.96,7.585,318,-0.37,1.69,9.44,1
197,35.247,-97.461,143.2,24.23,6.068,319,-0.351,1.65,9.385,1
198,35.247,-97.461,143.6,24.28,6.068,319,-0.279,1.618,9.357,1
200,35.247,-97.461,143.5,24.26,7.585,319,-0.044,1.581,9.35,1
201,35.247,-97.461,144.2,24.51,7.585,318,-0.036,1.57,9.397,1
202,35.246,-97.461,144,24.4,7.585,318,-0.253,1.589,9.463,1
203,35.246,-97.46,143.2,24.89,6.068,317,-0.104,1.551,9.473,1
204,35.246,-97.46,144.4,24.78,7.585,317,0.099,1.507,9.455,1
205,35.246,-97.46,145.4,24.75,7.585,317,0.177,1.502,9.5,1
206,35.246,-97.46,146.4,24.75,7.585,317,0.136,1.488,9.524,1
207,35.246,-97.46,148.7,24.54,6.068,314,0.125,1.48,9.599,1
208,35.245,-97.46,148.2,24.14,6.068,315,0.104,1.494,9.533,1
209,35.245,-97.459,149.3,24.65,6.068,314,0.045,1.483,9.485,1
210,35.245,-97.459,150,24.49,6.068,314,-0.033,1.5,9.513,1
211,35.245,-97.459,150,24.48,9.102,315,0.051,1.495,9.477,1
212,35.245,-97.459,151.7,24.36,7.585,315,0.067,1.516,9.491,1
213,35.244,-97.459,152.3,24.59,9.102,316,-0.045,1.535,9.491,1
214,35.244,-97.459,152.6,24.46,7.585,318,-0.204,1.556,9.534,1
215,35.244,-97.459,152.6,24.61,7.585,319,-0.293,1.543,9.482,1
216,35.244,-97.459,152.6,24.6,10.619,319,-0.311,1.552,9.467,1
217,35.244,-97.458,152.7,24.48,9.102,320,-0.346,1.535,9.47,1
218,35.243,-97.458,152.3,24.15,9.102,321,-0.326,1.537,9.494,1
219,35.243,-97.458,152.3,24.2,7.585,322,-0.307,1.546,9.479,1
220,35.243,-97.458,152,23.97,7.585,323,-0.295,1.554,9.499,1
221,35.243,-97.458,152.4,24.19,7.585,324,-0.252,1.544,9.489,1
222,35.243,-97.458,152.7,24.73,7.585,324,-0.249,1.543,9.514,1
223,35.242,-97.458,152.5,24.69,9.102,326,-0.21,1.539,9.444,1
224,35.242,-97.458,152.7,24.81,7.585,326,-0.211,1.535,9.467,1
225,35.242,-97.457,152.6,24.38,7.585,326,-0.147,1.553,9.517,1
226,35.242,-97.457,153,24.5,7.585,326,-0.256,1.566,9.511,1
227,35.242,-97.457,153,24.49,9.102,327,-0.274,1.551,9.451,1
228,35.241,-97.457,153.3,24.58,6.068,328,-0.322,1.543,9.467,1
229,35.241,-97.457,152.9,24.3,6.068,328,-0.372,1.551,9.466,1
230,35.241,-97.457,152.8,24.33,7.585,327,-0.366,1.548,9.466,1
231,35.241,-97.457,152.5,24.43,6.068,327,-0.324,1.543,9.478,1
232,35.241,-97.457,152.1,24.24,6.068,328,-0.279,1.531,9.447,1
233,35.241,-97.456,152.2,24.21,6.068,329,-0.246,1.554,9.48,1
234,35.24,-97.456,152.4,24.43,6.068,329,-0.206,1.561,9.443,1
235,35.24,-97.456,152.7,24.51,7.585,329,-0.23,1.533,9.426,1
236,35.24,-97.456,152.5,24.35,7.585,326,-0.236,1.518,9.404,1
237,35.24,-97.456,152.7,24.25,6.068,327,-0.29,1.528,9.393,1
238,35.24,-97.456,152.7,24.34,6.068,328,-0.317,1.55,9.476,1
239,35.239,-97.456,152.5,24.34,6.068,328,-0.32,1.539,9.469,1
240,35.239,-97.456,152.9,24.6,6.068,328,-0.31,1.528,9.496,1
241,35.239,-97.455,153,24.29,6.068,328,-0.201,1.501,9.464,1
242,35.239,-97.455,152.9,24.63,6.068,329,-0.119,1.515,9.572,1
243,35.239,-97.455,153.2,24.53,6.068,327,-0.019,1.502,9.526,1
244,35.238,-97.455,153.6,24.67,6.068,327,0.201,1.507,9.485,1
245,35.238,-97.455,154.7,24.62,6.068,327,0.331,1.502,9.478,1
246,35.238,-97.455,156.2,24.54,6.068,328,0.166,1.531,9.481,1
247,35.238,-97.455,157.7,24.57,6.068,328,-0.024,1.551,9.541,1
248,35.238,-97.455,157.9,24.51,6.068,329,-0.015,1.517,9.525,1
249,35.237,-97.455,158.8,24.54,6.068,329,0.107,1.25,9.555,1
250,35.237,-97.454,159.7,24.18,6.068,328,0.08,1.172,9.588,1
251,35.237,-97.454,160.5,23.74,6.068,329,-0.049,1.159,9.54,1
252,35.237,-97.454,161.1,23.67,6.068,329,-0.123,1.166,9.576,1
253,35.237,-97.454,162.1,23.22,6.068,330,-0.045,1.366,9.505,1
254,35.236,-97.454,162.6,22.86,6.068,330,-0.176,1.267,9.538,1
255,35.236,-97.454,162.7,22.43,13.653,329,-0.285,1.462,9.5,1
256,35.236,-97.454,163,22.19,13.653,329,-0.275,1.325,9.521,1
257,35.236,-97.454,163.3,22.25,13.653,329,-0.227,1.202,9.521,1
258,35.236,-97.454,163.5,21.9,13.653,329,-0.247,1.198,9.575,1
259,35.235,-97.454,164.9,21.28,13.653,328,-0.241,1.201,9.558,1
260,35.235,-97.454,163.2,21.37,13.653,328,-0.177,1.192,9.578,1
261,35.235,-97.454,163.9,20.84,13.653,329,0.324,1.177,9.541,1
262,35.235,-97.454,166.7,20.08,13.653,329,1.001,0.955,9.513,1
263,35.234,-97.454,167.7,19.85,15.17,330,0.953,0.458,9.632,1
264,35.234,-97.454,172.5,18.59,15.17,331,-0.248,1.065,9.723,1
265,35.234,-97.453,171.2,18.11,15.17,331,-0.775,1.175,9.57,1
266,35.234,-97.453,169.6,17.69,15.17,332,-0.108,0.523,9.726,1
267,35.234,-97.453,169.6,17.54,15.17,333,0.397,-0.124,9.867,1
268,35.234,-97.453,171.3,16.42,16.687,332,0.592,-0.375,9.884,1
269,35.234,-97.453,174.1,12.94,15.17,333,0.568,-0.349,9.854,1
270,35.233,-97.453,177.7,10.85,15.17,332,0.217,-0.473,9.912,1
271,35.233,-97.453,177.9,9.06,15.17,332,0.116,0.727,9.625,1
272,35.233,-97.453,177.7,8.64,15.17,334,0.161,1.044,9.543,1
273,35.233,-97.453,177.3,9,15.17,334,0.146,1.117,9.526,1
274,35.233,-97.453,178,8.55,15.17,334,-0.16,1.186,9.563,1
275,35.233,-97.453,179.1,8.15,15.17,334,-1.016,1.157,9.547,1
276,35.233,-97.453,166.8,7.95,15.17,333,-1.781,2.049,9.386,1
277,35.233,-97.453,154.3,8.89,15.17,333,-2.3,1.61,9.532,1
278,35.233,-97.453,137,8.99,15.17,332,-2.448,1.789,9.466,1
279,35.233,-97.453,128.7,9.72,15.17,332,-3.789,1.873,9.34,0
280,35.233,-97.453,98.5,10.78,15.17,331,-2.203,2.527,9.21,0
281,35.233,-97.453,95.2,11.11,15.17,332,-0.86,3.33,9.014,0
282,35.233,-97.453,96.9,13.66,15.17,331,-0.464,3.377,9.039,0
284,35.233,-97.453,98.9,15.34,16.687,331,-0.208,3.257,9.162,0
285,35.233,-97.452,96.3,17.75,16.687,330,-0.259,2.381,9.334,0
286,35.233,-97.452,90.9,20.39,15.17,329,-0.231,1.573,9.602,0
287,35.233,-97.452,90.5,20.3,15.17,329,-0.143,1.329,9.832,0
288,35.233,-97.452,89.9,20.22,15.17,328,-0.227,1.25,9.752,0
289,35.233,-97.451,90.1,19.94,15.17,328,-0.204,1.561,9.671,0
290,35.233,-97.451,90.3,19.77,16.687,328,-0.244,1.905,9.568,1
291,35.233,-97.451,90.2,19.91,18.204,328,-0.239,1.991,9.601,1
292,35.233,-97.451,89.9,20.58,18.204,329,-0.103,1.658,9.635,1
293,35.233,-97.451,89,20.7,18.204,328,-0.062,1.433,9.645,1
294,35.233,-97.45,88.8,20.23,18.204,328,-0.118,1.397,9.636,1
295,35.233,-97.45,90.4,19.67,16.687,328,-0.41,1.525,9.556,1
296,35.233,-97.45,90.2,19.27,16.687,328,-0.279,1.684,9.409,1
297,35.233,-97.45,90,19.09,16.687,328,-0.187,1.684,9.45,1
298,35.233,-97.449,89.8,18.88,16.687,328,-0.19,1.651,9.346,1
299,35.233,-97.449,90,18.81,16.687,328,-0.161,1.745,9.323,1
300,35.233,-97.449,89.5,18.69,16.687,328,-0.116,1.749,9.28,1
301,35.233,-97.449,90.1,18.77,15.17,328,-0.087,1.528,9.417,1
304,35.233,-97.448,92.3,18.01,13.653,327,-0.112,1.212,9.464,1
305,35.233,-97.448,92,17.83,15.17,327,-0.471,1.365,9.448,1
306,35.233,-97.448,92.2,17.48,13.653,327,-0.484,1.712,9.44,1
307,35.233,-97.448,91.7,17.71,13.653,327,-0.452,1.797,9.368,1
308,35.233,-97.447,90.9,18.13,13.653,329,-0.318,1.822,9.408,1
309,35.233,-97.447,91.6,18.51,13.653,328,-0.299,1.504,9.5,1
310,35.233,-97.447,90.4,18.61,13.653,327,-0.37,1.284,9.545,1
311,35.233,-97.447,91.1,18.29,13.653,329,-0.377,1.236,9.553,1
312,35.233,-97.447,91.1,18.03,13.653,328,-0.378,1.218,9.543,1
313,35.233,-97.446,90.8,17.8,13.653,327,-0.292,1.278,9.582,1
314,35.233,-97.446,90.9,17.64,13.653,326,-0.276,1.58,9.438,1
315,35.233,-97.446,90.1,17.79,13.653,327,-0.048,1.699,9.422,1
316,35.233,-97.446,90.7,18.13,13.653,327,-0.065,1.575,9.425,1
317,35.233,-97.446,91.9,18.21,15.17,327,-0.341,0.451,9.755,1
318,35.233,-97.445,92.2,17.39,15.17,328,-0.434,0.073,9.819,1
319,35.233,-97.445,90.9,15.75,15.17,326,-0.422,-0.156,9.895,1
320,35.233,-97.445,90,15.01,15.17,326,-0.431,-0.65,10.029,0
321,35.233,-97.445,89.5,12.2,15.17,325,-0.422,-0.861,10.065,0
322,35.233,-97.445,89.7,9.65,15.17,327,-0.4,-0.964,10.097,0
323,35.233,-97.445,90.1,7.07,15.17,326,-0.362,-0.398,9.968,0
324,35.233,-97.445,89.5,4.95,13.653,326,-0.36,0.014,9.851,0
325,35.233,-97.445,86.1,3.66,15.17,327,-0.341,0.389,9.757,0
326,35.233,-97.445,77.1,2.34,13.653,325,-0.337,0.786,9.667,0
327,35.233,-97.445,77.2,1.68,15.17,325,-0.326,0.975,9.618,0
328,35.233,-97.445,77.2,1.14,15.17,325,-0.327,1.094,9.589,0
329,35.233,-97.445,77.2,1.14,15.17,325,-0.329,1.177,9.541,0
330,35.233,-97.445,77.2,1.14,15.17,325,-0.316,1.44,9.505,0
331,35.233,-97.445,0,0,15.17,325,-0.329,1.513,9.493,0
332,35.233,-97.445,0,0,15.17,325,-0.32,1.527,9.488,1
333,35.233,-97.445,0,0,15.17,325,-0.323,1.53,9.49,1
334,35.233,-97.445,0,0,15.17,325,-0.319,1.527,9.489,1
335,35.233,-97.445,0,0,15.17,325,-0.311,1.529,9.486,1
336,35.233,-97.445,0,0,15.17,325,-0.314,1.531,9.488,1
337,35.233,-97.445,0,0,15.17,325,-0.313,1.532,9.485,1
338,35.233,-97.445,0,0,15.17,325,-0.318,1.529,9.488,1
339,35.233,-97.445,0,0,15.17,325,-0.322,1.529,9.49,1
340,35.233,-97.445,0,0,15.17,325,-0.316,1.528,9.485,1
341,35.233,-97.445,0,0,15.17,325,-0.31,1.527,9.486,1
342,35.233,-97.445,0,0,15.17,325,-0.307,1.525,9.486,1
343,35.233,-97.445,0,0,15.17,325,-0.31,1.53,9.488,1
344,35.233,-97.445,0,0,15.17,325,-0.309,1.529,9.488,1
345,35.233,-97.445,0,0,15.17,325,-0.317,1.531,9.485,1
346,35.233,-97.445,0,0,15.17,325,-0.322,1.525,9.486,1
347,35.233,-97.445,0,0,15.17,325,-0.323,1.527,9.487,1
348,35.233,-97.445,0,0,15.17,325,-0.309,1.527,9.486,1
349,35.233,-97.445,0,0,15.17,328,-0.311,1.528,9.488,1
350,35.233,-97.445,0,0,15.17,328,-0.311,1.544,9.468,1
351,35.233,-97.445,0,0,15.17,328,-0.287,2.93,9.163,1
352,35.233,-97.445,0,0,15.17,328,-0.28,2.944,9.131,1
353,35.233,-97.445,91.5,2.19,16.687,329,-0.327,2.877,9.195,1
354,35.233,-97.445,91.6,4.98,15.17,330,-0.268,2.851,9.156,1
355,35.233,-97.444,93.2,6.13,15.17,331,-0.297,2.673,9.176,1
356,35.233,-97.444,94.8,7.11,15.17,332,-0.318,2.535,9.22,1
357,35.233,-97.444,94,7.92,15.17,331,-0.342,2.444,9.27,1
358,35.233,-97.444,93.2,8.89,15.17,332,-0.39,2.67,9.21,1
359,35.233,-97.444,92.3,9.93,15.17,332,-0.312,2.55,9.212,1
360,35.233,-97.444,91,10.85,15.17,333,-0.341,2.37,9.276,1
361,35.233,-97.444,89.9,11.69,16.687,333,-0.347,2.314,9.296,1
362,35.233,-97.444,90.9,12.38,16.687,333,-0.263,2.191,9.317,1
363,35.233,-97.444,90.4,12.7,16.687,331,-0.3,1.647,9.458,1
364,35.233,-97.443,90.5,12.69,16.687,331,-0.302,1.427,9.499,1
365,35.233,-97.443,90.2,12.3,15.17,333,-0.345,1.261,9.552,1
366,35.233,-97.443,90,12.07,15.17,330,-0.334,1.219,9.58,1
367,35.233,-97.443,89.4,11.76,15.17,329,-0.337,1.201,9.56,1
368,35.233,-97.443,91.1,11.23,13.653,327,-0.298,1.21,9.592,1
369,35.233,-97.443,90.1,10.86,13.653,326,-0.272,1.194,9.57,1
370,35.233,-97.443,90.9,10.58,13.653,326,-0.323,1.188,9.575,1
371,35.233,-97.443,90.1,10.1,13.653,324,-0.356,1.17,9.583,1
372,35.233,-97.442,91.6,9.53,13.653,325,-0.311,0.791,9.691,1
373,35.233,-97.442,90.4,8.41,13.653,325,-0.325,0.866,9.663,1
374,35.233,-97.442,90.4,7.99,13.653,323,-0.323,1.172,9.568,1
375,35.233,-97.442,90,7.68,13.653,323,-0.3,1.178,9.563,1
376,35.233,-97.442,89.5,6.85,15.17,323,-0.324,0.005,9.832,1
377,35.233,-97.442,90.2,4.83,15.17,324,-0.331,0.614,9.72,1
378,35.233,-97.442,87,4.47,15.17,324,-0.32,1.06,9.609,1
379,35.233,-97.442,87.4,4.08,15.17,324,-0.335,0.853,9.634,1
380,35.233,-97.442,87.1,3.4,15.17,324,-0.34,0.518,9.722,1
381,35.233,-97.442,90.7,2.26,15.17,323,-0.341,1.199,9.566,1
382,35.233,-97.442,89.8,2.27,15.17,323,-0.347,1.538,9.487,1
383,35.233,-97.442,88.6,2.29,15.17,323,-0.351,1.694,9.455,1
384,35.233,-97.442,93.5,2.45,15.17,323,-0.334,2.099,9.342,1
386,35.233,-97.442,96.1,3.27,15.17,323,-0.321,2.691,9.189,1
387,35.233,-97.442,94.9,4.41,15.17,324,-0.331,2.713,9.183,1
388,35.233,-97.442,92.3,5.65,15.17,324,-0.345,2.87,9.175,1
389,35.233,-97.442,92,6.99,15.17,324,-0.327,2.782,9.168,1
390,35.233,-97.442,91.4,8.19,15.17,325,-0.329,2.634,9.193,1
391,35.233,-97.441,91.2,9.32,13.653,324,-0.35,2.496,9.267,1
392,35.233,-97.441,90.7,10.11,13.653,324,-0.216,2.369,9.294,1
393,35.233,-97.441,89.2,10.9,13.653,325,-0.252,2.32,9.291,1
394,35.233,-97.441,90.9,11.65,13.653,327,-0.259,2.132,9.338,1
395,35.233,-97.441,90.9,11.94,13.653,327,-0.322,1.927,9.372,1
396,35.233,-97.441,90.3,12.52,13.653,327,-0.3,1.424,9.511,1
397,35.233,-97.441,90.5,12.26,13.653,327,-0.288,1.383,9.551,1
398,35.233,-97.441,90.7,12.09,13.653,328,-0.279,1.515,9.467,1
399,35.233,-97.44,90.6,12.03,13.653,328,-0.284,1.731,9.441,1
400,35.233,-97.44,90.9,12.25,13.653,328,-0.289,2.042,9.379,1
401,35.233,-97.44,90.6,12.7,13.653,328,-0.305,2.13,9.339,1
402,35.233,-97.44,90.5,13.21,15.17,327,-0.31,2.124,9.33,1
403,35.233,-97.44,90.5,13.73,15.17,327,-0.365,2.12,9.33,1
404,35.233,-97.44,90.2,14.25,15.17,327,-0.308,2.11,9.369,1
405,35.233,-97.439,90.3,14.77,15.17,326,-0.295,1.931,9.378,1
406,35.233,-97.439,90.3,15,15.17,326,-0.272,1.936,9.406,1
407,35.233,-97.439,90,15.35,15.17,326,-0.274,2,9.37,1
408,35.233,-97.439,90.5,15.78,15.17,326,-0.263,1.931,9.388,1
409,35.233,-97.439,90.2,16.15,15.17,326,-0.261,1.841,9.407,1
410,35.233,-97.439,90,16.37,15.17,326,-0.29,1.794,9.372,1
411,35.233,-97.438,90.5,16.61,15.17,326,-0.319,1.751,9.332,1
412,35.233,-97.438,90.8,16.77,15.17,326,-0.344,1.437,9.488,1
413,35.233,-97.438,89.9,16.87,15.17,326,-0.321,1.291,9.588,1
414,35.233,-97.438,89.9,16.82,15.17,328,-0.293,1.257,9.577,1
415,35.233,-97.438,89.9,16.24,13.653,326,-0.288,1.25,9.578,1
416,35.233,-97.438,89.9,16.12,13.653,325,-0.252,1.268,9.648,1
417,35.233,-97.437,89.9,15.67,13.653,326,-0.209,1.409,9.585,1
418,35.233,-97.437,90.3,15.42,13.653,325,-0.358,1.679,9.461,1
419,35.233,-97.437,90.3,15.45,13.653,326,-0.366,1.731,9.432,1
420,35.233,-97.437,90.4,15.68,13.653,325,-0.341,1.71,9.411,1
421,35.233,-97.437,90.2,15.85,15.17,325,-0.346,1.715,9.448,1
422,35.233,-97.436,90.1,15.99,15.17,325,-0.299,1.713,9.441,1
423,35.233,-97.436,90.2,16.13,15.17,324,-0.255,1.792,9.391,1
424,35.233,-97.436,90,16.35,15.17,324,-0.21,1.845,9.425,1
425,35.233,-97.436,91.5,16.42,15.17,322,-0.238,1.846,9.379,1
426,35.233,-97.436,90.2,16.66,15.17,322,-0.293,1.845,9.378,1
427,35.233,-97.436,90.3,17.06,15.17,323,-0.291,1.841,9.41,1
428,35.233,-97.435,90.4,17.24,15.17,323,-0.291,1.769,9.442,1
429,35.233,-97.435,90.5,17.5,15.17,323,-0.288,1.397,9.479,1
430,35.233,-97.435,90.4,17.37,15.17,323,-0.264,1.24,9.398,1
431,35.233,-97.435,89.9,17.09,15.17,325,-0.304,1.227,9.435,1
432,35.233,-97.435,91.2,16.77,15.17,326,-0.315,1.233,9.469,1
433,35.233,-97.434,90.4,16.56,15.17,326,-0.32,1.235,9.526,1
434,35.233,-97.434,90.5,16.52,15.17,328,-0.363,1.234,9.544,1
435,35.233,-97.434,90.2,16.21,13.653,330,-0.339,1.722,9.434,1
436,35.233,-97.434,90.3,16.48,13.653,331,-0.352,1.796,9.464,1
437,35.233,-97.434,91.1,16.9,13.653,331,-0.359,1.456,9.483,1
438,35.233,-97.434,90.1,17.13,13.653,332,-0.37,1.46,9.547,1
439,35.233,-97.433,90.4,17.12,13.653,332,-0.373,1.547,9.528,1
440,35.233,-97.433,89.9,17.3,13.653,332,-0.387,1.544,9.527,1
441,35.233,-97.433,89.6,17.23,13.653,332,-0.346,1.518,9.503,1
442,35.233,-97.433,89.4,17.37,13.653,333,-0.293,1.34,9.541,1
443,35.233,-97.433,91.8,17.62,13.653,333,-0.23,1.262,9.578,1
444,35.233,-97.432,89.8,17,13.653,333,-0.218,1.271,9.532,1
445,35.233,-97.432,89.8,16.66,13.653,332,-0.313,1.449,9.561,1
446,35.233,-97.432,90,16.68,13.653,332,-0.384,1.893,9.464,1
447,35.233,-97.432,93.7,17.11,13.653,332,-0.369,2.117,9.349,1
448,35.233,-97.432,92.7,17.33,13.653,331,-0.302,2.144,9.328,1
449,35.233,-97.431,89.4,17.93,13.653,330,-0.319,2.125,9.357,1
450,35.233,-97.431,89.7,18.36,15.17,331,-0.36,1.947,9.372,1
451,35.233,-97.431,90.6,19.12,15.17,332,-0.367,1.449,9.524,1
452,35.233,-97.431,90,18.7,13.653,332,-0.4,1.282,9.554,1
453,35.233,-97.43,90.7,18.27,15.17,332,-0.412,1.4,9.523,1
454,35.233,-97.43,90,18.3,13.653,332,-0.416,1.283,9.554,1
455,35.233,-97.43,89.3,18.14,15.17,332,-0.418,1.243,9.552,1
456,35.233,-97.43,89.7,17.84,15.17,331,-0.425,1.378,9.548,1
457,35.233,-97.43,89.8,17.56,13.653,331,-0.452,1.498,9.485,1
458,35.233,-97.429,89.3,17.41,15.17,332,-0.47,1.541,9.482,1
459,35.233,-97.429,89.7,17.46,15.17,333,-0.482,1.591,9.496,1
460,35.233,-97.429,89.8,17.45,15.17,333,-0.549,1.702,9.451,1
461,35.233,-97.429,88.9,17.63,15.17,334,-0.546,1.771,9.425,1
462,35.233,-97.429,88,17.85,13.653,333,-0.344,1.786,9.408,1
463,35.233,-97.428,88.9,18.1,13.653,331,-0.079,1.907,9.468,1
464,35.233,-97.428,90,18.39,13.653,331,-0.231,1.804,9.414,1
465,35.233,-97.428,90.1,18.29,15.17,331,-0.244,1.513,9.501,1
466,35.233,-97.428,88.7,18.29,13.653,331,-0.323,1.465,9.51,1
467,35.233,-97.428,89.4,18.14,15.17,330,-0.343,1.555,9.501,1
468,35.233,-97.428,88.8,17.59,15.17,331,-0.338,1.41,9.522,1
469,35.233,-97.427,90.3,17.61,15.17,330,-0.358,1.286,9.552,1
470,35.233,-97.427,91.1,17.26,15.17,331,-0.368,1.388,9.524,1
471,35.233,-97.427,90.3,16.87,15.17,331,-0.292,1.364,9.553,1
472,35.233,-97.427,90.6,16.69,15.17,331,-0.188,1.34,9.486,1
473,35.233,-97.427,90.5,16.58,15.17,331,-0.277,1.685,9.467,1
474,35.233,-97.426,90.4,16.83,15.17,333,-0.326,1.728,9.429,1
475,35.233,-97.426,94.9,17.04,15.17,333,-0.255,1.373,9.528,1
476,35.233,-97.426,92.8,16.59,15.17,334,0.072,1.338,9.494,1
477,35.233,-97.426,93,16.47,15.17,335,-0.217,1.315,9.518,1
478,35.233,-97.426,93.4,15.83,13.653,335,-0.415,1.239,9.531,1
479,35.233,-97.425,91.9,15.64,13.653,334,-0.472,1.238,9.523,1
480,35.233,-97.425,92.5,15.14,13.653,335,-0.428,1.243,9.532,1
481,35.233,-97.425,89.9,14.95,13.653,335,-0.364,1.211,9.444,1
482,35.233,-97.425,90.3,14.75,13.653,336,-0.256,1.156,9.617,1
483,35.233,-97.425,90.5,13.83,13.653,335,-0.271,0.397,9.751,1
485,35.233,-97.425,90.5,12.33,13.653,334,-0.197,0.498,9.847,1
486,35.233,-97.425,91.7,12.12,13.653,334,-0.202,0.973,9.646,1
487,35.233,-97.424,88.2,11.1,13.653,334,-0.197,0.743,9.627,1
488,35.233,-97.424,89.8,9.9,13.653,334,-0.209,0.477,9.749,1
489,35.233,-97.424,91.4,8.66,13.653,333,-0.309,0.415,9.746,1
490,35.233,-97.424,91.1,7.47,13.653,334,-0.325,0.474,9.72,1
491,35.233,-97.424,90.6,6.12,13.653,333,-0.284,0.436,9.763,1
492,35.233,-97.424,90.3,4.96,13.653,333,-0.195,0.663,9.694,1
493,35.233,-97.424,91.6,4.05,13.653,334,-0.204,0.535,9.715,1
494,35.233,-97.424,90,2.93,13.653,335,-0.237,0.276,9.782,1
495,35.233,-97.424,90,2.93,13.653,335,-0.249,0.652,9.704,1
496,35.233,-97.424,38.7,1.05,13.653,335,-0.257,0.995,9.611,1
497,35.233,-97.424,38.4,0.98,13.653,336,-0.237,1.509,9.485,1
498,35.233,-97.424,38.4,0.98,13.653,336,-0.234,1.638,9.455,1
499,35.233,-97.424,38.4,0.98,13.653,336,-0.239,1.657,9.451,1
500,35.233,-97.424,38.4,0.98,13.653,336,-0.236,1.663,9.455,1
501,35.233,-97.424,38.4,0.98,13.653,336,-0.235,1.664,9.45,1
502,35.233,-97.424,38.4,0.98,13.653,336,-0.235,1.664,9.451,1
503,35.233,-97.424,0,0,13.653,335,-0.241,1.668,9.454,1
504,35.233,-97.424,0,0,13.653,335,-0.236,1.664,9.452,1
505,35.233,-97.424,0,0,13.653,335,-0.241,1.659,9.451,1
506,35.233,-97.424,0,0,13.653,335,-0.243,1.661,9.451,1
507,35.233,-97.424,0,0,13.653,335,-0.241,1.664,9.449,1
508,35.233,-97.424,0,0,13.653,335,-0.238,1.692,9.441,1
509,35.233,-97.424,0,0,13.653,335,-0.225,2.5,9.283,1
510,35.233,-97.424,86.4,0.86,13.653,336,-0.225,2.592,9.256,1
511,35.233,-97.424,94,1.62,13.653,336,-0.231,2.452,9.257,1
512,35.233,-97.424,89.7,2.37,13.653,337,-0.273,1.968,9.426,1
513,35.233,-97.424,89.3,2.7,13.653,338,-0.258,1.597,9.451,1
514,35.233,-97.424,92.4,2.46,13.653,338,-0.223,1.616,9.485,1
515,35.233,-97.424,92.6,2.4,13.653,338,-0.218,0.796,9.678,1
516,35.233,-97.424,94,1.27,13.653,338,-0.223,0.697,9.679,1
517,35.233,-97.424,94,1.27,13.653,338,-0.203,0.983,9.618,1
518,35.233,-97.424,94,1.27,13.653,338,-0.192,1.552,9.483,1
519,35.233,-97.424,94,1.27,13.653,338,-0.191,1.635,9.464,1
520,35.233,-97.424,94,1.27,13.653,338,-0.178,2.29,9.298,1
521,35.233,-97.424,94,1.27,13.653,338,-0.132,2.55,9.217,1
522,35.233,-97.424,99.6,1.68,13.653,336,-0.128,2.049,9.386,1
523,35.233,-97.424,95.7,2.21,13.653,336,-0.102,1.521,9.51,1
524,35.233,-97.424,94.8,1.72,13.653,335,0.255,2.858,9.158,1
525,35.233,-97.424,94.7,2.05,13.653,335,1.756,3.074,8.955,1
526,35.233,-97.424,107.2,4.48,13.653,336,3.015,2.682,9.045,1
527,35.233,-97.424,120.6,4.83,13.653,335,2.491,3.586,8.798,0
528,35.233,-97.424,167.4,5.48,13.653,336,0.221,3.898,8.728,0
529,35.233,-97.424,183.3,9.78,13.653,337,-0.237,3.908,8.847,0
530,35.232,-97.424,179.8,13.59,13.653,337,-0.197,3.531,8.993,0
531,35.232,-97.424,179.2,15.8,13.653,333,-0.204,2.861,9.202,0
532,35.232,-97.424,180,16.97,13.653,334,-0.331,2.468,9.171,0
533,35.232,-97.424,180.2,17.87,13.653,334,-0.287,2.401,9.358,0
534,35.232,-97.424,178.3,18.56,13.653,333,-0.17,1.864,9.533,0
535,35.232,-97.424,178.9,19.89,13.653,334,-0.176,1.44,9.63,0
536,35.231,-97.424,178.7,19.9,13.653,335,-0.173,1.491,9.684,1
537,35.231,-97.424,179.2,20.03,13.653,335,-0.364,1.575,9.351,1
538,35.231,-97.424,178.6,19.91,13.653,335,-0.494,1.556,9.414,1
539,35.231,-97.424,178,20.17,13.653,336,-0.447,1.5,9.441,1
540,35.231,-97.424,177.6,20.26,13.653,336,-0.118,1.497,9.437,1
541,35.23,-97.424,177,19.8,13.653,336,-0.109,1.636,9.425,1
542,35.23,-97.424,177.9,20.11,13.653,336,-0.18,1.732,9.44,1
543,35.23,-97.424,179.2,20.31,13.653,337,-0.262,1.728,9.386,1
544,35.23,-97.424,178.2,20.32,13.653,337,-0.353,1.755,9.484,1
545,35.23,-97.424,179,20.71,13.653,337,0.104,1.708,9.443,1
546,35.229,-97.424,179.9,21.2,13.653,338,0.275,1.368,9.477,1
547,35.229,-97.424,180.9,21.71,13.653,338,-0.043,1.246,9.566,1
548,35.229,-97.424,180.1,20.91,15.17,338,-0.123,1.197,9.584,1
549,35.229,-97.424,181.1,20.3,13.653,338,-0.118,1.194,9.576,1
550,35.229,-97.424,181.7,20.11,15.17,338,-0.053,1.189,9.58,1
551,35.228,-97.424,182.3,19.81,15.17,338,-0.084,1.192,9.523,1
552,35.228,-97.424,181.5,19.12,15.17,337,-0.305,1.296,9.536,1
553,35.228,-97.424,180.5,18.99,15.17,336,-0.389,1.421,9.56,1
554,35.228,-97.424,180.8,19.38,15.17,337,-0.333,1.445,9.493,1
555,35.228,-97.424,181.5,20.26,15.17,338,-0.252,1.292,9.567,1
556,35.228,-97.424,179.9,19.06,15.17,337,-0.159,1.213,9.552,1
557,35.227,-97.424,180.2,18.95,15.17,338,-0.193,0.795,9.673,1
558,35.227,-97.424,179.7,17.99,15.17,336,-0.289,-0.086,9.873,1
559,35.227,-97.424,179.7,18.71,16.687,336,-0.322,0.054,9.862,1
560,35.227,-97.424,180.3,19.42,16.687,336,-0.176,-0.057,9.876,1
561,35.227,-97.424,180.9,13.34,15.17,337,-0.176,0.152,9.79,1
562,35.227,-97.424,180,13.18,15.17,337,-0.22,0.319,9.774,1
563,35.227,-97.424,181.6,11.81,16.687,338,-0.194,-0.033,9.88,1
564,35.227,-97.424,179.4,8.45,15.17,338,-0.183,-0.199,9.896,1
565,35.227,-97.424,179.5,7.9,15.17,340,-0.154,0.353,9.767,1
566,35.226,-97.424,179.9,7.02,15.17,341,-0.139,0.526,9.739,1
567,35.226,-97.424,181.1,5.48,15.17,342,-0.146,0.635,9.708,1
568,35.226,-97.424,181.2,4.79,15.17,344,-0.139,1.024,9.617,1
569,35.226,-97.424,179.9,4.25,15.17,344,-0.139,1.01,9.614,1
570,35.226,-97.424,180.4,3.38,15.17,346,-0.136,0.859,9.651,1
572,35.226,-97.424,178.6,3.16,15.17,345,-0.137,0.826,9.669,1
573,35.226,-97.424,181.3,2.32,15.17,345,-0.122,0.908,9.632,1
574,35.226,-97.424,179,1.75,15.17,345,-0.12,0.855,9.655,1
575,35.226,-97.424,179.2,1.07,13.653,346,-0.104,0.41,9.75,1
576,35.226,-97.424,0,0,13.653,344,-0.091,1.185,9.568,1
577,35.226,-97.424,0,0,13.653,344,-0.08,1.392,9.519,1
578,35.226,-97.424,0,0,13.653,344,-0.084,1.443,9.508,1
579,35.226,-97.424,0,0,13.653,344,-0.087,1.454,9.505,1
580,35.226,-97.424,0,0,13.653,344,-0.081,1.456,9.501,1
581,35.226,-97.424,0,0,13.653,344,-0.085,1.458,9.502,1
582,35.226,-97.424,0,0,13.653,344,-0.082,1.457,9.507,1
583,35.226,-97.424,0,0,13.653,344,-0.083,1.456,9.506,1
584,35.226,-97.424,0,0,13.653,344,-0.084,1.458,9.506,1
585,35.226,-97.424,0,0,13.653,344,-0.083,1.454,9.505,1
586,35.226,-97.424,0,0,13.653,344,-0.084,1.457,9.505,1
587,35.226,-97.424,0,0,13.653,344,-0.087,1.456,9.502,1
588,35.226,-97.424,0,0,13.653,344,-0.087,1.456,9.508,1
589,35.226,-97.424,0,0,13.653,344,-0.094,1.457,9.505,1
590,35.226,-97.424,0,0,13.653,344,-0.104,1.457,9.506,1
591,35.226,-97.424,0,0,13.653,344,-0.089,1.829,9.403,1
592,35.226,-97.424,0,0,13.653,344,-0.068,2.174,9.33,1
593,35.226,-97.424,0,0,13.653,344,-0.085,1.984,9.372,1
594,35.226,-97.424,0,0,13.653,344,-0.075,2.304,9.293,1
595,35.226,-97.424,0,0,13.653,344,-0.072,2.321,9.269,1
596,35.226,-97.424,182.5,3.31,13.653,341,-0.064,2.714,9.199,1
597,35.226,-97.424,182.2,4.71,13.653,342,-0.077,2.664,9.207,1
598,35.226,-97.424,179.2,6.22,13.653,343,-0.095,2.524,9.246,1
599,35.226,-97.424,181.2,7.24,13.653,342,-0.084,2.424,9.251,1
600,35.226,-97.424,180.2,8.27,13.653,343,-0.201,2.48,9.258,1
601,35.226,-97.424,178.2,8.91,13.653,343,-0.229,2.454,9.246,1
602,35.226,-97.424,179.9,10.36,13.653,343,-0.212,2.36,9.291,1
603,35.226,-97.424,180.1,11.13,13.653,344,-0.145,2.294,9.292,1
604,35.226,-97.424,180.6,11.56,13.653,344,-0.064,2.281,9.304,1
605,35.225,-97.424,179.6,13.33,13.653,345,-0.115,2.201,9.319,1
606,35.225,-97.424,180.6,13.55,13.653,344,-0.139,1.703,9.448,1
607,35.225,-97.424,180,13.92,13.653,344,-0.137,1.797,9.476,1
609,35.225,-97.424,179.7,14.11,13.653,346,-0.111,1.593,9.491,1
