time,lat,lng,bearing,spd,acc,alt,accx,accy,accz,stable,
0,35.28,-97.485,145.2,27.639,3,333,-3.298,3.068,9.001,0
1,35.28,-97.485,138.8,27.224,3,333,-1.473,2.857,9.35,0
2,35.28,-97.485,135,26.962,3,334,-0.781,2.585,9.215,0
3,35.279,-97.484,133.7,26.56,3,335,-0.613,3.17,8.069,0
4,35.279,-97.484,134.2,26.472,3,336,-0.589,3.511,9.203,0
5,35.279,-97.484,134.5,26.993,3,336,-0.675,3.51,9.471,0
6,35.279,-97.483,134.8,27.416,3,335,-0.716,2.863,9.033,0
7,35.279,-97.483,135.9,27.47,3,335,0.338,3.028,9.516,0
8,35.278,-97.483,139.8,27.48,3,334,1.159,3.148,9.815,0
9,35.278,-97.483,145,27.367,3,332,1.256,3.206,9.77,0
10,35.278,-97.483,149.9,27.312,3,332,0.721,3.255,9.767,0
11,35.278,-97.483,154.3,27.06,3,331,1.197,3.557,9.542,0
12,35.278,-97.483,158.5,27.52,3,331,0.381,3.555,9.41,0
13,35.277,-97.482,162.9,27.752,3,330,-1.115,3.463,9.186,0
14,35.277,-97.482,163,28.161,3,330,-1.399,3.616,9.055,0
15,35.277,-97.482,163,28.54,3,330,-1.227,3.322,9.023,0
16,35.277,-97.482,162.7,28.691,3,329,-1.203,2.78,9.075,0
17,35.276,-97.482,162.5,28.56,3,328,-0.947,2.761,9.38,0
18,35.276,-97.482,162.5,28.34,3,328,-1.25,2.764,9.195,0
19,35.276,-97.482,162.4,28.25,3,328,-1.109,2.924,9.439,0
20,35.276,-97.482,162.4,28.02,4,328,-1.207,2.822,9.541,0
21,35.275,-97.482,162.3,27.82,4,328,-1.013,3.164,9.52,0
22,35.275,-97.482,162.8,27.742,3,327,-0.829,3.297,9.438,0
23,35.275,-97.482,163.2,27.902,3,326,-1.161,3.381,9.408,0
24,35.275,-97.481,163,28.133,3,326,-1.206,3.449,9.401,0
25,35.274,-97.481,163.1,28.532,3,324,-1.242,2.893,9.632,0
26,35.274,-97.481,163,28.511,3,323,-1.411,3.107,9.346,0
27,35.274,-97.481,163,28.501,3,323,-0.957,2.968,9.198,0
28,35.274,-97.481,163.4,28.61,3,322,-1.17,2.987,9.293,0
29,35.273,-97.481,163.6,28.6,3,322,-1.189,3.138,9.521,0
30,35.273,-97.481,163.6,28.57,3,322,-1.113,3.446,9.829,0
31,35.273,-97.481,163.4,28.57,3,322,-1.212,3.292,9.664,0
32,35.273,-97.481,163.2,28.46,3,322,-1.215,3.208,9.514,0
33,35.272,-97.481,163.1,28.27,3,322,-1.226,3.303,9.286,0
34,35.272,-97.481,162.7,28.29,3,323,-1.219,2.962,9.399,0
35,35.272,-97.48,162.8,28.13,3,323,-1.312,3.2,9.245,0
36,35.272,-97.48,163.2,28.09,3,323,-1.199,3.419,9.546,0
37,35.272,-97.48,163.3,28.07,3,322,-1.229,3.599,9.416,0
38,35.271,-97.48,163.4,28.101,3,324,-1.221,3.463,9.303,0
39,35.271,-97.48,163.3,28.121,3,324,-1.466,3.536,9.109,0
40,35.271,-97.48,163.1,28.02,3,324,-1.234,3.2,9.386,0
41,35.271,-97.48,163.5,27.98,4,324,-1.099,3.369,9.497,0
42,35.27,-97.48,163.1,28.191,4,325,-0.998,3.648,9.232,0
43,35.27,-97.48,162.9,28.12,4,325,-0.818,3.513,9.328,0
44,35.27,-97.48,163,28.11,4,326,-0.672,3.47,9.274,0
45,35.27,-97.48,163.2,28.08,4,326,-0.815,3.55,9.262,0
46,35.269,-97.479,163.2,28.19,3,326,-0.972,3.421,9.268,0
47,35.269,-97.479,162.9,28.34,3,326,-1.449,3.252,9.112,0
48,35.269,-97.479,161.9,28.57,3,327,-1.473,3.283,9.178,0
49,35.269,-97.479,160.6,28.65,3,326,-0.997,3.337,9.324,0
50,35.268,-97.479,159.8,28.75,3,326,-1.065,3.324,9.581,0
51,35.268,-97.479,159.3,28.84,3,326,-1.315,3.2,9.349,0
52,35.268,-97.479,158.4,28.87,3,327,-1.457,3.146,9.232,0
53,35.268,-97.479,157.4,29,3,327,-1.386,3.065,9.624,0
54,35.267,-97.479,156.5,28.95,3,327,-1.098,3.066,9.306,0
55,35.267,-97.478,156.2,28.99,3,327,-1.036,3.045,9.627,0
56,35.267,-97.478,155.5,28.921,3,327,-0.917,3.014,9.885,0
58,35.267,-97.478,154.8,28.78,3,326,-1.058,3.021,9.4,0
59,35.266,-97.478,154.1,28.611,3,326,-1.084,2.975,9.711,0
60,35.266,-97.478,153.2,28.42,3,326,-1.051,3.028,9.381,0
61,35.266,-97.478,152.5,28.21,3,326,-1.162,2.987,9.698,0
62,35.266,-97.478,151.5,28,3,326,-1.296,2.864,9.499,0
63,35.266,-97.477,150.5,27.781,3,325,-1.254,2.883,9.58,0
64,35.265,-97.477,149.6,27.521,3,324,-1.005,2.685,9.444,0
65,35.265,-97.477,149,27.12,3,324,-0.894,2.82,9.483,0
66,35.265,-97.477,148.5,26.74,3,324,-1.144,2.726,9.703,0
67,35.265,-97.477,147.7,26.41,3,323,-1.104,2.979,9.474,0
68,35.264,-97.477,147,26.01,3,323,-1.066,2.936,9.802,0
69,35.264,-97.476,145.6,25.14,3,323,-1.021,2.898,9.422,0
70,35.264,-97.476,144.9,24.69,3,323,-1.194,2.978,9.43,0
71,35.264,-97.476,144.1,24.26,3,323,-0.897,2.932,9.643,0
72,35.264,-97.476,143.8,23.77,3,324,-0.808,2.742,9.523,0
73,35.263,-97.476,143.8,23.311,3,324,-0.839,2.81,9.528,0
74,35.263,-97.476,143.9,22.431,3,324,-0.864,1.999,9.697,0
75,35.263,-97.475,144,20.851,3,324,-0.933,1.823,9.565,0
76,35.263,-97.475,144.8,19.39,3,324,-1.029,1.767,9.772,0
77,35.263,-97.475,146.1,18.02,4,324,-1.209,1.688,9.491,0
78,35.263,-97.475,144,16.06,3,325,-1.239,1.662,9.609,0
79,35.263,-97.475,143.5,14.22,3,325,-1.211,1.64,9.756,0
80,35.263,-97.475,144.5,12.66,3,325,-1.113,1.589,9.827,0
81,35.262,-97.475,145.1,10.84,4,326,-1.073,1.394,9.781,0
82,35.262,-97.475,145.7,8.8705,4,326,-1.039,1.459,9.733,0
83,35.262,-97.475,146.8,7.0509,4,326,-1.017,1.577,9.692,0
84,35.262,-97.475,147.1,5.4006,4,326,-1.072,1.932,9.732,0
85,35.262,-97.475,150.7,4.252,5,326,-1.157,2.112,9.547,0
86,35.262,-97.475,150.4,3.0413,4,326,-1.193,2.433,9.514,0
87,35.262,-97.475,144.5,1.91,3,327,-1.249,2.652,9.522,0
88,35.262,-97.475,144.5,1.91,3,327,-1.191,2.737,9.522,0
89,35.262,-97.475,145.3,0.67007,3,328,-1.225,2.652,9.518,0
90,35.262,-97.475,145.3,0.67007,3,328,-1.267,3.214,9.405,0
91,35.262,-97.475,145.3,0.67007,3,328,-1.296,3.283,9.388,0
92,35.262,-97.475,145.3,0.67007,3,328,-1.289,3.314,9.377,0
93,35.262,-97.475,145.3,0.67007,3,328,-1.294,3.345,9.384,0
94,35.262,-97.475,145.3,0.67007,3,328,-1.272,3.311,9.399,0
95,35.262,-97.475,145.3,0.67007,3,328,-1.266,3.29,9.376,0
96,35.262,-97.475,0,0,3,330,-1.279,3.341,9.352,0
97,35.262,-97.475,0,0,3,330,-1.275,3.325,9.381,0
98,35.262,-97.475,0,0,3,330,-1.384,3.405,9.363,0
99,35.262,-97.475,0,0,3,330,-1.526,3.554,9.274,0
100,35.262,-97.475,0,0,3,330,-1.363,3.409,9.352,0
101,35.262,-97.475,0,0,3,330,-1.279,3.314,9.381,0
102,35.262,-97.475,0,0,3,330,-1.222,3.259,9.415,0
103,35.262,-97.475,0,0,3,330,-1.25,3.283,9.397,0
104,35.262,-97.475,0,0,3,330,-1.168,3.207,9.42,0
105,35.262,-97.475,0,0,3,330,-1.549,5.338,8.895,0
106,35.262,-97.475,145.1,0.86,3,330,-1.681,6.65,8.561,0
107,35.262,-97.475,144.3,4.4901,3,329,-1.631,6.246,8.823,0
108,35.262,-97.475,144.5,7.58,3,329,-1.545,6.46,8.593,0
109,35.262,-97.475,144.5,10.48,3,329,-1.627,5.045,8.762,0
110,35.262,-97.474,144,12.8,3,328,-1.447,4.499,9.085,0
111,35.262,-97.474,143.5,14.3,3,328,-1.39,4.191,9.258,0
112,35.262,-97.474,143.5,15.32,3,328,-1.226,3.72,9.325,0
113,35.262,-97.474,143.2,15.95,9,328,-1.229,3.803,9.273,0
114,35.262,-97.474,143.3,16.49,9,328,-1.315,3.829,9.326,0
115,35.261,-97.474,143.6,17.16,9,329,-1.278,3.74,9.334,0
117,35.261,-97.474,143.6,17.76,9,329,-1.231,3.77,9.304,0
118,35.261,-97.474,143.5,18.4,9,329,-1.273,3.785,9.299,0
119,35.261,-97.474,143.5,18.99,9,329,-1.489,3.932,9.313,0
120,35.261,-97.473,143.3,19.55,9,329,-1.333,3.726,9.494,0
121,35.261,-97.473,143.4,20.15,9,329,-1.206,3.729,9.227,0
122,35.261,-97.473,143.5,20.73,9,329,-1.317,3.805,9.218,0
123,35.26,-97.473,143.6,21.28,9,328,-1.352,3.756,9.385,0
124,35.26,-97.473,143.7,21.78,9,329,-1.423,3.828,9.306,0
125,35.26,-97.473,143.7,22.27,9,329,-1.313,3.638,9.361,0
126,35.26,-97.472,143.6,23.22,9,329,-1.321,3.656,9.163,0
127,35.26,-97.472,143.5,23.41,9,329,-1.14,2.857,9.571,0
128,35.259,-97.472,143.3,23.16,9,330,-1.226,3.004,9.365,0
129,35.259,-97.472,143.5,23.17,9,330,-1.371,3.222,9.387,0
130,35.259,-97.472,143.6,23.28,9,330,-1.26,3.415,9.263,0
131,35.259,-97.472,143.8,23.54,9,330,-1.524,3.763,9.266,0
132,35.259,-97.472,143.6,23.91,9,331,-1.473,3.656,9.052,0
133,35.259,-97.471,143.5,24.23,9,331,-1.439,3.628,8.991,0
134,35.258,-97.471,143.5,24.53,9,331,-1.183,3.404,9.208,0
135,35.258,-97.471,143.8,24.86,9,331,-1.46,3.628,8.957,0
136,35.258,-97.471,143.6,25.01,9,332,-1.265,3.074,9.353,0
137,35.258,-97.471,143.6,24.86,9,333,-1.342,3.082,8.992,0
138,35.258,-97.471,143.7,24.76,9,333,-1.456,3.254,9.373,0
139,35.257,-97.47,143.4,24.55,9,333,-1.282,3.104,9.398,0
140,35.257,-97.47,143.6,24.55,9,333,-1.133,2.912,9.329,0
141,35.257,-97.47,143.7,24.48,9,334,-1.16,3.218,9.042,0
142,35.257,-97.47,143.8,24.62,9,335,-1.122,3.221,9.231,0
143,35.257,-97.47,143.7,24.8,9,335,-1.295,3.4,9.426,0
144,35.257,-97.47,143.4,24.94,9,335,-1.306,3.097,9.501,0
145,35.256,-97.469,143.4,24.79,9,335,-1.187,2.674,9.295,0
146,35.256,-97.469,143.5,24.44,9,335,-1.103,2.882,9.273,0
147,35.256,-97.469,143.6,24.12,9,335,-1.238,3.253,9.218,0
148,35.256,-97.469,143.6,24.37,9,335,-1.299,3.292,9.186,0
149,35.256,-97.469,143.7,24.72,9,334,-1.294,3.443,9.303,0
150,35.255,-97.469,143.5,24.94,9,334,-1.182,3.176,9.585,0
151,35.255,-97.468,143.7,25.091,9,333,-1.22,2.74,9.506,0
152,35.255,-97.468,143.8,24.77,9,333,-1.36,3.104,9.232,0
153,35.255,-97.468,143.7,24.48,9,333,-1.416,3.288,9.358,0
154,35.255,-97.468,143.4,24.62,9,333,-1.368,3.45,9.134,0
155,35.255,-97.468,143.3,24.93,9,332,-1.085,2.941,9.525,0
156,35.254,-97.468,143.4,24.82,9,333,-1.089,3.413,9.479,0
157,35.254,-97.467,143.2,25,9,332,-1.056,3.102,9.225,0
158,35.254,-97.467,143.6,25.191,9,332,-1.193,3.15,9.338,0
159,35.254,-97.467,143.7,25.281,9,332,-1.124,3.061,9.335,0
160,35.254,-97.467,143.9,25.29,9,332,-1.239,3.141,9.278,0
161,35.253,-97.467,143.8,25.25,9,331,-1.282,2.753,9.465,0
162,35.253,-97.467,143.6,25.071,9,332,-1.198,2.677,9.507,0
163,35.253,-97.467,143.6,24.77,9,332,-1.235,2.984,9.367,0
164,35.253,-97.466,143.6,24.491,9,331,-1.28,3.136,9.307,0
165,35.253,-97.466,143.8,24.321,9,331,-1.34,3.251,9.352,0
166,35.253,-97.466,143.6,24.361,9,331,-1.227,3.263,9.476,0
167,35.252,-97.466,143.3,24.5,9,331,-1.169,3.252,9.435,0
168,35.252,-97.466,143.5,24.56,9,330,-0.995,2.773,9.32,0
169,35.252,-97.466,143.6,24.52,9,330,-1.146,2.814,9.556,0
170,35.252,-97.465,143.6,24.4,9,329,-1.231,2.788,9.533,0
171,35.252,-97.465,143.6,24.18,9,329,-1.097,2.999,9.314,0
173,35.252,-97.465,143.5,23.98,9,329,-1.184,2.911,9.432,0
174,35.251,-97.465,143.7,23.85,9,329,-1.281,3.195,9.502,0
175,35.251,-97.465,143.8,23.77,9,328,-1.233,3.009,9.499,0
176,35.251,-97.465,143.7,23.68,9,328,-1.278,2.96,9.567,0
177,35.251,-97.464,143.5,23.69,9,328,-1.23,3.274,9.501,0
178,35.251,-97.464,143.4,23.65,9,328,-1.215,3.247,9.616,0
179,35.251,-97.464,143.5,23.59,9,329,-1.144,3.048,9.501,0
180,35.25,-97.464,143.5,23.48,9,329,-1.307,3.246,9.337,0
181,35.25,-97.464,143.6,23.221,9,330,-1.338,3.055,9.328,0
182,35.25,-97.464,143.8,23.081,9,330,-1.208,3.222,9.4,0
183,35.25,-97.463,143.7,22.921,9,331,-1.239,3.235,9.453,0
184,35.25,-97.463,143.7,22.861,9,331,-1.317,3.24,9.241,0
185,35.249,-97.463,143.7,22.841,9,331,-1.318,3.325,9.487,0
186,35.249,-97.463,143.3,22.87,9,332,-1.344,3.432,9.187,0
187,35.249,-97.463,143.5,22.87,9,332,-1.34,3.312,9.472,0
188,35.249,-97.463,143.4,22.86,9,333,-1.273,3.33,9.223,0
189,35.249,-97.462,143.4,22.94,9,333,-1.216,3.345,9.251,0
190,35.249,-97.462,143.4,23.03,9,334,-1.181,3.489,9.406,0
191,35.248,-97.462,143.4,23.11,9,334,-1.184,3.376,9.384,0
192,35.248,-97.462,143.7,23.24,9,335,-1.283,3.356,9.462,0
193,35.248,-97.462,143.8,23.39,9,335,-1.259,3.533,9.352,0
194,35.248,-97.462,143.9,23.54,9,335,-1.203,3.373,9.357,0
195,35.248,-97.462,144,23.67,9,336,-1.179,3.366,9.278,0
196,35.247,-97.461,143.9,23.83,9,336,-1.266,3.508,9.244,0
197,35.247,-97.461,143.6,23.95,9,336,-1.338,3.342,9.468,0
198,35.247,-97.461,143.5,24.02,9,336,-1.327,3.358,9.422,0
199,35.247,-97.461,143.1,24.12,9,336,-1.148,3.113,9.674,0
200,35.247,-97.461,143.2,24.25,9,336,-0.955,3.183,9.282,0
201,35.247,-97.461,143.7,24.35,9,336,-0.908,3.249,9.381,0
202,35.246,-97.46,144.3,24.48,9,336,-1.27,3.275,9.414,0
203,35.246,-97.46,144.3,24.59,9,336,-1.121,3.403,9.361,0
204,35.246,-97.46,144.5,24.64,9,335,-0.829,3.112,9.478,0
205,35.246,-97.46,145.5,24.67,9,335,-0.9,3.289,9.453,0
206,35.246,-97.46,146.6,24.72,9,335,-0.802,3.265,9.54,0
207,35.246,-97.46,147.7,24.73,9,335,-0.839,3.336,9.491,0
208,35.245,-97.46,148.6,24.7,3,335,-0.788,3.15,9.617,0
209,35.245,-97.459,149.4,24.64,3,335,-0.781,3.132,9.386,0
210,35.245,-97.459,150.1,24.58,3,335,-0.928,3.114,9.483,0
211,35.245,-97.459,150.7,24.56,3,335,-0.775,3.264,9.543,0
212,35.245,-97.459,151.4,24.551,3,335,-0.908,3.377,9.543,0
213,35.244,-97.459,152.1,24.45,3,334,-1.062,3.282,9.483,0
214,35.244,-97.459,152.7,24.43,3,333,-1.064,3.168,9.573,0
215,35.244,-97.459,152.8,24.41,3,332,-1.274,3.472,9.477,0
216,35.244,-97.459,152.8,24.39,3,333,-1.203,3.199,9.479,0
217,35.244,-97.458,152.7,24.39,3,332,-1.342,3.239,9.554,0
218,35.243,-97.458,152.4,24.33,3,332,-1.253,3.193,9.514,0
219,35.243,-97.458,152.4,24.38,3,332,-0.963,3.11,9.49,0
220,35.243,-97.458,152.3,24.36,3,331,-1.111,3.213,9.308,0
221,35.243,-97.458,152.3,24.38,3,331,-1.234,3.179,9.454,0
222,35.243,-97.458,152.3,24.29,3,331,-1.142,3.012,9.485,0
223,35.242,-97.458,152.4,24.36,3,330,-1.133,3.16,9.386,0
224,35.242,-97.458,152.6,24.34,3,330,-1.225,3.416,9.447,0
225,35.242,-97.457,152.7,24.34,3,329,-1.107,3.293,9.465,0
226,35.242,-97.457,152.9,24.33,3,329,-1.26,3.295,9.512,0
227,35.242,-97.457,152.9,24.3,3,329,-1.401,3.425,9.185,0
228,35.241,-97.457,153,24.33,3,329,-1.43,3.377,9.494,0
229,35.241,-97.457,152.9,24.35,3,329,-1.469,3.421,9.546,0
230,35.241,-97.457,152.7,24.34,3,329,-1.439,3.356,9.558,0
232,35.241,-97.457,152.5,24.34,3,329,-1.2,3.265,9.321,0
233,35.241,-97.457,152.3,24.34,3,329,-1.264,3.249,9.478,0
234,35.241,-97.456,152.3,24.33,3,329,-1.055,3.205,9.479,0
235,35.24,-97.456,152.3,24.3,3,329,-1.132,3.314,9.454,0
236,35.24,-97.456,152.4,24.28,3,329,-1.008,3.175,9.435,0
237,35.24,-97.456,152.6,24.36,3,329,-1.063,3.082,9.401,0
238,35.24,-97.456,152.7,24.31,3,329,-1.136,2.987,9.368,0
239,35.24,-97.456,152.7,24.39,3,329,-1.189,3.046,9.484,0
240,35.239,-97.456,152.7,24.53,3,329,-1.279,3.13,9.308,0
241,35.239,-97.455,152.5,24.56,3,329,-1.31,3.183,9.589,0
242,35.239,-97.455,152.7,24.6,3,329,-1.257,3.393,9.639,0
243,35.239,-97.455,153.1,24.6,3,329,-1.253,3.235,9.746,0
244,35.238,-97.455,153.5,24.5,3,329,-0.964,3.295,9.549,0
245,35.238,-97.455,154.5,24.44,3,329,-0.695,3.177,9.359,0
246,35.238,-97.455,155.8,24.4,4,329,-0.726,3.334,9.422,0
247,35.238,-97.455,157.4,24.47,3,329,-1.026,3.281,9.43,0
248,35.238,-97.455,158.2,24.49,3,330,-1.224,3.324,9.295,0
249,35.237,-97.455,158.8,24.48,3,330,-0.983,3.131,9.369,0
250,35.237,-97.455,159.7,24.32,3,330,-1.042,2.999,9.454,0
251,35.237,-97.454,160.7,23.82,3,330,-0.908,2.77,9.504,0
252,35.237,-97.454,161.6,23.42,3,329,-0.974,2.802,9.331,0
253,35.237,-97.454,162,23,3,329,-0.853,2.808,9.485,0
254,35.236,-97.454,162.6,22.72,3,330,-0.934,3.004,9.525,0
255,35.236,-97.454,163.1,22.61,3,330,-1.135,2.91,9.569,0
256,35.236,-97.454,163.1,22.34,3,330,-1.21,3.034,9.472,0
257,35.236,-97.454,163.1,22.18,3,330,-1.117,2.845,9.499,0
258,35.236,-97.454,163.1,21.81,3,331,-1.095,2.777,9.441,0
259,35.235,-97.454,163.3,21.51,3,330,-1.148,2.836,9.601,0
260,35.235,-97.454,163.4,21.19,3,330,-1.164,2.846,9.659,0
261,35.235,-97.454,163.4,20.83,3,331,-0.902,2.846,9.479,0
262,35.235,-97.454,164.2,20.5,3,331,-0.293,3.008,9.384,0
263,35.235,-97.454,166.5,20.25,3,331,0.434,2.581,9.418,0
264,35.234,-97.454,170.9,19.21,3,331,-0.451,2.526,9.373,0
265,35.234,-97.454,173,18.31,3,332,-1.805,2.615,9.427,0
266,35.234,-97.454,171.1,18,3,332,-1.669,3.143,10.142,0
267,35.234,-97.453,169.2,17.55,3,332,-0.69,2.098,10.319,0
268,35.234,-97.453,170.2,16.22,3,333,-0.253,1.534,9.831,0
269,35.234,-97.453,172.6,14.27,3,334,-0.09,1.483,9.613,0
270,35.234,-97.453,175.9,12.26,3,334,-0.289,1.411,9.799,0
271,35.234,-97.453,178,10.52,3,334,-0.664,1.96,9.749,0
272,35.233,-97.453,178.5,8.9201,3,334,-0.813,2.736,9.416,0
273,35.233,-97.453,178.8,8.5903,3,334,-0.72,2.68,9.553,0
274,35.233,-97.453,179.4,8.3404,3,334,-0.796,2.74,9.495,0
275,35.233,-97.453,179.6,8.1302,3,334,-1.675,2.542,9.447,0
276,35.233,-97.453,176.4,7.8534,3,334,-2.659,3.1,9.623,0
277,35.233,-97.453,166.1,7.95,3,334,-3.231,3.326,9.21,0
278,35.233,-97.453,150.5,8.4653,3,334,-3.315,3.261,9.355,0
279,35.233,-97.453,136.6,9.1209,3,334,-4.674,2.859,9.183,0
280,35.233,-97.453,120.2,9.6403,3,333,-4.572,3.323,9.046,0
281,35.233,-97.453,118.5,10.02,4,333,-2.17,5.052,8.64,0
282,35.233,-97.453,91.2,12.508,3,332,-1.778,5.223,8.645,0
283,35.233,-97.453,90.1,15.086,3,332,-1.395,5.242,9.013,0
284,35.233,-97.453,90.1,17.378,3,331,-1.265,4.255,9.036,0
286,35.233,-97.452,90.3,19.236,3,330,-1.287,3.324,9.708,0
287,35.233,-97.452,90.2,20.175,3,330,-1.315,3.101,10.019,0
288,35.233,-97.452,89.9,20.292,3,330,-1.228,3.028,9.601,0
289,35.233,-97.452,90.3,20.161,3,330,-0.918,3.124,9.699,0
290,35.233,-97.451,90.3,19.96,3,330,-1.124,3.485,9.52,0
291,35.233,-97.451,89.9,20.04,3,330,-1.148,3.594,9.484,0
292,35.233,-97.451,90,20.51,3,330,-1.292,3.679,9.284,0
293,35.233,-97.451,90.1,20.771,3,330,-1.049,3.173,9.533,0
294,35.233,-97.451,90.2,20.613,3,331,-0.949,2.95,9.274,0
295,35.233,-97.45,91,19.645,3,332,-1.426,2.967,9.26,0
296,35.233,-97.45,90.5,19.297,3,332,-1.306,3.356,9.189,0
297,35.233,-97.45,90.2,19.127,3,333,-1.337,3.438,9.295,0
298,35.233,-97.449,90.3,18.915,3,334,-1.219,3.263,9.373,0
299,35.233,-97.449,90.2,18.705,3,335,-1.181,3.38,9.376,0
300,35.233,-97.449,90.1,18.723,3,335,-1.18,3.36,9.269,0
301,35.233,-97.449,90.4,18.771,3,335,-0.963,3.047,9.487,0
302,35.233,-97.449,90.7,18.601,3,335,-0.719,2.934,9.467,0
303,35.233,-97.448,91.4,18.221,3,335,-0.996,3.035,10.07,0
304,35.233,-97.448,92.6,17.9,3,336,-0.922,2.808,9.28,0
305,35.233,-97.448,92.8,17.56,3,336,-1.413,3.177,9.771,0
306,35.233,-97.448,91.9,17.42,3,336,-1.51,3.513,9.268,0
307,35.233,-97.448,91.2,17.75,3,336,-1.522,3.571,9.408,0
308,35.233,-97.447,90.9,18.13,3,336,-1.111,3.422,9.443,0
309,35.233,-97.447,90.8,18.51,3,335,-1.196,3.27,9.409,0
310,35.233,-97.447,90.9,18.58,3,335,-1.282,2.91,9.562,0
311,35.233,-97.447,90.9,18.35,3,335,-1.348,2.735,9.374,0
312,35.233,-97.447,90.8,18.12,3,335,-1.352,2.83,9.836,0
313,35.233,-97.446,90.4,17.91,3,334,-1.108,2.802,9.626,0
314,35.233,-97.446,90.4,17.69,3,334,-1.201,3.301,9.4,0
315,35.233,-97.446,90.4,17.86,3,335,-0.824,3.224,9.297,0
316,35.233,-97.446,91.2,18.12,3,334,-0.959,3.172,9.411,0
317,35.233,-97.446,91.9,18.32,3,334,-1.001,1.878,9.781,0
318,35.233,-97.445,91.8,17.33,3,334,-1.122,1.645,9.615,0
319,35.233,-97.445,91.8,15.73,3,334,-1.192,1.485,9.731,0
320,35.233,-97.445,91.5,14.18,3,334,-1.083,0.888,9.866,0
321,35.233,-97.445,91.2,11.99,3,334,-1.018,0.644,10.031,0
322,35.233,-97.445,89.8,9.7009,3,334,-1.032,0.655,10.025,0
323,35.233,-97.445,90.3,7.0901,3,334,-1.033,1.296,9.777,0
324,35.233,-97.445,90.2,5.0101,3,334,-1.055,1.692,9.741,0
325,35.233,-97.445,89.7,3.5,3,334,-1.126,2.068,9.682,0
326,35.233,-97.445,89.7,2.2701,3,334,-1.19,2.447,9.599,0
327,35.233,-97.445,89.8,1.5,3,334,-1.213,2.627,9.585,0
328,35.233,-97.445,90.6,0.96005,3,334,-1.217,2.71,9.507,0
329,35.233,-97.445,90.6,0.96005,3,334,-1.215,2.823,9.403,0
330,35.233,-97.445,90.6,0.96005,3,334,-1.258,3.131,9.407,0
331,35.233,-97.445,90.6,0.96005,3,334,-1.29,3.181,9.406,0
332,35.233,-97.445,90.6,0.96005,3,334,-1.281,3.188,9.411,0
333,35.233,-97.445,90.6,0.96005,3,334,-1.29,3.187,9.405,0
334,35.233,-97.445,0,0,3,334,-1.179,3.114,9.394,0
335,35.233,-97.445,0,0,3,334,-1.15,3.061,9.453,0
336,35.233,-97.445,0,0,3,334,-1.274,3.201,9.354,0
337,35.233,-97.445,0,0,3,334,-1.3,3.216,9.374,0
338,35.233,-97.445,0,0,3,334,-1.288,3.189,9.419,0
340,35.233,-97.445,0,0,3,334,-1.255,3.159,9.411,0
341,35.233,-97.445,0,0,3,334,-1.394,3.277,9.422,0
342,35.233,-97.445,0,0,3,334,-1.353,3.204,9.481,0
343,35.233,-97.445,0,0,3,334,-1.536,3.379,9.386,0
344,35.233,-97.445,0,0,3,334,-1.522,3.428,9.309,0
345,35.233,-97.445,0,0,3,334,-1.448,3.37,9.369,0
346,35.233,-97.445,0,0,3,334,-1.315,3.227,9.39,0
347,35.233,-97.445,0,0,3,334,-1.282,3.189,9.401,0
348,35.233,-97.445,0,0,3,334,-1.271,3.179,9.419,0
349,35.233,-97.445,0,0,3,334,-1.232,3.147,9.397,0
350,35.233,-97.445,0,0,3,334,-1.339,3.229,9.425,0
351,35.233,-97.445,0,0,3,334,-1.153,3.148,9.42,0
352,35.233,-97.445,0,0,3,334,-1.443,4.639,9.015,0
353,35.233,-97.445,90.6,2.3303,3,333,-1.457,4.587,9.113,0
354,35.233,-97.445,90,3.65,3,333,-1.424,4.429,9.22,0
355,35.233,-97.445,90.6,4.94,3,332,-1.336,4.443,9.018,0
356,35.233,-97.445,90.4,6.1201,3,333,-1.341,4.208,9.039,0
357,35.233,-97.444,90.4,7.14,3,333,-1.299,4.201,9.136,0
358,35.233,-97.444,90,8.04,3,333,-1.069,3.969,9.234,0
359,35.233,-97.444,90.4,8.93,3,332,-1.557,4.342,9.239,0
360,35.233,-97.444,90.3,10.15,3,332,-1.4,4.171,9.156,0
361,35.233,-97.444,90.2,10.98,3,333,-1.468,3.837,9.172,0
362,35.233,-97.444,90,11.73,3,334,-1.534,4.026,9.352,0
363,35.233,-97.444,89.9,12.44,3,333,-1.383,3.663,9.495,0
364,35.233,-97.444,90.4,12.72,3,334,-1.23,3.183,9.328,0
365,35.233,-97.443,90.3,12.64,3,333,-1.276,3.021,9.265,0
366,35.233,-97.443,90.5,12.38,3,334,-1.248,2.869,9.568,0
367,35.233,-97.443,90.2,11.99,3,334,-1.225,2.794,9.412,0
368,35.233,-97.443,89.6,11.61,3,334,-1.307,2.813,9.465,0
369,35.233,-97.443,90.2,11.27,3,334,-1.324,2.908,9.539,0
370,35.233,-97.443,90.2,10.89,3,334,-1.357,2.952,9.459,0
371,35.233,-97.443,90.6,10.51,3,334,-1.289,2.86,9.531,0
372,35.233,-97.443,90.4,10.15,3,334,-1.263,2.479,9.591,0
373,35.233,-97.442,90.1,9.56,3,334,-1.29,2.296,9.559,0
374,35.233,-97.442,90.3,8.6201,3,333,-1.126,2.698,9.593,0
375,35.233,-97.442,90.4,8.01,3,334,-1.146,2.627,9.391,0
376,35.233,-97.442,90,7.68,3,334,-1.103,1.957,9.666,0
377,35.233,-97.442,90.7,6.77,3,335,-1.076,1.649,9.762,0
378,35.233,-97.442,91,5.0502,3,335,-1.225,2.464,9.628,0
379,35.233,-97.442,90.6,4.34,3,336,-1.238,2.756,9.524,0
380,35.233,-97.442,91,3.97,3,336,-1.197,2.276,9.594,0
381,35.233,-97.442,91.7,3.21,3,336,-1.228,2.496,9.622,0
382,35.233,-97.442,91.3,2.22,3,337,-1.28,3.114,9.361,0
383,35.233,-97.442,91,2.11,3,337,-1.291,3.232,9.475,0
384,35.233,-97.442,91.3,2.18,3,337,-1.358,3.577,9.303,0
385,35.233,-97.442,90.8,2.47,3,337,-1.402,4.338,9.129,0
386,35.233,-97.442,90.7,3.36,3,337,-1.44,4.443,9.082,0
387,35.233,-97.442,89.6,4.61,3,337,-1.491,4.468,9.088,0
388,35.233,-97.442,90,5.83,3,337,-1.524,4.519,9.073,0
389,35.233,-97.442,90.1,7.15,3,337,-1.644,4.315,8.951,0
390,35.233,-97.442,89.9,8.35,3,337,-1.48,4.588,9.279,0
391,35.233,-97.441,90,9.3701,3,337,-1.322,3.951,9.093,0
392,35.233,-97.441,90.2,10.22,3,337,-1.357,3.972,9.092,0
393,35.233,-97.441,90.6,10.95,3,337,-1.398,3.959,9.004,0
394,35.233,-97.441,90.6,11.58,3,337,-1.3,3.643,9.084,0
395,35.233,-97.441,90.5,12.08,3,337,-1.445,3.218,9.252,0
397,35.233,-97.441,90,12.47,3,338,-1.183,2.773,9.39,0
398,35.233,-97.441,90,12.23,3,337,-1.195,2.984,9.524,0
399,35.233,-97.441,90.1,12,3,338,-1.231,3.27,9.512,0
400,35.233,-97.44,90.2,12,3,338,-1.375,3.755,9.188,0
401,35.233,-97.44,90.2,12.22,3,338,-1.439,3.887,9.169,0
402,35.233,-97.44,90.3,12.72,3,338,-1.337,3.73,9.271,0
403,35.233,-97.44,90.2,13.28,3,339,-1.23,3.721,9.329,0
404,35.233,-97.44,90.1,13.81,3,339,-1.244,3.57,9.328,0
405,35.233,-97.44,90.1,14.33,3,339,-1.251,3.58,9.389,0
406,35.233,-97.439,89.9,15.13,3,339,-1.375,3.554,9.1,0
407,35.233,-97.439,90.2,15.46,3,339,-1.405,3.739,8.951,0
408,35.233,-97.439,90.2,15.9,3,339,-1.442,3.744,9.189,0
409,35.233,-97.439,90,16.22,3,339,-1.193,3.415,9.684,0
410,35.233,-97.439,90.2,16.41,3,340,-1.382,3.451,9.292,0
411,35.233,-97.438,90,16.63,3,340,-1.272,3.437,9.343,0
412,35.233,-97.438,90,16.87,3,340,-1.021,3.091,9.355,0
413,35.233,-97.438,90.1,16.75,3,339,-1.094,2.818,9.727,0
414,35.233,-97.438,90,16.53,3,339,-1.287,2.808,9.581,0
415,35.233,-97.438,90,16.28,3,339,-1.11,2.683,9.619,0
416,35.233,-97.438,90,16,3,339,-1.174,3.063,9.328,0
417,35.233,-97.437,90.1,15.68,3,339,-1.182,2.895,9.729,0
418,35.233,-97.437,90.1,15.47,3,340,-1.277,3.35,9.323,0
419,35.233,-97.437,90.1,15.61,3,339,-1.397,3.418,9.305,0
420,35.233,-97.437,90.2,15.76,3,340,-1.361,3.39,9.455,0
421,35.233,-97.437,89.9,15.88,3,340,-1.337,3.267,9.305,0
422,35.233,-97.437,89.9,16.01,3,339,-1.24,3.321,9.288,0
423,35.233,-97.436,89.7,16.11,3,339,-1.27,3.411,9.432,0
424,35.233,-97.436,89.7,16.32,3,340,-1.214,3.429,9.042,0
425,35.233,-97.436,90,16.59,3,340,-1.339,3.419,9.422,0
426,35.233,-97.436,90.1,16.84,3,340,-1.265,3.399,9.549,0
427,35.233,-97.436,90.1,17.11,3,339,-1.159,3.479,9.324,0
428,35.233,-97.435,90.2,17.35,3,340,-1.216,3.323,9.383,0
429,35.233,-97.435,90.3,17.56,3,340,-1.056,2.877,9.645,0
430,35.233,-97.435,90.4,17.37,3,340,-1.23,2.812,9.146,0
431,35.233,-97.435,90.2,17.08,3,340,-1.202,2.85,9.408,0
432,35.233,-97.435,90.5,16.83,3,340,-1.156,2.785,9.182,0
433,35.233,-97.434,90.5,16.601,3,340,-1.447,3.042,9.368,0
434,35.233,-97.434,90.5,16.43,3,339,-1.262,2.904,9.401,0
435,35.233,-97.434,90.4,16.271,3,339,-1.248,3.302,9.369,0
436,35.233,-97.434,90.4,16.52,3,339,-1.305,3.383,9.353,0
437,35.233,-97.434,90.2,17.041,3,338,-1.165,3.071,9.547,0
438,35.233,-97.434,90.3,17.111,3,337,-1.246,3.156,9.266,0
439,35.233,-97.433,90,17.13,3,337,-1.407,3.402,9.173,0
440,35.233,-97.433,89.9,17.2,3,337,-1.533,3.337,9.39,0
441,35.233,-97.433,89.5,17.3,3,337,-1.244,3.065,9.283,0
442,35.233,-97.433,89.4,17.33,3,337,-1.313,2.959,9.519,0
443,35.233,-97.433,89.5,17.24,3,337,-1.23,2.962,9.469,0
444,35.233,-97.432,89.7,16.97,3,337,-1.207,2.923,9.654,0
445,35.233,-97.432,90.1,16.72,3,337,-1.22,3.057,9.533,0
446,35.233,-97.432,90,16.63,3,336,-1.467,3.617,9.385,0
447,35.233,-97.432,89.8,16.84,3,337,-1.269,3.645,9.417,0
448,35.233,-97.432,89.6,17.38,3,336,-1.174,3.763,9.237,0
449,35.233,-97.431,89.6,17.98,3,336,-1.271,3.716,9.235,0
451,35.233,-97.431,89.9,18.55,3,336,-1.451,3.566,9.315,0
452,35.233,-97.431,89.9,19.07,3,337,-1.299,3.014,9.467,0
453,35.233,-97.431,90,19.07,3,336,-1.386,2.919,9.503,0
454,35.233,-97.431,90,18.74,3,336,-1.284,2.998,9.469,0
455,35.233,-97.43,90,18.46,3,337,-1.281,2.81,9.62,0
456,35.233,-97.43,90,18.24,3,337,-1.351,2.961,9.559,0
457,35.233,-97.43,89.8,17.9,3,337,-1.389,3.052,9.379,0
458,35.233,-97.43,89.8,17.49,3,338,-1.496,3.11,9.41,0
459,35.233,-97.429,89.5,17.47,3,339,-1.344,3.087,9.546,0
460,35.233,-97.429,89.2,17.48,3,339,-1.322,3.014,9.382,0
461,35.233,-97.429,88.9,17.49,3,338,-1.51,3.391,9.264,0
462,35.233,-97.429,88.3,17.65,3,339,-1.484,3.328,9.417,0
463,35.233,-97.429,87.7,17.85,3,338,-1.171,3.389,9.463,0
464,35.233,-97.429,88.7,18.04,3,339,-1.068,3.46,9.599,0
465,35.233,-97.428,89.4,18.33,3,339,-1.234,3.31,9.421,0
466,35.233,-97.428,89.8,18.34,3,339,-1.279,3.157,9.339,0
467,35.233,-97.428,89.9,18.13,3,340,-1.279,3.084,9.22,0
468,35.233,-97.428,89.9,18.02,3,340,-1.309,3.247,9.496,0
469,35.233,-97.428,89.9,17.93,3,340,-1.326,3.042,9.319,0
470,35.233,-97.427,90,17.62,3,340,-1.315,2.875,9.417,0
471,35.233,-97.427,89.8,17.29,3,341,-1.281,2.986,9.389,0
472,35.233,-97.427,90,17.09,3,341,-1.232,3.047,9.53,0
473,35.233,-97.427,90.2,16.79,3,341,-1.02,3.118,9.403,0
474,35.233,-97.427,90.9,16.62,3,341,-1.308,3.444,9.261,0
475,35.233,-97.426,91,16.79,3,342,-1.374,3.338,9.34,0
476,35.233,-97.426,90.8,16.83,3,342,-1.072,2.887,9.866,0
477,35.233,-97.426,91.6,16.53,3,343,-0.761,3.04,9.538,0
478,35.233,-97.426,92.8,16.33,3,343,-1.362,3.126,10.047,0
479,35.233,-97.426,92.9,16.05,3,343,-1.201,2.961,9.731,0
480,35.233,-97.425,91.7,15.66,3,343,-1.118,3.096,9.077,0
481,35.233,-97.425,90.8,15.36,3,343,-1.245,2.922,9.463,0
482,35.233,-97.425,90.3,15.04,3,344,-1.222,2.892,9.913,0
483,35.233,-97.425,90,14.69,3,343,-1.049,2.128,9.563,0
484,35.233,-97.425,90.2,13.91,3,343,-1.052,1.974,9.638,0
485,35.233,-97.425,90,12.53,3,343,-0.967,2.783,9.743,0
486,35.233,-97.425,90,11.52,3,344,-1.126,2.589,9.761,0
487,35.233,-97.424,90,10.9,3,344,-1.04,2.411,9.751,0
488,35.233,-97.424,90.5,9.86,3,344,-0.882,1.989,9.653,0
489,35.233,-97.424,90.9,8.66,3,344,-0.981,2.134,9.576,0
490,35.233,-97.424,90.5,7.42,3,344,-0.985,2.03,9.563,0
491,35.233,-97.424,90,6.2801,3,344,-1.062,2.114,9.531,0
492,35.233,-97.424,89.5,5.0602,3,344,-1.056,2.202,9.571,0
493,35.233,-97.424,90.2,4.1001,3,344,-0.93,1.832,9.629,0
494,35.233,-97.424,90.1,2.8701,3,343,-1.093,2.12,9.689,0
495,35.233,-97.424,90.3,1.4903,3,343,-1.14,2.356,9.579,0
496,35.233,-97.424,90.2,0.55009,3,343,-1.144,3.01,9.407,0
497,35.233,-97.424,90.2,0.55009,3,343,-1.274,3.377,9.369,0
498,35.233,-97.424,90.2,0.55009,3,343,-1.258,3.309,9.384,0
499,35.233,-97.424,90.2,0.55009,3,343,-1.236,3.302,9.365,0
500,35.233,-97.424,90.2,0.55009,3,343,-1.307,3.32,9.435,0
501,35.233,-97.424,90.2,0.55009,3,343,-1.462,3.478,9.343,0
502,35.233,-97.424,90.2,0.55009,3,343,-1.121,3.194,9.422,0
503,35.233,-97.424,90.2,0.55009,3,343,-1.395,3.406,9.397,0
505,35.233,-97.424,0,0,3,344,-1.26,3.347,9.332,0
506,35.233,-97.424,0,0,3,344,-1.242,3.29,9.385,0
507,35.233,-97.424,0,0,3,344,-1.238,3.286,9.411,0
508,35.233,-97.424,0,0,3,344,-1.234,3.3,9.365,0
509,35.233,-97.424,0,0,3,344,-1.285,3.519,9.278,0
510,35.233,-97.424,0,0,3,344,-1.334,4.051,9.135,0
511,35.233,-97.424,0,0,3,344,-1.326,3.938,9.197,0
512,35.233,-97.424,89.5,1.62,3,343,-1.297,3.93,9.283,0
513,35.233,-97.424,89.9,2.3902,3,343,-1.193,3.28,9.258,0
514,35.233,-97.424,90.1,2.7201,3,344,-1.201,3.309,9.407,0
515,35.233,-97.424,91.2,2.5,3,343,-1.133,2.838,9.5,0
516,35.233,-97.424,91.1,1.7707,3,343,-1.096,2.286,9.655,0
517,35.233,-97.424,91.1,1.7707,3,343,-1.078,2.423,9.612,0
518,35.233,-97.424,91.1,1.7707,3,343,-0.928,2.908,9.518,0
519,35.233,-97.424,91.1,1.7707,3,343,-1.314,3.369,9.359,0
520,35.233,-97.424,91.1,1.7707,3,343,-1.02,3.19,9.4,0
521,35.233,-97.424,91.1,1.7707,3,343,-1.285,4.669,9.055,0
522,35.233,-97.424,92.9,1.8002,3,343,-1.262,3.953,9.365,0
523,35.233,-97.424,92.2,2.1502,3,343,-1.067,3.408,9.368,0
524,35.233,-97.424,92.3,1.9102,3,344,-1.017,3.708,9.301,0
525,35.233,-97.424,97,2.66,3,344,0.267,5.142,9.014,0
526,35.233,-97.424,108.1,4.5516,3,344,1.453,4.954,8.936,0
527,35.233,-97.424,140.5,5.4021,3,343,1.969,5.263,8.826,0
528,35.233,-97.424,177.4,8.1036,3,342,-0.734,5.777,8.623,0
529,35.233,-97.424,181.2,10.88,3,342,-1.538,5.675,8.417,0
530,35.232,-97.424,180.4,13.531,3,341,-1.561,5.442,8.718,0
531,35.232,-97.424,179.8,15.86,3,341,-1.152,4.744,8.621,0
532,35.232,-97.424,179.9,17.23,3,341,-1.459,4.333,9.35,0
533,35.232,-97.424,179.5,18.481,3,339,-1.479,4.198,9.631,0
534,35.232,-97.424,178.9,19.42,3,338,-1.174,3.649,9.045,0
535,35.232,-97.424,178.8,20.091,3,338,-1.182,2.998,9.659,0
536,35.231,-97.424,179.1,20.05,3,337,-1.156,3.24,9.769,0
537,35.231,-97.424,179.3,19.87,3,337,-1.353,3.115,9.299,0
538,35.231,-97.424,179,19.85,3,337,-1.282,2.904,9.289,0
539,35.231,-97.424,178.2,19.89,3,337,-1.524,3.073,9.154,0
540,35.231,-97.424,177.3,19.83,9,336,-1.085,3.059,9.255,0
541,35.231,-97.424,177.5,19.83,9,336,-1.069,3.258,9.385,0
542,35.23,-97.424,178.1,19.88,9,336,-1.339,3.577,9.14,0
543,35.23,-97.424,178.5,20.16,9,336,-1.291,3.436,9.435,0
544,35.23,-97.424,178.5,20.41,9,336,-1.356,3.317,9.364,0
545,35.23,-97.424,178.3,20.68,9,335,-0.977,3.245,9.381,0
546,35.23,-97.424,178.2,20.9,9,335,-0.654,2.958,9.457,0
547,35.229,-97.424,179.7,20.961,9,334,-1.067,2.855,9.373,0
548,35.229,-97.424,180.3,20.79,9,334,-1.097,2.866,9.489,0
549,35.229,-97.424,180.5,20.47,9,334,-1.073,2.738,9.48,0
550,35.229,-97.424,180.6,20.25,9,333,-0.994,2.827,9.653,0
551,35.229,-97.424,181.1,19.871,9,332,-0.933,2.852,9.535,0
552,35.229,-97.424,181.5,19.73,9,332,-1.214,2.902,9.6,0
553,35.228,-97.424,181.6,19.42,9,331,-1.379,2.982,9.421,0
554,35.228,-97.424,181,19.301,9,331,-1.294,2.971,9.285,0
555,35.228,-97.424,180.6,19.32,9,332,-1.213,2.949,9.45,0
556,35.228,-97.424,180.3,19.27,9,331,-1.194,2.947,9.291,0
557,35.228,-97.424,180.3,18.99,9,330,-1.125,2.805,9.511,0
558,35.227,-97.424,180.5,18.67,9,329,-0.78,1.447,9.723,0
559,35.227,-97.424,180.6,17.57,9,329,-1.088,1.645,9.782,0
560,35.227,-97.424,180.3,15.77,9,329,-1.046,1.616,9.788,0
562,35.227,-97.424,180.1,14.41,9,329,-0.866,1.578,9.748,0
563,35.227,-97.424,180.9,13.38,9,329,-0.967,1.951,9.614,0
564,35.227,-97.424,180.7,11.501,9,329,-0.925,1.632,9.624,0
565,35.227,-97.424,181,10.59,9,329,-0.844,1.387,9.734,0
566,35.227,-97.424,181.1,8.6605,9,328,-1.024,1.944,9.634,1
567,35.227,-97.424,181,7.0312,9,329,-0.947,2.114,9.7,1
568,35.227,-97.424,180.5,6.0603,9,328,-0.926,2.217,9.668,1
569,35.227,-97.424,180.6,5.1402,9,328,-1.076,2.564,9.433,1
570,35.226,-97.424,180.3,4.0621,9,328,-1.094,2.752,9.481,1
571,35.226,-97.424,181,3.6303,9,328,-1.017,2.486,9.575,1
572,35.226,-97.424,180.4,3,9,328,-1.016,2.416,9.524,1
573,35.226,-97.424,180,2.3602,9,328,-1.004,2.481,9.555,1
574,35.226,-97.424,180.1,1.8604,9,328,-1.027,2.472,9.581,1
575,35.226,-97.424,180.9,1.09,9,328,-0.936,1.945,9.714,1
576,35.226,-97.424,180.9,1.09,9,328,-1.048,2.847,9.488,1
577,35.226,-97.424,180.9,1.09,9,328,-1.071,3.041,9.448,1
578,35.226,-97.424,180.9,1.09,9,328,-1.085,3.061,9.448,1
579,35.226,-97.424,180.9,1.09,9,328,-1.079,3.056,9.455,0
580,35.226,-97.424,180.9,1.09,9,328,-1.067,3.044,9.416,0
581,35.226,-97.424,0,0,9,329,-1.091,3.081,9.464,0
582,35.226,-97.424,0,0,9,329,-1.08,3.081,9.395,0
583,35.226,-97.424,0,0,9,329,-1.077,3.058,9.448,0
584,35.226,-97.424,0,0,9,329,-1.083,3.06,9.43,0
585,35.226,-97.424,0,0,9,329,-1.065,3.075,9.398,0
586,35.226,-97.424,0,0,9,329,-1.032,3.024,9.374,0
587,35.226,-97.424,0,0,9,329,-1.139,3.12,9.51,0
588,35.226,-97.424,0,0,9,329,-1.047,3.06,9.369,0
589,35.226,-97.424,0,0,9,329,-1.24,3.228,9.501,0
590,35.226,-97.424,0,0,9,329,-1.312,3.328,9.381,0
591,35.226,-97.424,0,0,9,329,-1.047,3.52,9.354,0
592,35.226,-97.424,0,0,9,329,-1.114,3.738,9.219,0
593,35.226,-97.424,179.9,1.5201,9,330,-1.148,3.599,9.258,0
594,35.226,-97.424,180.6,1.9706,9,331,-1.19,3.925,9.223,0
595,35.226,-97.424,180.7,2.9,9,332,-1.196,4.089,9.209,0
596,35.226,-97.424,180.3,3.5409,9,332,-1.266,4.453,9.066,0
597,35.226,-97.424,181,5.1002,9,333,-1.192,4.284,9.281,0
598,35.226,-97.424,180.6,6.1529,9,332,-1.133,4.129,9.12,0
599,35.226,-97.424,180.6,7.2308,9,332,-1.288,4.053,9.243,0
600,35.226,-97.424,180.7,8.31,9,333,-1.309,3.911,9.116,0
601,35.226,-97.424,180.3,9.2401,9,334,-1.29,4.046,9.295,0
602,35.226,-97.424,180,10.29,9,334,-1.222,3.89,9.353,0
603,35.226,-97.424,180,11.21,9,335,-1.315,4.051,9.56,0
604,35.226,-97.424,180,12.04,9,335,-1.16,3.825,9.253,0
605,35.225,-97.424,180.3,12.85,9,335,-1.192,3.706,9.365,0
606,35.225,-97.424,179.6,13.424,9,334,-1.247,3.425,9.29,0
607,35.225,-97.424,180.3,13.691,9,334,-1.071,3.376,9.451,0
608,35.225,-97.424,180.3,14.09,9,335,-1.071,3.32,9.316,0
609,35.225,-97.424,180.4,14.221,9,335,-1.12,3.149,9.429,0
