time,lat,lng,bearing,spd,acc,alt,accx,accy,accz,stable,
0,35.218,-97.459,93.6,0.51,15.17,318,-0.741,2.322,9.439,1
1,35.218,-97.459,0,0,15.17,319,-0.765,2.308,9.345,1
2,35.218,-97.459,0,0,15.17,319,-0.734,2.311,9.227,1
3,35.218,-97.459,0,0,15.17,319,-0.76,2.322,9.309,1
4,35.218,-97.459,0,0,15.17,319,-0.747,2.337,9.387,1
5,35.218,-97.459,0,0,15.17,319,-0.752,2.321,9.316,1
6,35.218,-97.459,0,0,15.17,319,-0.734,2.333,9.432,1
7,35.218,-97.459,0,0,15.17,319,-0.741,2.308,9.263,1
8,35.218,-97.459,0,0,15.17,319,-0.742,2.309,9.284,1
9,35.218,-97.459,0,0,15.17,319,-0.754,2.318,9.373,1
10,35.218,-97.459,0,0,15.17,319,-0.752,2.336,9.379,1
11,35.218,-97.459,0,0,15.17,319,-0.754,2.322,9.278,1
12,35.218,-97.459,0,0,15.17,319,-0.744,2.309,9.35,1
13,35.218,-97.459,0,0,15.17,319,-0.752,2.34,9.369,1
14,35.218,-97.459,0,0,13.653,319,-0.755,2.336,9.319,1
15,35.218,-97.459,0,0,13.653,319,-0.75,2.337,9.424,1
16,35.218,-97.459,0,0,13.653,319,-0.762,2.336,9.43,1
17,35.218,-97.459,0,0,13.653,319,-0.743,2.309,9.219,1
18,35.218,-97.459,0,0,13.653,319,-0.753,2.321,9.267,1
19,35.218,-97.459,0,0,13.653,319,-0.747,2.299,9.371,1
20,35.218,-97.459,0,0,13.653,319,-0.77,2.916,9.151,1
21,35.218,-97.459,0,0,13.653,319,-0.84,4.758,8.515,1
22,35.218,-97.459,0,0,13.653,319,-0.809,3.884,8.857,1
23,35.218,-97.459,0,0,13.653,319,-0.303,4.391,8.825,0
25,35.218,-97.459,0,0,13.653,319,-0.714,3.879,8.899,0
25,35.218,-97.459,0,0,13.653,319,-0.714,3.879,8.899,0
26,35.218,-97.459,93.6,5.61,15.17,318,-0.793,3.851,8.742,1
27,35.218,-97.459,83,8.6,16.687,320,-1.057,3.407,9.901,0
28,35.218,-97.459,89.1,9.39,16.687,322,-0.715,3.377,9.051,0
29,35.218,-97.459,89.1,12.53,15.17,321,-0.543,2.577,8.955,0
30,35.218,-97.458,90.1,13.33,15.17,324,-0.678,2.527,8.771,0
31,35.218,-97.458,91.2,13.65,13.653,321,-1.164,2.724,9.449,0
32,35.218,-97.458,92,13.97,13.653,321,-0.643,2.659,9.546,0
33,35.218,-97.458,91.2,14.23,13.653,322,-0.833,2.293,9.402,0
34,35.218,-97.458,89.6,14.76,15.17,322,-0.818,2.317,9.633,0
35,35.218,-97.458,90.3,14.6,13.653,323,-0.782,2.314,9.085,0
36,35.218,-97.457,90.7,14.46,15.17,324,-0.705,2.329,9.501,1
37,35.218,-97.457,91,14.32,13.653,324,-0.879,2.072,8.695,0
38,35.218,-97.457,90.9,14.44,15.17,323,-1.024,2.469,9.359,0
39,35.218,-97.457,90.7,14.59,15.17,322,-0.959,2.402,9.504,0
40,35.218,-97.457,91.1,14.79,15.17,323,-1.099,2.269,10.248,0
41,35.218,-97.457,90.8,14.68,15.17,320,-0.853,1.96,9.548,0
42,35.218,-97.456,90.3,14.35,15.17,320,-0.932,1.956,9.353,0
43,35.218,-97.456,89.6,14.15,15.17,321,-0.896,2.35,9.73,0
44,35.218,-97.456,90.5,13.98,15.17,322,-0.596,2.555,9.641,0
45,35.218,-97.456,91.4,13.82,15.17,323,-0.747,2.491,9.288,0
46,35.218,-97.456,91.1,13.79,15.17,323,-0.84,2.415,8.705,0
47,35.218,-97.456,91.3,14.15,15.17,323,-0.789,2.54,9.375,0
48,35.218,-97.456,91.7,14.28,15.17,324,-0.71,2.02,8.563,0
49,35.218,-97.455,91,14.35,15.17,323,-0.696,2.066,10.308,0
50,35.218,-97.455,90.4,14.32,15.17,323,-0.605,2.224,9.765,0
51,35.218,-97.455,90.6,14.09,15.17,323,-0.905,2.178,9.557,0
52,35.218,-97.455,92,13.89,13.653,324,-0.956,2.071,9.51,0
53,35.218,-97.455,91.8,13.76,15.17,325,-0.826,2.132,9.669,0
54,35.218,-97.455,90.5,13.29,13.653,326,-0.367,2.026,8.806,0
55,35.218,-97.454,90.8,13.54,15.17,327,-0.803,2.061,8.815,0
56,35.218,-97.454,91.1,12.82,13.653,328,-0.94,2.234,9.428,0
57,35.218,-97.454,91.1,12.96,13.653,327,-0.725,2.206,9.368,0
58,35.218,-97.454,90.7,12.93,15.17,327,-0.849,2.351,9.85,0
59,35.218,-97.454,90,12.93,15.17,328,-0.753,2.36,9.439,0
60,35.218,-97.454,90.5,12.74,15.17,327,-0.775,2.463,9.197,0
61,35.218,-97.454,90.6,11.83,16.687,329,-0.592,2.418,9.043,0
62,35.218,-97.454,91.6,11.84,16.687,327,-0.842,2.399,9.043,1
63,35.218,-97.453,86.6,14.03,18.204,327,-1.049,2.282,9.471,0
64,35.218,-97.453,86.6,15.06,18.204,328,-0.56,1.769,9.015,0
65,35.218,-97.453,90.1,13.79,16.687,325,-0.627,1.369,8.945,0
66,35.218,-97.453,90.6,13.54,15.17,326,-0.97,1.966,9.35,0
67,35.218,-97.453,90.4,13.08,15.17,325,-0.703,1.738,9.706,0
68,35.218,-97.453,89.5,12.74,15.17,326,-0.667,1.568,9.485,0
69,35.218,-97.452,88.5,12.12,15.17,328,-0.746,2.041,9.206,0
70,35.218,-97.452,89,11.77,15.17,327,-0.896,2.174,9.266,0
71,35.218,-97.452,88.5,11.79,16.687,327,-0.949,2.032,9.257,0
73,35.218,-97.452,90.2,12.44,18.204,329,-0.847,2.209,9.554,0
73,35.218,-97.452,90.2,12.44,18.204,329,-0.847,2.209,9.554,0
74,35.218,-97.452,88.6,11.08,15.17,329,-0.572,2.19,9.475,0
75,35.218,-97.452,89.1,11.06,15.17,328,-0.814,2.211,9.494,0
76,35.218,-97.452,90,10.75,15.17,328,-0.689,2.155,9.715,0
77,35.218,-97.451,91.8,10.76,16.687,327,-0.699,2.423,9.269,0
78,35.218,-97.451,96.2,11.29,16.687,326,-0.652,2.417,9.189,0
79,35.218,-97.451,93.9,11.5,16.687,327,-0.835,2.646,9.555,1
80,35.218,-97.451,91.2,11.18,15.17,325,-0.613,2.428,9.135,0
81,35.218,-97.451,90.8,11.27,15.17,324,-0.807,2.556,9.518,0
82,35.218,-97.451,90.6,11.16,15.17,324,-0.62,2.444,9.608,1
83,35.218,-97.451,90.6,11.43,15.17,325,-0.687,2.283,9.747,0
84,35.218,-97.451,91.5,11.19,13.653,324,-0.788,2.306,9.192,0
85,35.218,-97.45,90.9,10.94,13.653,324,-0.968,2.502,9.539,0
86,35.218,-97.45,90.3,10.92,13.653,325,-0.783,2.518,9.367,0
87,35.218,-97.45,89.2,11.04,13.653,326,-0.722,2.444,9.243,0
88,35.218,-97.45,90.4,10.84,13.653,326,-0.774,2.474,9.19,0
89,35.218,-97.45,90.5,10.95,13.653,324,-0.596,2.51,9.119,0
90,35.218,-97.45,89.9,10.95,13.653,325,-0.998,2.71,9.568,0
91,35.218,-97.45,89.8,11.12,13.653,325,-0.879,2.307,9.264,0
92,35.218,-97.45,90.1,11.32,13.653,325,-0.932,2.252,9.558,1
93,35.218,-97.45,89.7,11.47,15.17,323,-2.418,2.345,10.217,0
94,35.218,-97.449,86.7,11.07,13.653,323,-3.359,2.083,9.306,0
95,35.218,-97.449,77.9,10.55,15.17,324,-1.287,2.075,9.028,0
96,35.218,-97.449,66.8,10.78,15.17,323,-0.846,1.923,9.203,1
97,35.218,-97.449,64.9,10.74,15.17,324,-0.911,0.343,9.921,0
98,35.218,-97.449,63.5,9.81,13.653,324,-0.956,0.45,9.929,0
99,35.219,-97.449,64.2,9.21,15.17,324,-0.892,1.333,9.674,0
100,35.219,-97.449,63.6,8.96,15.17,324,-0.937,1.152,9.825,1
101,35.219,-97.449,59.9,7.06,16.687,325,-0.96,2.248,9.306,1
102,35.219,-97.449,57.4,4.36,15.17,326,-0.974,3.165,9.144,1
103,35.219,-97.449,60,4.02,15.17,326,-0.965,3.069,9.231,1
104,35.219,-97.449,61.1,4.66,13.653,326,-0.836,3.307,9.037,1
105,35.219,-97.449,61.4,5.37,13.653,326,-0.847,3.273,9.183,1
106,35.219,-97.449,62.2,5.76,15.17,325,-0.913,2.833,9.091,1
107,35.219,-97.448,63.4,6.2,15.17,325,-0.916,2.352,9.432,1
108,35.219,-97.448,61.5,7.93,15.17,324,-0.684,2.415,8.964,1
109,35.219,-97.448,62.3,7.92,15.17,324,-0.748,2.811,9.168,1
110,35.219,-97.448,62.5,7.65,13.653,325,-0.73,2.825,9.389,0
111,35.219,-97.448,61.8,7.97,13.653,325,-0.781,2.491,8.867,0
112,35.219,-97.448,62.5,8.76,13.653,325,-0.825,2.511,9.714,0
113,35.219,-97.448,62.8,9.3,13.653,325,-0.725,2.282,9.075,0
114,35.219,-97.448,63.6,9.5,13.653,326,-0.58,2.2,9.184,0
115,35.219,-97.448,62.1,9.19,13.653,328,-0.681,2.189,9.401,1
116,35.219,-97.448,60.9,9.53,13.653,327,-0.768,2.163,9.453,1
117,35.219,-97.448,61.6,9.18,15.17,328,-0.74,2.176,9.739,0
119,35.219,-97.448,62.4,9.69,15.17,329,-0.821,2.186,9.42,0
119,35.219,-97.448,62.4,9.69,15.17,329,-0.821,2.186,9.42,0
120,35.219,-97.447,62.6,8.62,15.17,331,-0.712,2.269,9.501,1
121,35.219,-97.447,63.8,8.59,15.17,331,-0.658,1.428,9.253,0
122,35.219,-97.447,63.6,8.15,15.17,331,-0.779,0.991,9.866,0
123,35.219,-97.447,63.5,7.74,16.687,331,-0.688,0.95,9.853,1
124,35.219,-97.447,62.5,5.33,15.17,332,-0.63,1.157,9.785,1
125,35.219,-97.447,62,4.43,15.17,332,-0.695,1.534,9.633,1
126,35.219,-97.447,63.1,4.18,16.687,332,-0.767,2.139,9.426,1
127,35.219,-97.447,59.7,2.9,15.17,333,-0.79,2.175,9.409,1
128,35.219,-97.447,58.5,2.6,15.17,333,-0.65,1.881,9.455,1
129,35.219,-97.447,63,2.18,15.17,333,-0.748,1.91,9.549,1
130,35.219,-97.447,63,2.18,15.17,333,-0.762,1.117,9.646,1
131,35.219,-97.447,63,2.18,15.17,333,-0.743,2.079,9.451,1
132,35.219,-97.447,63,2.18,15.17,333,-0.756,2.379,9.328,1
133,35.219,-97.447,63,2.18,15.17,333,-0.75,2.335,9.324,1
134,35.219,-97.447,60.3,0.17,13.653,335,-0.744,2.405,9.275,1
135,35.219,-97.447,60.3,0.17,13.653,335,-0.759,2.674,9.232,1
136,35.219,-97.447,60.3,0.17,13.653,335,-0.767,2.698,9.236,1
137,35.219,-97.447,60.3,0.17,13.653,335,-0.84,2.561,9.217,1
138,35.219,-97.447,60.3,0.17,13.653,335,-0.792,1.945,9.537,1
139,35.219,-97.447,60.3,0.17,13.653,335,-0.747,1.672,9.498,1
140,35.219,-97.447,60.3,0.17,13.653,335,-0.731,2.387,9.454,1
141,35.219,-97.447,60.3,0.17,13.653,335,-0.732,2.369,9.339,1
142,35.219,-97.447,0,0,13.653,334,-0.721,2.37,9.366,1
143,35.219,-97.447,0,0,13.653,334,-0.728,2.363,9.384,1
144,35.219,-97.447,0,0,13.653,334,-0.729,2.803,9.236,1
145,35.219,-97.447,0,0,13.653,334,-0.729,3.672,8.986,1
146,35.219,-97.447,0,0,13.653,334,-0.772,4.264,8.622,1
147,35.219,-97.447,0,0,13.653,334,-0.597,3.708,8.72,1
148,35.219,-97.447,0,0,13.653,334,-0.685,3.216,8.864,1
149,35.219,-97.447,63,5.55,13.653,336,-0.49,3.446,8.649,0
150,35.219,-97.447,63.7,6.01,13.653,335,-0.75,3.537,8.953,1
151,35.219,-97.447,63.2,7.79,13.653,336,-0.736,3.364,8.662,1
152,35.219,-97.447,63.9,8.92,13.653,337,-0.799,3.414,8.986,0
153,35.22,-97.446,63.1,10,13.653,337,-0.699,2.347,9.258,0
154,35.22,-97.446,62.8,10.52,13.653,337,-0.875,2.413,9.286,1
155,35.22,-97.446,62.9,10.57,13.653,336,-1.003,2.109,9.346,1
156,35.22,-97.446,62.7,10.46,13.653,336,-0.688,1.921,9.898,0
157,35.22,-97.446,61.9,10.64,13.653,336,-0.833,1.142,9.625,1
158,35.22,-97.446,63,9.73,13.653,335,-0.75,1.041,9.697,0
159,35.22,-97.446,61.9,8.81,13.653,336,-0.827,1.127,9.684,1
160,35.22,-97.446,63.4,7.29,13.653,335,-0.871,1.536,9.679,1
161,35.22,-97.446,62.8,5.74,13.653,333,-0.794,1.593,9.597,1
162,35.22,-97.446,63.9,4.92,13.653,334,-0.915,1.357,9.552,1
163,35.22,-97.446,62.6,4.51,13.653,332,-0.88,1.356,9.595,1
164,35.22,-97.446,62.8,3.33,13.653,333,-0.874,1.311,9.696,1
165,35.22,-97.446,62.5,2.81,13.653,332,-0.865,1.544,9.561,1
166,35.22,-97.446,62.6,1.39,13.653,332,-0.909,2.634,9.272,1
167,35.22,-97.446,62.6,1.39,13.653,332,-0.927,4.189,8.739,1
169,35.22,-97.446,62.6,1.39,13.653,332,-0.828,4.372,8.587,1
169,35.22,-97.446,62.6,1.39,13.653,332,-0.828,4.372,8.587,1
170,35.22,-97.445,62.3,3.78,13.653,334,-0.84,3.851,8.805,1
171,35.22,-97.445,62.4,5.39,13.653,336,-0.978,3.319,9.286,1
172,35.22,-97.445,63.8,6.56,13.653,336,-0.855,3.337,8.958,0
173,35.22,-97.445,63.1,7.26,13.653,336,-0.609,3,8.713,1
174,35.22,-97.445,62.5,8.04,13.653,337,-1.045,0.878,9.996,0
175,35.22,-97.445,63.7,7.25,13.653,337,-0.889,0.935,9.81,0
176,35.22,-97.445,61.4,6.23,13.653,337,-0.882,2.267,9.155,1
177,35.22,-97.445,62.8,5.42,13.653,337,-0.857,2.348,9.165,1
178,35.22,-97.445,62.2,5.32,13.653,337,-0.873,-2.581,10.742,0
179,35.22,-97.445,63.8,3.05,13.653,338,-0.793,0.042,10.001,0
180,35.22,-97.445,67,2.44,13.653,338,-0.81,2.278,9.337,1
181,35.22,-97.445,67,2.44,13.653,338,-0.778,2.29,9.288,1
182,35.22,-97.445,67,2.44,13.653,338,-0.792,2.314,9.369,1
183,35.22,-97.445,67,2.44,13.653,338,-0.804,2.291,9.239,1
184,35.22,-97.445,67,2.44,13.653,338,-0.803,2.315,9.377,1
185,35.22,-97.445,67,2.44,13.653,338,-0.796,2.3,9.258,1
186,35.22,-97.445,63.8,0.19,13.653,336,-0.802,2.274,9.247,1
187,35.22,-97.445,0,0,13.653,336,-0.808,2.316,9.256,1
188,35.22,-97.445,0,0,13.653,336,-0.795,2.325,9.426,1
189,35.22,-97.445,0,0,13.653,336,-0.799,2.657,9.173,1
190,35.22,-97.445,0,0,13.653,336,-0.801,2.653,9.142,1
191,35.22,-97.445,0,0,13.653,336,-0.792,2.569,9.302,1
192,35.22,-97.445,0,0,13.653,336,-0.876,2.691,9.213,1
193,35.22,-97.445,0,0,13.653,336,-0.784,3.445,8.999,1
194,35.22,-97.445,0,0,13.653,336,-0.804,4.165,8.756,1
195,35.22,-97.445,0,0,13.653,336,-0.788,2.551,9.27,1
196,35.22,-97.445,0,0,13.653,336,-0.952,2.403,9.385,1
197,35.22,-97.445,63.3,4.77,13.653,335,-0.743,2.282,9.226,0
198,35.22,-97.445,64,4.78,13.653,335,-0.734,3.387,8.975,1
199,35.22,-97.445,66.1,5.09,13.653,334,-0.749,3.278,8.988,1
200,35.22,-97.445,63.3,5.99,13.653,335,-0.854,2.337,9.418,1
201,35.22,-97.445,63.6,6.76,13.653,335,-0.805,1.124,9.652,1
202,35.22,-97.445,62.9,6.67,13.653,336,-0.816,2.111,9.411,1
203,35.22,-97.444,63.4,5.71,13.653,335,-0.807,2.796,9.163,1
204,35.22,-97.444,62.8,5.59,13.653,336,-0.744,3.105,8.969,1
205,35.22,-97.444,62.9,5.86,13.653,337,-0.674,1.805,9.482,1
206,35.22,-97.444,65,6.51,13.653,336,-0.72,0.763,9.921,1
207,35.22,-97.444,62.2,5.87,13.653,335,-0.404,2.148,9.042,1
208,35.221,-97.444,62.8,5.01,13.653,336,-0.66,2.678,9.035,0
209,35.221,-97.444,63,4.7,13.653,335,-0.758,3.253,9.325,1
210,35.221,-97.444,61.6,4.68,13.653,334,-0.595,3.595,8.956,0
211,35.221,-97.444,63.2,5.37,13.653,333,-0.701,3.47,8.98,0
212,35.221,-97.444,63.9,6.47,13.653,333,-0.786,3.267,8.819,1
213,35.221,-97.444,61.7,7.35,13.653,333,-1.008,3.121,9.485,0
214,35.221,-97.444,63.6,8.45,13.653,333,-0.725,2.991,9.508,0
215,35.221,-97.444,62.4,8.78,13.653,333,-0.794,2.783,8.947,0
216,35.221,-97.444,63.4,9.18,13.653,334,-0.762,2.749,8.557,1
217,35.221,-97.444,62.4,9.68,13.653,333,-0.908,2.773,9.492,0
219,35.221,-97.443,63.8,10.37,13.653,333,-0.951,2.279,9.498,0
219,35.221,-97.443,63.8,10.37,13.653,333,-0.951,2.279,9.498,0
220,35.221,-97.443,62.4,10.71,13.653,330,-1.015,2.156,9.155,0
221,35.221,-97.443,62.1,10.77,13.653,331,-1.044,2.129,9.381,0
222,35.221,-97.443,62.1,10.54,13.653,331,-1.018,2.205,9.757,0
223,35.221,-97.443,62.5,10.55,13.653,331,-0.865,2.084,9.524,1
224,35.221,-97.443,62.6,10.13,13.653,331,-0.794,1.881,9.428,0
225,35.221,-97.443,63.3,9.56,13.653,331,-0.834,1.67,9.687,0
226,35.221,-97.443,63.7,9.41,15.17,331,-0.866,1.653,9.601,1
227,35.221,-97.443,62.9,8.62,13.653,332,-0.912,1.598,9.707,0
228,35.221,-97.442,62.6,8.74,15.17,331,-0.967,1.631,9.574,1
229,35.221,-97.442,63.6,6.78,15.17,331,-1.077,1.263,9.805,1
230,35.221,-97.442,64.4,5.75,15.17,332,-0.9,1.232,9.637,1
231,35.221,-97.442,62.2,4.79,15.17,330,-0.884,1.689,9.702,1
232,35.221,-97.442,61.8,4.39,15.17,331,-0.778,0.651,9.725,1
233,35.221,-97.442,63.5,3.08,15.17,331,-0.833,0.902,9.673,1
234,35.221,-97.442,62.4,1.52,15.17,332,-0.792,1.98,9.474,1
235,35.221,-97.442,62.5,0.7,15.17,333,-0.808,2.659,9.188,1
236,35.221,-97.442,62.6,1.06,13.653,334,-0.872,4.099,8.738,1
237,35.221,-97.442,64,2.17,15.17,335,-0.877,3.843,8.671,1
238,35.221,-97.442,59.8,4.35,15.17,335,-0.836,3.39,8.846,1
239,35.221,-97.442,62.8,5.88,13.653,334,-0.822,3.436,8.872,0
240,35.221,-97.442,63.8,6.96,13.653,333,-0.921,3.45,9.003,0
241,35.221,-97.442,62.7,7.98,13.653,335,-0.927,3.123,8.946,0
242,35.222,-97.442,62.9,9.4,13.653,335,-0.892,1.53,9.277,1
243,35.222,-97.442,64,9.87,13.653,335,-0.84,-0.21,9.71,0
244,35.222,-97.442,62.7,8.13,15.17,336,-0.769,2.176,9.185,0
245,35.222,-97.442,62.9,6.75,15.17,337,-0.697,2.251,9.18,1
246,35.222,-97.442,60.9,6.57,15.17,336,-0.676,2.278,9.626,1
247,35.222,-97.441,58.8,6.31,16.687,336,-0.884,1.465,9.761,0
248,35.222,-97.441,62.8,5.93,16.687,336,-0.946,2.27,9.253,1
249,35.222,-97.441,63.6,5.3,16.687,336,-0.828,2.635,9.361,1
250,35.222,-97.441,63.6,4.93,16.687,336,-0.595,3.174,9.016,1
251,35.222,-97.441,62.5,5.25,15.17,337,-0.893,3.227,9.051,1
252,35.222,-97.441,64,6.27,15.17,337,-0.993,3.119,9.174,1
253,35.222,-97.441,64.4,7.14,15.17,337,-0.964,2.376,9.422,1
254,35.222,-97.441,63.4,7.75,15.17,336,-0.727,1.683,9.81,1
255,35.222,-97.441,62.3,7.64,15.17,337,-0.812,1.115,9.543,1
256,35.222,-97.441,61.7,7.37,15.17,338,-0.825,0.501,9.954,0
257,35.222,-97.441,59.7,6.55,15.17,335,-0.785,1.269,9.715,1
258,35.222,-97.441,59.2,5.03,15.17,334,-0.875,1.256,9.644,1
259,35.222,-97.441,60.4,3.09,15.17,334,-0.797,1.533,9.481,1
261,35.222,-97.441,53.4,2.25,15.17,334,-0.818,1.491,9.535,1
261,35.222,-97.441,53.4,2.25,15.17,334,-0.818,1.491,9.535,1
262,35.222,-97.441,61.3,0.58,15.17,335,-0.849,2.379,9.378,1
263,35.222,-97.441,61.3,0.58,15.17,335,-0.818,2.335,9.273,1
264,35.222,-97.441,61,0.5,16.687,333,-0.823,2.321,9.255,1
265,35.222,-97.441,60.9,0.31,16.687,332,-0.81,2.322,9.417,1
266,35.222,-97.441,61,0.22,18.204,331,-0.808,2.308,9.249,1
267,35.222,-97.441,61,0.22,18.204,331,-0.817,2.313,9.235,1
268,35.222,-97.441,61,0.22,18.204,331,-0.815,2.304,9.234,1
269,35.222,-97.441,0,0,15.17,331,-0.811,2.324,9.229,1
270,35.222,-97.441,0,0,15.17,331,-0.832,2.297,9.339,1
271,35.222,-97.441,0,0,15.17,331,-0.822,2.317,9.341,1
272,35.222,-97.441,0,0,15.17,331,-0.821,2.301,9.28,1
273,35.222,-97.441,0,0,15.17,331,-0.812,2.293,9.231,1
274,35.222,-97.441,0,0,15.17,332,-0.825,2.315,9.367,1
275,35.222,-97.441,0,0,15.17,332,-0.833,2.287,9.258,1
276,35.222,-97.441,0,0,15.17,333,-0.822,2.338,9.464,1
277,35.222,-97.441,0,0,15.17,333,-0.818,2.343,9.387,1
278,35.222,-97.441,0,0,15.17,333,-0.837,2.307,9.286,1
279,35.222,-97.441,0,0,15.17,333,-0.829,2.309,9.259,1
280,35.222,-97.441,0,0,15.17,333,-0.829,2.315,9.208,1
281,35.222,-97.441,0,0,15.17,333,-0.834,2.31,9.221,1
282,35.222,-97.441,0,0,15.17,333,-0.817,2.329,9.319,1
283,35.222,-97.441,0,0,15.17,333,-0.816,2.294,9.246,1
284,35.222,-97.441,0,0,15.17,333,-0.815,2.296,9.286,1
285,35.222,-97.441,0,0,15.17,333,-0.835,2.306,9.269,1
286,35.222,-97.441,0,0,15.17,333,-0.814,2.335,9.379,1
287,35.222,-97.441,0,0,15.17,333,-0.821,2.543,9.183,1
288,35.222,-97.441,0,0,15.17,333,-0.802,2.853,9.094,1
289,35.222,-97.441,0,0,15.17,333,-0.822,4.265,8.742,1
290,35.222,-97.441,0,0,15.17,333,-0.817,4.204,8.733,1
291,35.222,-97.441,0,0,15.17,333,-0.8,3.938,8.721,1
292,35.222,-97.441,0,0,15.17,333,-0.844,3.583,9.064,1
293,35.222,-97.441,0,0,15.17,333,-0.721,3.735,8.769,0
294,35.222,-97.441,62.5,5.15,15.17,334,-0.829,3.85,8.687,1
295,35.222,-97.44,63,9.4,15.17,334,-0.835,2.359,8.811,0
296,35.222,-97.44,61.9,10.58,13.653,334,-1.106,2.269,9.397,0
297,35.222,-97.44,62,11.62,13.653,337,-0.948,2.004,9.299,0
298,35.222,-97.44,62.8,11.52,13.653,337,-0.976,1.627,9.65,0
299,35.222,-97.44,61.4,11.19,13.653,337,-0.808,1.157,10.101,0
301,35.222,-97.44,62.4,10.28,13.653,337,-0.799,1.348,9.616,1
301,35.222,-97.44,62.4,10.28,13.653,337,-0.799,1.348,9.616,1
302,35.222,-97.44,63.6,8.25,13.653,338,-0.721,1.86,9.21,0
303,35.222,-97.44,62.3,7.77,13.653,339,-0.795,1.398,9.536,1
304,35.222,-97.44,62.4,6.84,13.653,340,-0.909,0.744,9.498,0
305,35.222,-97.44,59.6,5.44,13.653,339,-1.561,2.097,9.157,0
306,35.222,-97.44,55.4,4.89,13.653,339,-1.109,2.079,9.432,1
307,35.223,-97.439,53.3,4.62,13.653,340,-0.395,1.905,9.328,1
308,35.223,-97.439,52.3,4.48,15.17,340,-0.304,1.488,9.542,1
309,35.223,-97.439,56.2,3.97,15.17,340,-0.649,1.025,9.568,1
310,35.223,-97.439,57.4,2.59,15.17,340,-0.675,0.983,9.76,1
311,35.223,-97.439,64.1,2.22,15.17,342,-0.698,1.717,9.453,1
312,35.223,-97.439,0,0,15.17,339,-0.718,2.369,9.302,1
313,35.223,-97.439,0,0,15.17,339,-0.7,2.325,9.418,1
314,35.223,-97.439,0,0,15.17,339,-0.703,2.291,9.362,1
315,35.223,-97.439,59.1,0.2,13.653,341,-0.686,2.299,9.241,1
316,35.223,-97.439,59.1,0.2,13.653,341,-0.699,2.304,9.362,1
317,35.223,-97.439,59.1,0.2,13.653,341,-0.706,2.287,9.305,1
318,35.223,-97.439,59.1,0.2,13.653,341,-0.701,2.282,9.224,1
319,35.223,-97.439,59.1,0.2,13.653,341,-0.7,2.302,9.275,1
320,35.223,-97.439,0,0,13.653,341,-0.687,2.318,9.397,1
321,35.223,-97.439,0,0,13.653,341,-0.708,2.303,9.361,1
322,35.223,-97.439,0,0,13.653,341,-0.691,2.287,9.363,1
323,35.223,-97.439,0,0,13.653,341,-0.719,2.291,9.307,1
324,35.223,-97.439,0,0,13.653,341,-0.707,2.304,9.414,1
325,35.223,-97.439,0,0,13.653,341,-0.69,2.27,9.229,1
326,35.223,-97.439,0,0,13.653,341,-0.708,2.309,9.407,1
327,35.223,-97.439,0,0,13.653,341,-0.7,2.29,9.432,1
328,35.223,-97.439,0,0,13.653,341,-0.691,2.288,9.413,1
329,35.223,-97.439,0,0,13.653,341,-0.7,2.298,9.283,1
330,35.223,-97.439,0,0,13.653,341,-0.697,2.286,9.282,1
331,35.223,-97.439,0,0,13.653,341,-0.705,2.315,9.425,1
332,35.223,-97.439,0,0,13.653,341,-0.698,2.299,9.349,1
333,35.223,-97.439,0,0,13.653,342,-0.703,2.296,9.388,1
334,35.223,-97.439,0,0,13.653,342,-0.689,2.284,9.218,1
335,35.223,-97.439,0,0,13.653,342,-0.681,2.308,9.45,1
336,35.223,-97.439,0,0,13.653,342,-0.692,2.265,9.259,1
337,35.223,-97.439,0,0,13.653,342,-0.7,2.286,9.297,1
338,35.223,-97.439,0,0,13.653,342,-0.7,2.303,9.439,1
339,35.223,-97.439,0,0,13.653,342,-0.7,2.296,9.425,1
340,35.223,-97.439,0,0,13.653,342,-0.69,2.303,9.434,1
341,35.223,-97.439,0,0,13.653,342,-0.706,2.318,9.407,1
342,35.223,-97.439,0,0,13.653,342,-0.692,2.31,9.405,1
343,35.223,-97.439,0,0,13.653,342,-0.697,2.303,9.272,1
344,35.223,-97.439,0,0,13.653,342,-0.703,2.284,9.342,1
345,35.223,-97.439,0,0,13.653,342,-0.699,2.285,9.35,1
346,35.223,-97.439,0,0,13.653,342,-0.698,2.305,9.293,1
347,35.223,-97.439,0,0,13.653,342,-0.697,2.324,9.4,1
348,35.223,-97.439,0,0,13.653,342,-0.716,2.304,9.37,1
349,35.223,-97.439,0,0,13.653,342,-0.696,2.319,9.405,1
350,35.223,-97.439,0,0,13.653,342,-0.696,2.294,9.413,1
351,35.223,-97.439,0,0,13.653,342,-0.698,2.296,9.414,1
352,35.223,-97.439,0,0,13.653,342,-0.688,2.278,9.318,1
353,35.223,-97.439,0,0,13.653,342,-0.697,2.271,9.316,1
354,35.223,-97.439,0,0,13.653,342,-0.69,2.287,9.345,1
355,35.223,-97.439,0,0,13.653,342,-0.709,2.322,9.357,1
356,35.223,-97.439,0,0,13.653,342,-0.704,2.318,9.341,1
357,35.223,-97.439,0,0,13.653,342,-0.701,2.631,9.266,1
358,35.223,-97.439,0,0,13.653,342,-0.643,4.788,8.496,1
359,35.223,-97.439,0,0,13.653,342,-0.37,4.175,8.87,1
360,35.223,-97.439,0,0,13.653,342,-0.357,3.511,8.869,1
362,35.223,-97.439,0,0,13.653,342,-0.699,3.444,9.348,0
362,35.223,-97.439,0,0,13.653,342,-0.699,3.444,9.348,0
363,35.223,-97.439,66.3,6.15,13.653,343,-0.645,3.325,9.361,0
364,35.223,-97.439,64.9,7.63,13.653,344,-0.779,2.855,8.959,0
365,35.223,-97.439,66.1,8.82,13.653,346,-0.744,3.112,9.301,1
366,35.223,-97.439,65.3,9.86,13.653,349,-0.861,2.601,9.21,0
367,35.223,-97.439,65.1,10.6,13.653,349,-1.124,2.24,9.286,1
368,35.223,-97.439,62.7,10.65,13.653,347,-1.063,2.312,9.357,1
369,35.223,-97.439,63,11.14,13.653,345,-1.014,2.43,9.196,1
370,35.223,-97.438,62.6,11.32,13.653,344,-0.966,2.499,9.423,0
371,35.223,-97.438,62.5,11.44,13.653,339,-0.872,2.546,9.371,1
372,35.223,-97.438,62.8,11.85,13.653,340,-0.92,2.344,9.463,1
373,35.223,-97.438,62.4,11.95,13.653,341,-0.904,2.207,9.388,1
374,35.223,-97.438,62.9,12.13,13.653,342,-0.868,2.072,9.284,1
375,35.223,-97.438,62.6,11.95,13.653,343,-0.712,1.869,7.943,0
376,35.223,-97.438,63.2,11.68,13.653,344,-0.863,2.127,9.064,0
377,35.223,-97.438,62.7,11.69,13.653,344,-0.95,2.251,9.082,0
378,35.223,-97.437,62,11.78,13.653,343,-0.875,2.268,9.226,0
379,35.223,-97.437,62.3,11.51,13.653,344,-1.045,2.244,9.098,0
380,35.223,-97.437,62.8,11.47,13.653,344,-1.016,2.326,9.299,1
381,35.224,-97.437,63.4,11.56,13.653,343,-1.193,2.322,9.359,0
382,35.224,-97.437,62.5,12.02,13.653,340,-1.036,2.141,9.264,1
383,35.224,-97.437,62.6,11.64,13.653,340,-0.957,2.198,9.452,1
384,35.224,-97.437,61.9,11.36,13.653,340,-0.925,2.098,9.308,0
385,35.224,-97.437,61.8,11.46,13.653,339,-0.97,2.267,9.344,0
386,35.224,-97.437,61.8,11.16,13.653,339,-1.004,2.25,9.195,1
387,35.224,-97.436,63.2,11.25,13.653,340,-0.804,2.306,9.175,0
388,35.224,-97.436,63.2,11.1,13.653,340,-1.015,2.302,9.509,0
389,35.224,-97.436,62,11.12,13.653,339,-0.877,2.258,9.288,1
391,35.224,-97.436,62.3,11.02,13.653,338,-0.844,2.24,9.219,1
391,35.224,-97.436,62.3,11.02,13.653,338,-0.844,2.24,9.219,1
392,35.224,-97.436,63.1,10.86,13.653,339,-0.813,2.304,9.394,1
393,35.224,-97.436,63.7,10.85,13.653,340,-0.806,2.365,9.673,1
394,35.224,-97.436,64,10.67,13.653,339,-0.977,2.301,9.199,1
395,35.224,-97.436,63.8,10.82,15.17,339,-1.029,2.327,9.298,1
396,35.224,-97.436,62.3,10.84,13.653,339,-0.945,2.306,9.14,1
397,35.224,-97.435,63.9,10.47,13.653,341,-0.927,2.266,9.311,1
398,35.224,-97.435,63,10.89,15.17,340,-0.982,2.379,9.363,1
399,35.224,-97.435,63.3,10.99,15.17,339,-1.016,2.555,9.175,1
400,35.224,-97.435,62.6,11.44,15.17,338,-1.131,2.536,9.892,0
401,35.224,-97.435,62.4,11.61,15.17,338,-1.085,2.429,9.576,0
402,35.224,-97.435,62.5,11.71,15.17,337,-0.851,2.317,9.526,1
403,35.225,-97.435,64,11.31,15.17,337,-1.042,2.129,9.25,1
404,35.225,-97.435,63.7,11.81,15.17,337,-1.003,2.085,9.46,0
405,35.225,-97.435,63.2,11.02,15.17,337,-0.963,2.178,9.284,1
406,35.225,-97.434,62.3,11.01,15.17,337,-1.01,2.255,9.276,1
407,35.225,-97.434,63,10.95,15.17,337,-1.003,2.206,9.232,1
408,35.225,-97.434,62,10.57,15.17,337,-0.988,2.301,9.332,1
409,35.225,-97.434,62.9,10.68,15.17,336,-0.95,2.253,9.509,1
410,35.225,-97.434,62.8,10.67,15.17,336,-0.805,2.217,9.227,1
411,35.225,-97.434,63,10.42,15.17,334,-0.857,2.276,9.365,1
412,35.225,-97.434,62.1,10.14,13.653,334,-1.068,2.264,9.327,0
413,35.225,-97.434,62.2,10.13,13.653,333,-0.773,2.256,9.057,0
414,35.225,-97.434,63.9,10.07,13.653,334,-0.927,2.303,9.032,1
415,35.225,-97.434,62.9,10.32,13.653,334,-1.041,2.341,9.215,1
416,35.225,-97.433,63.4,10.17,13.653,333,-1.22,2.399,9.474,1
417,35.225,-97.433,62.1,10.29,13.653,331,-0.676,2.261,9.27,1
418,35.225,-97.433,61.4,10.52,13.653,330,-0.806,2.389,9.393,0
419,35.225,-97.433,62.1,10.46,13.653,332,-1.434,2.238,9.188,1
420,35.225,-97.433,60.5,10.4,13.653,332,-1.183,2.205,9.438,1
421,35.225,-97.433,59.4,10.57,13.653,332,-0.847,2.101,9.41,0
422,35.225,-97.433,56.8,10.47,13.653,331,0.335,1.807,9.032,0
423,35.225,-97.433,55.7,9.73,13.653,332,1.542,1.695,9.356,0
424,35.225,-97.433,61,8.91,13.653,332,1.523,2.09,9.874,0
425,35.225,-97.433,72.2,8.59,13.653,333,-2.384,2.085,9.5,0
426,35.225,-97.432,73.7,8.5,13.653,334,-2.854,2.145,9.509,0
427,35.225,-97.432,77.2,7.93,13.653,333,-1.24,2.178,9.491,0
428,35.226,-97.432,63.4,7.8,13.653,333,0.76,2.601,9.163,1
429,35.226,-97.432,60.3,7.96,13.653,333,0.932,2.858,9.475,0
430,35.226,-97.432,71.1,8.24,13.653,332,0.25,2.815,9.131,0
431,35.226,-97.432,72.3,8.64,13.653,331,-0.353,2.869,9.324,0
432,35.226,-97.432,84.5,9.28,13.653,330,-0.83,3.176,9.295,0
434,35.226,-97.432,84.1,9.84,15.17,325,-1.013,3.025,9.022,1
434,35.226,-97.432,84.1,9.84,15.17,325,-1.013,3.025,9.022,1
435,35.226,-97.432,86.7,10.66,15.17,326,-0.779,3.193,9.077,1
436,35.226,-97.431,91.3,12.5,15.17,326,-0.833,3.249,8.951,1
437,35.226,-97.431,89,13.14,15.17,327,-1.05,2.55,9.067,1
438,35.226,-97.431,89,13.47,15.17,327,-0.918,2.819,9.409,0
439,35.226,-97.431,88.6,13.93,15.17,326,-0.9,2.735,9.061,1
440,35.226,-97.431,90.1,14.22,15.17,326,-0.755,2.907,9.574,0
441,35.226,-97.431,88.4,14.41,15.17,325,-0.868,2.758,9.174,1
442,35.226,-97.43,87.6,15.24,15.17,325,-0.842,2.218,9.277,1
443,35.226,-97.43,89.8,15.33,15.17,326,-0.849,2.042,9.315,1
444,35.226,-97.43,90.3,15.33,15.17,328,-1.017,2.659,9.358,1
445,35.226,-97.43,88.9,14.79,15.17,329,-0.979,2.658,9.224,1
446,35.226,-97.43,89.7,15.05,15.17,328,-0.927,2.543,9.422,1
447,35.226,-97.43,89.6,15.47,15.17,329,-0.855,2.178,9.153,1
448,35.226,-97.429,89.7,15.38,15.17,334,-0.86,2.288,9.363,0
449,35.226,-97.429,90.9,15.36,15.17,333,-0.986,2.257,9.258,1
450,35.226,-97.429,90.2,15.16,15.17,334,-0.996,2.302,9.258,1
451,35.226,-97.429,89.2,15.05,15.17,334,-0.923,2.318,9.421,1
452,35.226,-97.429,89.4,15.01,15.17,334,-0.806,2.319,9.253,1
453,35.226,-97.429,89.4,14.88,13.653,332,-0.739,2.243,9.018,1
454,35.226,-97.429,89.9,14.88,13.653,331,-0.926,2.199,9.015,1
455,35.226,-97.428,89.9,15.06,13.653,332,-0.911,2.3,9.24,0
456,35.226,-97.428,89.3,14.87,15.17,332,-0.846,2.258,9.072,1
457,35.226,-97.428,89.3,14.92,15.17,331,-0.884,2.325,9.575,1
458,35.226,-97.428,89.5,14.95,16.687,331,-1.039,2.304,9.336,1
459,35.226,-97.428,89.3,14.86,16.687,330,-0.908,2.346,9.536,1
460,35.226,-97.428,89.3,14.98,16.687,331,-0.944,2.652,9.496,1
461,35.226,-97.427,91,15.34,16.687,331,-1.018,2.673,9.407,0
462,35.226,-97.427,89.7,15.71,16.687,331,-0.849,2.448,9.144,1
463,35.226,-97.427,88.9,15.69,15.17,329,-0.876,2.484,9.321,1
464,35.226,-97.427,89.9,15.96,15.17,329,-1.093,2.398,9.238,1
465,35.226,-97.427,89.4,15.87,15.17,327,-1.173,2.155,9.426,1
466,35.226,-97.426,88.7,16.04,15.17,327,-0.97,2.115,9.246,1
467,35.226,-97.426,88.3,16.04,15.17,328,-0.907,2.138,9.627,1
468,35.226,-97.426,87.8,15.8,15.17,328,-0.818,2.198,9.469,1
469,35.226,-97.426,86.7,15.45,13.653,328,-0.758,2.253,9.383,1
470,35.226,-97.426,87.5,15.45,15.17,328,-0.787,2.192,9.176,1
471,35.226,-97.426,87.5,15.54,15.17,328,-0.765,2.187,9.133,1
472,35.226,-97.425,89.3,15.33,15.17,329,-1.095,2.217,9.379,1
473,35.226,-97.425,88.3,14.93,13.653,329,-1.033,2.181,9.088,1
475,35.226,-97.425,87.9,15.05,13.653,332,-0.743,2.095,9.284,1
475,35.226,-97.425,87.9,15.05,13.653,332,-0.743,2.095,9.284,1
476,35.226,-97.425,86.7,14.1,16.687,332,-0.753,1.416,9.552,1
477,35.226,-97.425,88.1,13.48,15.17,332,-1.067,1.278,9.319,1
478,35.226,-97.425,87.9,12.68,15.17,332,-1.912,1.667,9.364,0
479,35.226,-97.424,86.5,12.73,15.17,331,-1.413,2.026,9.553,0
480,35.226,-97.424,79.6,10.99,13.653,332,-0.143,1.585,9.572,1
481,35.226,-97.424,80.8,10.49,15.17,331,0.118,0.338,9.764,0
482,35.226,-97.424,82.2,9.56,15.17,333,-0.036,-0.589,10.066,0
483,35.226,-97.424,93.8,10,16.687,334,-0.379,0.672,9.669,0
484,35.226,-97.424,104.3,8.07,16.687,332,-0.491,1.26,9.655,1
485,35.226,-97.424,102.4,4.57,16.687,329,-0.418,1.783,9.455,1
486,35.226,-97.424,101.6,2.27,16.687,329,-0.489,2.055,9.4,1
487,35.226,-97.424,103.2,0.66,16.687,330,-0.476,2.529,9.364,1
488,35.226,-97.424,91.1,0.28,15.17,330,-0.493,2.526,9.287,1
489,35.226,-97.424,90.5,0.26,15.17,330,-0.485,2.512,9.209,1
490,35.226,-97.424,0,0,15.17,330,-0.484,2.523,9.333,1
491,35.226,-97.424,0,0,15.17,330,-0.472,2.509,9.212,1
492,35.226,-97.424,0,0,15.17,330,-0.486,2.534,9.355,1
493,35.226,-97.424,0,0,15.17,331,-0.471,2.494,9.197,1
494,35.226,-97.424,0,0,15.17,331,-0.486,2.505,9.252,1
495,35.226,-97.424,0,0,15.17,331,-0.489,2.501,9.232,1
496,35.226,-97.424,0,0,15.17,331,-0.481,2.522,9.359,1
497,35.226,-97.424,0,0,15.17,331,-0.483,2.518,9.36,1
498,35.226,-97.424,0,0,15.17,331,-0.492,2.487,9.253,1
499,35.226,-97.424,0,0,15.17,331,-0.478,2.495,9.148,1
500,35.226,-97.424,0,0,15.17,331,-0.491,2.517,9.305,1
501,35.226,-97.424,0,0,15.17,331,-0.477,2.502,9.172,1
502,35.226,-97.424,0,0,15.17,331,-0.493,2.494,9.278,1
503,35.226,-97.424,0,0,15.17,331,-0.471,2.509,9.172,1
504,35.226,-97.424,0,0,15.17,331,-0.476,2.504,9.242,1
505,35.226,-97.424,0,0,15.17,331,-0.496,2.514,9.204,1
506,35.226,-97.424,0,0,15.17,331,-0.481,2.52,9.317,1
507,35.226,-97.424,0,0,15.17,331,-0.467,2.525,9.368,1
508,35.226,-97.424,0,0,15.17,331,-0.503,2.535,9.28,1
509,35.226,-97.424,0,0,15.17,331,-0.488,2.502,9.214,1
510,35.226,-97.424,0,0,15.17,331,-0.483,2.537,9.366,1
511,35.226,-97.424,0,0,15.17,331,-0.472,2.523,9.378,1
512,35.226,-97.424,0,0,15.17,331,-0.484,2.499,9.344,1
513,35.226,-97.424,0,0,15.17,331,-0.464,2.527,9.191,1
514,35.226,-97.424,0,0,15.17,331,-0.479,2.53,9.391,1
515,35.226,-97.424,0,0,15.17,331,-0.474,2.522,9.195,1
516,35.226,-97.424,0,0,15.17,331,-0.487,2.533,9.347,1
517,35.226,-97.424,0,0,15.17,331,-0.492,2.521,9.268,1
518,35.226,-97.424,0,0,15.17,331,-0.48,2.508,9.163,1
519,35.226,-97.424,0,0,15.17,331,-0.48,2.512,9.23,1
520,35.226,-97.424,0,0,15.17,331,-0.475,2.51,9.188,1
521,35.226,-97.424,0,0,15.17,331,-0.486,2.531,9.327,1
522,35.226,-97.424,0,0,15.17,331,-0.476,2.528,9.388,1
523,35.226,-97.424,0,0,15.17,331,-0.483,2.515,9.328,1
524,35.226,-97.424,0,0,15.17,331,-0.492,2.504,9.156,1
525,35.226,-97.424,0,0,15.17,331,-0.468,2.511,9.166,1
526,35.226,-97.424,0,0,15.17,331,-0.499,2.511,9.321,1
527,35.226,-97.424,0,0,15.17,331,-0.472,2.5,9.137,1
528,35.226,-97.424,0,0,15.17,331,-0.479,2.505,9.339,1
529,35.226,-97.424,0,0,15.17,331,-0.484,2.507,9.33,1
530,35.226,-97.424,0,0,15.17,331,-0.488,2.518,9.317,1
531,35.226,-97.424,0,0,15.17,331,-0.479,2.506,9.154,1
532,35.226,-97.424,0,0,15.17,331,-0.483,2.523,9.371,1
533,35.226,-97.424,0,0,15.17,331,-0.491,2.529,9.238,1
534,35.226,-97.424,0,0,15.17,331,-0.477,2.526,9.354,1
535,35.226,-97.424,0,0,15.17,331,-0.485,2.524,9.374,1
536,35.226,-97.424,0,0,15.17,331,-0.485,2.501,9.156,1
537,35.226,-97.424,0,0,15.17,331,-0.49,2.54,9.331,1
538,35.226,-97.424,0,0,15.17,331,-0.483,2.483,9.208,1
539,35.226,-97.424,0,0,15.17,331,-0.487,2.514,9.181,1
540,35.226,-97.424,0,0,15.17,331,-0.484,2.515,9.259,1
541,35.226,-97.424,0,0,15.17,331,-0.473,2.531,9.202,1
542,35.226,-97.424,0,0,15.17,331,-0.488,2.484,9.197,1
543,35.226,-97.424,0,0,15.17,331,-0.497,2.515,9.276,1
544,35.226,-97.424,0,0,15.17,331,-0.474,2.524,9.307,1
545,35.226,-97.424,0,0,15.17,331,-0.475,2.52,9.383,1
546,35.226,-97.424,0,0,15.17,331,-0.487,2.502,9.245,1
547,35.226,-97.424,0,0,15.17,331,-0.48,2.53,9.355,1
548,35.226,-97.424,0,0,15.17,331,-0.488,2.524,9.27,1
549,35.226,-97.424,0,0,15.17,331,-0.479,2.539,9.379,1
550,35.226,-97.424,0,0,15.17,331,-0.481,2.495,9.279,1
551,35.226,-97.424,0,0,15.17,331,-0.481,2.509,9.195,1
552,35.226,-97.424,0,0,15.17,331,-0.489,2.528,9.33,1
553,35.226,-97.424,0,0,15.17,331,-0.478,2.516,9.341,1
554,35.226,-97.424,0,0,15.17,331,-0.471,2.521,9.16,1
555,35.226,-97.424,0,0,15.17,331,-0.479,2.525,9.342,1
556,35.226,-97.424,0,0,15.17,331,-0.484,2.51,9.318,1
557,35.226,-97.424,0,0,15.17,331,-0.493,2.507,9.235,1
558,35.226,-97.424,0,0,15.17,331,-0.482,2.495,9.2,1
559,35.226,-97.424,0,0,15.17,331,-0.49,2.517,9.306,1
560,35.226,-97.424,0,0,15.17,331,-0.492,2.528,9.33,1
561,35.226,-97.424,0,0,15.17,331,-0.48,2.493,9.23,1
562,35.226,-97.424,0,0,15.17,331,-0.485,2.537,9.323,1
563,35.226,-97.424,0,0,15.17,331,-0.468,2.528,9.351,1
564,35.226,-97.424,0,0,15.17,331,-0.475,2.492,9.179,1
565,35.226,-97.424,0,0,15.17,331,-0.501,2.5,9.31,1
566,35.226,-97.424,0,0,15.17,331,-0.485,2.509,9.153,1
567,35.226,-97.424,0,0,15.17,331,-0.47,2.527,9.169,1
568,35.226,-97.424,0,0,15.17,331,-0.476,2.547,9.37,1
569,35.226,-97.424,0,0,15.17,331,-0.479,2.524,9.355,1
570,35.226,-97.424,0,0,15.17,331,-0.478,2.676,9.26,1
571,35.226,-97.424,0,0,15.17,331,-0.445,3.59,8.933,1
572,35.226,-97.424,0,0,15.17,331,-0.479,4.19,8.764,1
573,35.226,-97.424,0,0,15.17,331,-0.543,3.682,9,1
575,35.226,-97.424,0,0,15.17,331,-0.419,3.516,8.934,1
575,35.226,-97.424,0,0,15.17,331,-0.419,3.516,8.934,1
575,35.226,-97.424,0,0,15.17,331,-0.419,3.516,8.934,1
577,35.226,-97.424,86.4,4.24,13.653,332,-0.593,3.273,8.733,0
578,35.226,-97.424,85.6,5.1,13.653,333,-1.306,2.822,9.44,0
579,35.226,-97.424,88.7,6.02,13.653,331,-2.788,2.176,9.617,0
580,35.226,-97.424,77,6.15,13.653,333,-2.516,1.826,9.268,0
581,35.226,-97.424,63.5,6.08,13.653,334,-2.317,2.549,9.14,0
582,35.226,-97.424,58.9,5.89,15.17,333,-2.738,3.248,9.182,0
583,35.226,-97.424,33.8,5.76,13.653,333,-2.779,3.368,8.895,0
584,35.226,-97.423,29.5,5.98,15.17,333,-1.132,3.891,8.75,1
585,35.226,-97.423,19.8,6.17,15.17,333,-1.077,3.967,8.767,0
586,35.226,-97.423,10,6.93,16.687,333,-0.996,3.458,8.785,1
587,35.226,-97.423,5.8,8.32,16.687,332,-0.498,3.409,8.995,1
588,35.226,-97.423,5.1,8.84,18.204,331,-0.924,3.414,8.985,1
589,35.226,-97.423,2.4,10.74,18.204,330,-0.95,3.384,8.901,1
590,35.226,-97.423,1.1,11.2,19.721,329,-0.991,3.369,8.948,1
591,35.227,-97.423,1,12.75,19.721,330,-0.95,3.145,8.994,1
592,35.227,-97.423,3.9,14.03,19.721,329,-0.912,2.33,9.218,1
593,35.227,-97.423,1.1,15.42,18.204,329,-0.718,2.102,9.363,1
594,35.227,-97.423,359.2,16.28,18.204,328,-1.093,2.105,9.39,1
595,35.227,-97.423,0.6,17.04,18.204,328,-0.93,2.132,9.49,0
596,35.227,-97.423,1,17.55,18.204,327,-0.963,2.023,9.519,1
597,35.228,-97.423,2.7,17.93,19.721,327,-0.95,2.082,9.393,1
598,35.228,-97.423,1.5,18.47,19.721,328,-0.952,2.783,9.181,1
599,35.228,-97.423,359.4,17.89,19.721,329,-1.102,2.878,9.142,1
600,35.228,-97.423,358.7,17.54,18.204,330,-0.854,2.799,9.153,1
602,35.228,-97.423,358.4,17.15,19.721,331,-0.985,2.789,9.234,1
602,35.228,-97.423,358.4,17.15,19.721,331,-0.985,2.789,9.234,1
603,35.229,-97.423,358.1,18.57,19.721,330,-0.581,2.138,9.123,1
604,35.229,-97.423,358.4,18.73,19.721,331,-0.996,2.157,9.429,1
605,35.229,-97.423,0.6,19.11,18.204,332,-0.775,2.028,9.429,1
606,35.229,-97.423,359.5,18.34,18.204,333,-0.711,1.965,9.369,1
607,35.229,-97.423,0.6,17.7,18.204,334,-0.746,2.74,9.11,1
608,35.229,-97.423,1,17.76,16.687,335,-0.93,2.714,9.065,1
609,35.23,-97.423,0,18.21,16.687,337,-0.799,2.525,9.437,1
610,35.23,-97.423,0.6,18.15,16.687,339,-0.704,2.187,9.506,1
611,35.23,-97.423,359.9,18.38,16.687,341,-0.924,2.103,9.083,1
612,35.23,-97.423,1.8,18.72,16.687,341,-0.937,2.129,9.435,0
613,35.23,-97.423,1,18.58,16.687,340,-0.723,2.316,9.175,1
614,35.23,-97.423,0.9,18.54,16.687,340,-0.87,2.374,9.247,1
615,35.231,-97.423,2.1,18.33,16.687,341,-0.845,2.219,9.312,1
616,35.231,-97.423,1.6,18.25,16.687,339,-1.262,2.225,9.253,1
617,35.231,-97.423,0.7,18.06,15.17,338,-0.652,2.29,9.069,1
618,35.231,-97.423,359.7,18.22,15.17,339,-0.904,2.172,9.952,0
619,35.231,-97.423,1.3,17.99,15.17,336,-0.53,1.288,9.397,0
620,35.231,-97.423,0.7,17.88,15.17,334,-0.597,0.957,8.985,0
621,35.232,-97.423,0.9,16.7,15.17,333,-0.947,1.741,10.229,0
622,35.232,-97.423,1.6,15.57,15.17,333,-0.674,1.291,9.506,0
623,35.232,-97.423,0.7,14.91,15.17,334,-1.086,0.655,9.746,0
624,35.232,-97.423,0.8,14.57,15.17,334,-0.936,0.449,9.896,0
625,35.232,-97.423,0,13.73,16.687,334,-0.864,0.056,10.141,0
626,35.232,-97.423,359.9,12.13,16.687,335,-0.831,-0.257,10.184,0
627,35.232,-97.423,0.9,10.13,16.687,336,-0.842,1.509,9.275,0
628,35.232,-97.423,5.1,7.66,18.204,335,-0.851,1.593,9.588,1
629,35.232,-97.423,6.1,5.66,18.204,335,-0.869,2.183,9.305,1
630,35.232,-97.423,6.1,4.72,18.204,336,-0.797,2.347,9.098,1
631,35.232,-97.423,7.9,3.13,18.204,337,-0.855,3.94,8.974,1
632,35.232,-97.423,12.2,2.46,18.204,336,-0.79,4.255,8.666,1
633,35.232,-97.423,359.8,2.58,16.687,335,-0.89,4.18,8.647,0
634,35.232,-97.423,357.4,4.01,16.687,334,-0.74,3.833,8.762,0
635,35.233,-97.423,356.1,5.42,16.687,335,-0.753,2.672,8.561,0
636,35.233,-97.423,357.3,6.55,16.687,334,-0.72,2.954,9.072,0
637,35.233,-97.423,355,7.34,16.687,334,-0.813,3.163,8.984,0
638,35.233,-97.423,356.6,7.84,16.687,335,-1.035,3.187,9.277,0
640,35.233,-97.423,357.4,7.94,15.17,336,-0.563,2.987,8.853,1
