time,lat,lng,bearing,spd,acc,alt,accx,accy,accz,stable,
0,35.21,-97.482,331.1,30.81,3,318,-0.46,10.431,2.515,0
1,35.21,-97.483,331.2,31.21,3,318,-0.381,10.564,2.257,0
2,35.211,-97.483,331.7,31.47,3,319,-0.857,10.346,2.47,0
3,35.211,-97.483,332.1,31.37,3,319,-0.804,10.344,2.323,0
4,35.211,-97.483,332,31.36,3,320,-0.651,10.414,2.214,0
6,35.212,-97.483,332.1,31.331,3,320,-0.624,10.63,1.959,0
6,35.212,-97.483,332.1,31.331,3,320,-0.624,10.63,1.959,0
7,35.212,-97.483,331.3,31.441,3,320,-0.55,10.449,1.882,0
8,35.212,-97.484,330.4,31.67,3,320,-0.547,10.359,2.281,0
9,35.212,-97.484,330.3,31.82,3,320,-0.603,10.381,2.564,0
10,35.213,-97.484,331,31.88,3,320,-0.966,10.365,2.729,0
11,35.213,-97.484,332.2,31.64,3,321,-1.161,10.341,2.419,0
12,35.213,-97.484,332.9,31.25,3,321,-1.239,10.509,2.316,0
13,35.213,-97.484,333.4,30.78,3,321,-1.21,10.314,2.269,0
14,35.214,-97.484,334.1,30.3,3,321,-1.112,9.96,3.882,0
15,35.214,-97.485,337.4,29.96,3,322,-0.855,10.009,3.355,0
16,35.214,-97.485,339.9,29.9,3,322,-0.811,10.327,3.234,0
17,35.214,-97.485,341.4,29.96,3,321,-0.593,10.207,3.107,0
18,35.215,-97.485,343,30.13,3,321,-0.567,10.239,2.91,0
19,35.215,-97.485,344.7,30.321,3,323,-0.637,10.403,2.908,0
20,35.215,-97.485,346.1,30.511,3,323,-0.642,10.156,2.962,0
21,35.215,-97.485,347.8,30.68,3,324,-0.762,10.408,2.949,0
22,35.216,-97.485,349.4,30.8,3,323,-0.728,10.235,2.843,0
23,35.216,-97.485,350.5,30.86,3,323,-0.734,10.196,2.898,0
24,35.216,-97.485,352,30.94,3,323,-0.778,10.346,3.077,0
25,35.216,-97.485,353.3,31.06,3,323,-0.745,10.285,2.794,0
26,35.217,-97.485,354.4,31.05,3,323,-0.838,10.411,2.998,0
27,35.217,-97.485,356,30.94,3,322,-0.787,10.094,3.065,0
28,35.217,-97.485,357.8,30.91,3,322,-0.779,10.22,2.975,0
29,35.218,-97.485,359.6,30.811,3,323,-0.672,10.361,2.402,0
30,35.218,-97.485,0.2,30.84,3,322,-0.667,10.443,2.267,0
31,35.218,-97.485,0,30.88,3,323,-0.706,10.204,2.443,0
32,35.218,-97.485,359.9,30.88,5,323,-0.684,10.329,2.884,0
33,35.219,-97.485,359.9,30.88,7,323,-0.672,10.491,2.609,0
34,35.219,-97.485,359.9,30.88,7,323,-0.73,10.255,2.46,0
35,35.219,-97.485,1.4,31.462,12,323,-0.81,10.288,2.523,0
36,35.219,-97.485,0.1,30.931,9,323,-0.819,10.423,2.873,0
37,35.22,-97.485,359.8,30.94,9,322,-0.767,10.318,2.686,0
38,35.22,-97.485,0,30.95,9,323,-0.693,10.516,2.674,0
39,35.22,-97.485,359.9,30.97,8,320,-0.777,10.34,2.492,0
40,35.221,-97.485,359.6,30.95,8,321,-0.766,10.358,2.865,0
41,35.221,-97.485,359.6,30.94,7,321,-0.768,10.244,2.985,0
42,35.221,-97.485,359.6,31.02,7,321,-0.679,10.231,2.722,0
43,35.221,-97.485,359.9,31.11,7,322,-0.704,10.27,2.748,0
44,35.222,-97.485,0.1,31.05,7,322,-0.686,10.226,2.621,0
45,35.222,-97.485,0.3,30.991,6,323,-0.734,10.241,2.547,0
46,35.222,-97.485,0.3,30.98,6,323,-0.669,10.28,2.64,0
47,35.223,-97.485,0.1,31.091,6,323,-0.732,10.343,2.645,0
48,35.223,-97.485,359.9,31.09,5,323,-0.734,10.412,2.633,0
49,35.223,-97.485,359.6,31.04,6,323,-0.741,10.245,2.652,0
50,35.223,-97.485,359.8,31.03,5,324,-0.744,10.15,2.501,0
51,35.224,-97.485,359.6,31.17,5,323,-0.731,10.149,2.753,0
52,35.224,-97.485,359.8,31.23,5,323,-0.802,10.378,2.798,0
53,35.224,-97.485,0.2,31.161,5,325,-0.83,10.289,2.778,0
54,35.225,-97.485,0.2,31.15,5,324,-0.665,10.376,2.66,0
55,35.225,-97.485,0,31.071,5,326,-0.757,10.289,2.513,0
56,35.225,-97.485,359.6,31.17,4,327,-0.686,10.269,2.787,0
57,35.226,-97.485,359.5,30.5,4,327,-0.709,10.156,2.849,0
58,35.226,-97.485,0,31.13,4,327,-0.761,10.222,2.833,0
59,35.226,-97.485,0.1,31.21,4,327,-0.74,10.206,2.714,0
60,35.226,-97.485,0,31.29,4,326,-0.751,10.358,2.616,0
61,35.227,-97.485,359.7,31.35,4,324,-0.758,10.323,2.812,0
62,35.227,-97.485,359.8,31.3,4,325,-0.752,10.209,2.903,0
63,35.227,-97.485,0,31.3,5,326,-0.795,10.28,2.85,0
64,35.228,-97.485,0.3,31.24,5,326,-0.827,10.314,2.659,0
65,35.228,-97.485,0,31.27,5,327,-0.784,10.436,2.646,0
66,35.228,-97.485,359.8,31.23,5,325,-0.693,10.152,3.02,0
67,35.228,-97.485,359.7,31.29,5,325,-0.764,10.207,2.876,0
69,35.229,-97.485,359.9,31.3,5,325,-0.773,10.241,2.861,0
69,35.229,-97.485,359.9,31.3,5,325,-0.773,10.241,2.861,0
70,35.229,-97.485,0,31.291,5,326,-0.754,10.122,3.144,0
71,35.229,-97.485,0,31.301,5,326,-0.789,10.349,2.842,0
72,35.23,-97.485,0.1,31.26,5,327,-0.759,10.243,2.683,0
73,35.23,-97.485,0,31.511,5,327,-0.775,10.184,2.698,0
74,35.23,-97.485,0,31.331,5,327,-0.773,10.235,2.6,0
75,35.23,-97.485,0,31.22,5,326,-0.752,10.213,2.696,0
76,35.231,-97.485,359.9,31.21,5,327,-0.773,10.316,2.711,0
77,35.231,-97.485,0,31.15,5,327,-0.704,10.406,2.714,0
78,35.231,-97.485,359.8,31.32,5,328,-0.79,10.353,2.756,0
79,35.232,-97.485,359.7,31.35,5,327,-0.785,10.237,2.862,0
80,35.232,-97.485,359.8,31.35,5,327,-0.847,10.195,2.986,0
81,35.232,-97.485,0,31.41,5,325,-0.773,10.358,2.773,0
82,35.232,-97.485,0,31.451,5,326,-0.811,10.209,2.701,0
83,35.233,-97.485,359.8,31.32,4,326,-0.736,10.427,2.575,0
84,35.233,-97.485,0.1,31.43,5,325,-0.746,10.264,2.775,0
85,35.233,-97.485,0.7,30.99,5,324,-0.759,10.281,2.792,0
86,35.233,-97.485,0.2,31.15,10,324,-0.711,10.379,2.679,0
87,35.234,-97.485,359.9,31.26,10,324,-0.724,10.294,2.515,0
88,35.234,-97.485,359.9,31.32,10,325,-0.748,10.281,2.596,0
89,35.234,-97.485,359.9,31.34,10,325,-0.72,9.985,2.742,0
90,35.235,-97.485,0,31.33,10,326,-0.792,10.383,2.843,0
91,35.235,-97.485,359.8,31.381,10,325,-0.761,10.204,3.058,0
92,35.235,-97.485,0,31.37,10,323,-0.727,10.365,2.777,0
93,35.235,-97.485,0.1,31.24,10,324,-0.724,10.268,2.835,0
94,35.236,-97.485,359.5,31.5,11,321,-0.726,10.167,2.831,0
95,35.236,-97.485,0.1,31.36,10,322,-0.79,10.214,2.791,0
96,35.236,-97.485,0.2,31.43,10,322,-0.757,10.223,2.525,0
97,35.237,-97.485,0.1,31.45,10,322,-0.788,10.538,2.562,0
98,35.237,-97.485,359.9,31.51,10,322,-0.835,10.269,2.616,0
99,35.237,-97.485,359.6,31.4,10,321,-0.859,10.296,2.644,0
100,35.237,-97.485,359.8,31.4,10,322,-0.798,10.12,2.853,0
101,35.238,-97.485,359.8,31.31,10,322,-0.818,10.341,2.684,0
102,35.238,-97.485,0.1,31.11,10,321,-0.872,10.272,3.019,0
103,35.238,-97.485,0,31.21,10,321,-0.773,10.417,2.848,0
104,35.239,-97.485,0,31.25,10,321,-0.837,10.45,2.549,0
105,35.239,-97.485,359.5,31.34,10,319,-0.833,10.329,2.779,0
106,35.239,-97.485,359.5,31.371,10,320,-0.767,10.17,2.904,0
107,35.239,-97.485,0.4,31.262,10,321,-0.816,10.269,2.494,0
108,35.24,-97.485,0.3,31.33,10,321,-0.782,10.05,3.054,0
109,35.24,-97.485,359.9,31.34,10,321,-0.818,10.283,2.68,0
110,35.24,-97.485,359.8,31.3,10,320,-0.828,10.242,2.907,0
111,35.241,-97.485,359.7,31.2,10,320,-0.832,10.288,2.958,0
112,35.241,-97.485,0,31.27,10,321,-0.82,10.295,2.61,0
113,35.241,-97.485,0.3,31.2,10,321,-0.767,10.313,2.717,0
114,35.241,-97.485,0.2,31.241,10,321,-0.823,10.386,2.664,0
115,35.242,-97.485,0.3,31.201,10,321,-0.859,10.239,2.904,0
116,35.242,-97.485,0.2,31.16,10,321,-0.857,10.299,3.118,0
117,35.242,-97.485,0.3,31.282,10,323,-0.753,10.386,2.799,0
118,35.243,-97.485,0.6,31.171,11,323,-0.851,10.168,3.023,0
119,35.243,-97.485,0.3,31.13,11,323,-0.815,10.637,2.629,0
120,35.243,-97.485,0.7,30.92,11,323,-0.82,10.241,2.671,0
121,35.244,-97.485,0.4,31.07,11,322,-0.865,10.434,2.845,0
122,35.244,-97.485,0.1,31.27,11,321,-0.837,10.3,2.721,0
123,35.244,-97.485,0,31.241,12,321,-0.8,10.271,2.72,0
124,35.244,-97.485,0.4,30.98,12,323,-0.777,10.234,2.706,0
125,35.245,-97.485,0.4,31.061,11,322,-0.772,10.396,2.637,0
126,35.245,-97.485,359.8,31.19,11,322,-0.858,10.232,2.507,0
127,35.245,-97.485,359.8,31.06,11,322,-0.836,10.285,2.717,0
128,35.246,-97.485,359.9,31.08,11,323,-0.755,10.156,2.846,0
129,35.246,-97.485,359.9,31.24,11,322,-0.778,10.275,2.677,0
130,35.246,-97.485,0,31.15,12,322,-0.829,10.394,2.685,0
131,35.246,-97.485,359.9,31.12,12,323,-0.816,10.376,2.767,0
132,35.247,-97.485,0,31.051,12,324,-0.843,10.359,2.736,0
134,35.247,-97.485,0.1,31.08,11,324,-0.796,10.21,2.819,0
134,35.247,-97.485,0.1,31.08,11,324,-0.796,10.21,2.819,0
135,35.247,-97.485,0.1,31.22,11,324,-0.791,10.383,2.571,0
136,35.248,-97.485,0,31.07,11,325,-0.767,10.431,2.565,0
137,35.248,-97.485,0.5,31.421,11,325,-0.738,10.341,2.756,0
138,35.248,-97.485,1,31.31,11,324,-0.768,10.247,2.444,0
139,35.248,-97.485,359.7,31.2,11,325,-0.754,10.417,2.572,0
140,35.249,-97.485,359.8,31.03,10,326,-0.69,10.331,2.691,0
141,35.249,-97.485,359.9,31.1,10,326,-0.72,10.435,2.696,0
142,35.249,-97.485,0,31.111,10,323,-0.742,10.382,2.547,0
143,35.25,-97.485,359.6,31.11,10,324,-0.722,10.273,2.706,0
144,35.25,-97.485,359.7,31.111,10,324,-0.788,10.232,2.577,0
145,35.25,-97.485,359.7,31.05,10,324,-0.795,10.245,2.704,0
146,35.25,-97.485,359.7,31.07,10,324,-0.848,10.394,2.808,0
147,35.251,-97.485,359.7,30.99,11,325,-0.761,10.322,2.753,0
148,35.251,-97.485,0.2,30.79,11,326,-0.726,10.379,2.535,0
149,35.251,-97.485,359.9,30.88,10,326,-0.759,10.32,2.565,0
150,35.251,-97.485,359.7,30.92,10,327,-0.711,10.271,2.681,0
151,35.252,-97.485,359.6,31.111,10,326,-0.76,10.239,2.872,0
152,35.252,-97.485,0.1,31.03,10,327,-0.753,10.337,2.612,0
153,35.252,-97.485,0.1,31.05,10,326,-0.721,10.432,2.716,0
154,35.253,-97.485,0,30.92,10,325,-0.686,10.43,2.619,0
155,35.253,-97.485,359.7,31.03,10,324,-0.731,10.454,2.637,0
156,35.253,-97.485,0,30.96,10,323,-0.746,10.273,2.516,0
157,35.253,-97.485,359.9,31,11,324,-0.759,10.291,2.633,0
158,35.254,-97.485,359.8,31.04,11,324,-0.763,10.404,2.692,0
159,35.254,-97.485,359.8,31.06,11,325,-0.727,10.454,2.853,0
160,35.254,-97.485,0,31.031,11,324,-0.732,10.179,2.956,0
161,35.255,-97.485,0.1,30.961,11,325,-0.743,10.285,2.908,0
162,35.255,-97.485,0.3,30.841,11,325,-0.718,10.255,2.672,0
163,35.255,-97.485,359.8,31,11,326,-0.705,10.267,2.792,0
164,35.255,-97.485,0.1,30.91,11,327,-0.771,10.443,2.725,0
165,35.256,-97.485,0.1,30.93,11,326,-0.741,10.315,2.79,0
166,35.256,-97.485,359.9,31.17,11,325,-0.695,10.305,2.733,0
167,35.256,-97.485,0,31.1,11,326,-0.738,10.301,2.774,0
168,35.257,-97.485,359.7,31.31,11,325,-0.783,10.41,2.743,0
169,35.257,-97.485,359.8,31.25,11,325,-0.839,10.287,2.71,0
170,35.257,-97.485,359.6,31.371,11,324,-0.8,10.243,2.832,0
171,35.257,-97.485,359.5,31.37,11,324,-0.754,10.362,3.059,0
172,35.258,-97.485,359.6,31.31,11,325,-0.787,10.317,2.93,0
173,35.258,-97.485,1.2,30.74,11,326,-0.873,10.257,2.678,0
174,35.258,-97.485,0.5,30.98,11,326,-0.807,10.367,2.6,0
175,35.259,-97.485,0.8,30.97,12,326,-0.821,10.381,2.525,0
176,35.259,-97.485,0.5,31.101,12,326,-0.839,10.339,2.68,0
177,35.259,-97.485,0.6,31.031,12,326,-0.876,10.286,2.719,0
178,35.259,-97.485,0.8,30.88,11,327,-0.884,10.362,2.57,0
179,35.26,-97.485,359.6,31.311,11,326,-0.84,10.337,2.628,0
180,35.26,-97.485,359.4,31.35,10,327,-0.815,10.498,2.708,0
181,35.26,-97.485,359.8,31.19,10,326,-0.753,10.327,2.698,0
182,35.261,-97.485,359.9,30.93,11,325,-0.827,10.388,2.772,0
183,35.261,-97.485,0.1,31.15,11,325,-0.754,10.395,2.805,0
184,35.261,-97.485,358.8,31.66,10,324,-0.848,10.391,2.734,0
185,35.262,-97.485,359.3,31.501,11,325,-0.822,10.255,2.832,0
186,35.262,-97.485,0.4,30.89,11,326,-0.776,10.145,2.9,0
187,35.262,-97.485,359.4,31.571,11,326,-0.83,10.287,3.055,0
188,35.262,-97.485,0.1,31.25,11,325,-0.776,10.167,2.74,0
189,35.263,-97.485,0.8,30.9,10,332,-0.735,10.352,2.765,0
190,35.263,-97.485,0.3,31.01,11,330,-0.791,10.284,2.775,0
191,35.263,-97.485,0,31.13,11,328,-0.818,10.204,3.086,0
192,35.264,-97.485,0,31.28,12,327,-0.85,10.31,2.459,0
193,35.264,-97.485,0.3,31.18,11,326,-0.787,10.294,2.572,0
194,35.264,-97.485,359.6,31.351,11,325,-0.755,10.383,2.901,0
195,35.264,-97.485,359.8,31.23,10,324,-0.812,10.314,2.611,0
196,35.265,-97.485,0.6,30.951,11,324,-0.789,10.38,2.654,0
198,35.265,-97.485,0.1,31.09,10,324,-0.789,10.372,2.852,0
198,35.265,-97.485,0.1,31.09,10,324,-0.789,10.372,2.852,0
199,35.265,-97.485,0.3,31.08,11,324,-0.737,10.375,2.984,0
200,35.266,-97.485,0.7,30.92,11,323,-0.761,10.355,2.76,0
201,35.266,-97.485,359.8,31.3,11,323,-0.826,10.174,2.699,0
202,35.266,-97.485,0.2,31.141,11,329,-0.778,10.412,2.619,0
203,35.266,-97.485,358.9,31.641,11,327,-0.771,10.257,2.612,0
204,35.267,-97.485,358.8,31.712,11,327,-0.797,10.308,2.594,0
205,35.267,-97.486,358.9,31.681,11,326,-0.809,10.309,2.767,0
206,35.267,-97.485,359.5,31.43,10,324,-0.864,10.315,2.491,0
207,35.268,-97.486,359.1,31.47,10,326,-0.802,10.287,2.746,0
208,35.268,-97.485,359.7,31.23,10,326,-0.817,10.36,2.578,0
209,35.268,-97.485,359.9,31.15,11,327,-0.796,10.248,2.78,0
210,35.268,-97.486,359.7,31.2,10,325,-0.824,10.315,2.949,0
211,35.269,-97.485,0,31.101,11,326,-0.864,10.257,2.768,0
212,35.269,-97.486,359.3,31.381,11,332,-0.808,10.266,2.668,0
213,35.269,-97.485,359.7,31.23,11,329,-0.827,10.223,2.995,0
214,35.27,-97.486,358.5,31.812,12,329,-0.809,10.344,2.843,0
215,35.27,-97.485,0.4,31.161,12,327,-0.779,10.258,2.736,0
216,35.27,-97.486,359.3,31.53,11,325,-0.805,10.441,2.701,0
217,35.27,-97.485,0.6,31.02,11,323,-0.854,10.341,2.597,0
218,35.271,-97.485,1,30.89,11,322,-0.848,10.312,2.565,0
219,35.271,-97.485,0.2,31.29,10,323,-0.881,10.388,2.744,0
220,35.271,-97.485,0.6,31.19,11,324,-0.891,10.425,2.857,0
221,35.271,-97.485,1,31.091,11,325,-0.903,10.332,2.813,0
222,35.272,-97.485,1.6,30.88,11,324,-0.929,10.345,2.938,0
223,35.272,-97.485,1,31.091,11,324,-0.976,10.402,2.805,0
224,35.272,-97.485,0.6,31.151,11,324,-0.92,10.343,2.663,0
225,35.273,-97.485,1.5,30.77,11,322,-0.89,10.35,2.807,0
226,35.273,-97.485,359,31.61,11,320,-0.86,10.305,2.763,0
227,35.273,-97.485,359.7,31.28,11,321,-0.904,10.458,2.565,0
228,35.273,-97.485,359.4,31.45,11,321,-0.856,10.284,2.903,0
229,35.274,-97.485,359.2,31.57,12,323,-0.88,10.257,2.887,0
230,35.274,-97.485,0,31.36,12,321,-0.871,10.257,2.57,0
231,35.274,-97.485,359.7,31.53,12,322,-0.886,10.399,2.728,0
232,35.275,-97.486,359.3,31.69,11,322,-0.901,10.292,2.856,0
233,35.275,-97.486,359.3,31.61,10,323,-0.98,10.421,2.777,0
234,35.275,-97.486,359.5,31.51,11,327,-0.938,10.41,2.863,0
235,35.275,-97.486,359.8,31.43,11,325,-0.968,10.471,2.76,0
236,35.276,-97.485,1.2,30.85,10,325,-0.961,10.561,2.881,0
237,35.276,-97.485,0.4,31.05,11,325,-0.914,10.523,2.667,0
238,35.276,-97.485,0.3,30.971,11,325,-0.866,10.52,2.709,0
239,35.277,-97.485,0.1,31.071,10,325,-0.879,10.281,3.21,0
240,35.277,-97.486,0.7,31.01,10,325,-0.753,10.221,3.209,0
241,35.277,-97.485,3,30.643,10,326,-0.795,10.08,3.977,0
242,35.277,-97.485,5.7,30.541,10,326,-0.828,9.619,4.264,0
243,35.278,-97.485,10.4,30.303,10,325,-0.789,9.9,4.229,0
244,35.278,-97.485,14.6,30.181,9,325,-0.738,10.04,3.114,0
245,35.278,-97.485,17.3,30.121,9,326,-0.734,10.273,2.772,0
246,35.279,-97.485,19.2,30.19,9,326,-0.638,10.476,2.564,0
247,35.279,-97.485,18.8,30.41,9,327,-0.538,10.58,2.263,0
248,35.279,-97.485,18.5,30.48,9,326,-0.532,10.502,2.422,0
249,35.279,-97.485,18.3,30.63,9,324,-0.535,10.373,2.421,0
250,35.28,-97.485,18.5,31.33,9,324,-0.645,10.399,2.743,0
251,35.28,-97.484,18.7,31.67,10,324,-0.66,10.87,1.528,0
252,35.28,-97.484,14,30.86,9,325,-0.637,10.901,1.38,0
253,35.281,-97.484,10.9,30.96,9,325,-0.644,10.79,1.711,0
254,35.281,-97.484,9.4,30.632,9,326,-0.68,10.765,1.476,0
255,35.281,-97.484,5.4,30.98,4,325,-0.741,10.681,1.616,0
256,35.281,-97.484,5.9,31.36,5,325,-0.673,10.82,1.499,0
257,35.282,-97.484,0.5,31.011,4,326,-0.598,10.844,1.166,0
258,35.282,-97.484,358.6,31.222,5,327,-0.656,10.74,1.688,0
259,35.282,-97.484,353.8,31.11,4,326,-0.616,10.782,1.632,0
260,35.283,-97.484,351.7,31.1,4,327,-0.67,10.767,1.504,0
261,35.283,-97.484,349.1,31.04,3,328,-0.698,10.821,1.467,0
263,35.283,-97.484,346,31.042,3,328,-0.675,10.844,1.645,0
263,35.283,-97.484,346,31.042,3,328,-0.675,10.844,1.645,0
264,35.283,-97.485,344.1,30.952,3,328,-0.644,10.535,2.067,0
265,35.284,-97.485,342.7,31.151,3,329,-0.609,10.244,2.811,0
266,35.284,-97.485,343,31.12,3,329,-0.692,10.266,2.843,0
267,35.284,-97.485,343.5,31.13,3,329,-0.69,10.341,2.669,0
268,35.284,-97.485,343.5,31.12,3,329,-0.695,10.232,2.501,0
269,35.285,-97.485,343.4,31.13,3,328,-0.756,10.352,2.465,0
270,35.285,-97.485,343.1,31.19,3,328,-0.746,10.39,2.78,0
271,35.285,-97.485,343.1,31.28,3,329,-0.729,10.251,2.571,0
272,35.285,-97.485,343.7,31.29,3,328,-0.768,10.469,2.559,0
273,35.286,-97.485,343.3,31.31,3,327,-0.798,10.35,2.487,0
274,35.286,-97.486,343.2,31.231,3,327,-0.809,10.412,2.58,0
275,35.286,-97.486,343,31.25,3,328,-0.774,10.424,2.744,0
276,35.287,-97.486,343.1,31.171,3,328,-0.824,10.376,2.454,0
277,35.287,-97.486,343.1,31.08,3,328,-0.79,10.489,2.617,0
278,35.287,-97.486,342.9,31.08,3,328,-0.731,10.366,2.763,0
279,35.287,-97.486,343.2,30.99,3,328,-0.702,10.338,2.434,0
280,35.288,-97.486,343.4,31,3,328,-0.713,10.368,2.502,0
281,35.288,-97.486,343.6,30.961,3,328,-0.711,10.392,2.624,0
282,35.288,-97.486,343.5,30.99,3,327,-0.745,10.435,2.437,0
283,35.288,-97.486,343.5,31.001,3,328,-0.733,10.441,2.252,0
284,35.289,-97.487,343.3,31,3,328,-0.771,10.42,2.34,0
285,35.289,-97.487,343,31.02,3,327,-0.788,10.368,2.439,0
286,35.289,-97.487,342.8,31.02,3,327,-0.821,10.351,2.602,0
287,35.29,-97.487,342.9,30.95,4,326,-0.811,10.337,2.616,0
288,35.29,-97.487,343.1,30.9,4,325,-0.753,10.444,2.497,0
289,35.29,-97.487,343.3,30.89,4,325,-0.787,10.569,2.377,0
290,35.29,-97.487,343.2,30.91,4,323,-0.695,10.374,2.304,0
291,35.291,-97.487,343.1,30.86,4,323,-0.713,10.508,2.681,0
292,35.291,-97.487,343.1,30.87,4,322,-0.657,10.521,2.609,0
293,35.291,-97.487,343,30.86,4,321,-0.792,10.417,3.031,0
294,35.291,-97.488,343.5,30.88,3,321,-0.726,10.296,2.565,0
295,35.292,-97.488,343.7,30.921,3,322,-0.693,10.402,2.2,0
296,35.292,-97.488,343.5,30.94,3,322,-0.744,10.535,2.153,0
297,35.292,-97.488,343.3,31,3,322,-0.804,10.432,2.655,0
298,35.292,-97.488,343.4,31.07,3,322,-0.749,10.467,2.373,0
299,35.293,-97.488,343.6,31.15,3,323,-0.811,10.461,2.368,0
300,35.293,-97.488,343.6,31.19,4,323,-0.82,10.453,2.303,0
301,35.293,-97.488,343.6,31.23,4,322,-0.851,10.522,2.402,0
302,35.294,-97.488,343.6,31.32,4,322,-0.823,10.397,2.491,0
303,35.294,-97.488,343.5,31.37,4,323,-0.866,10.495,2.237,0
304,35.294,-97.489,343.5,31.44,3,322,-0.818,10.473,2.384,0
305,35.294,-97.489,343.4,31.5,3,322,-0.866,10.486,2.384,0
306,35.295,-97.489,343.3,31.49,3,322,-0.936,10.479,2.392,0
307,35.295,-97.489,343.5,31.49,3,322,-0.945,10.375,2.384,0
308,35.295,-97.489,343.5,31.42,4,324,-0.955,10.425,2.472,0
309,35.295,-97.489,343.6,31.38,4,324,-0.946,10.302,2.322,0
310,35.296,-97.489,344,31.35,3,323,-0.95,10.485,2.704,0
311,35.296,-97.489,344.4,31.29,3,322,-0.952,10.517,2.921,0
312,35.296,-97.489,345.1,31.25,3,322,-0.9,10.516,2.832,0
313,35.297,-97.489,346.9,31.09,3,322,-0.887,10.232,2.72,0
314,35.297,-97.49,347.8,30.95,3,323,-0.956,10.44,2.9,0
315,35.297,-97.49,349.4,30.721,3,324,-0.803,10.403,2.867,0
316,35.298,-97.49,350.6,30.601,3,325,-0.814,10.5,2.721,0
317,35.298,-97.49,351.5,30.451,3,326,-0.75,10.321,2.742,0
318,35.298,-97.49,352.1,30.421,3,326,-0.644,10.287,2.687,0
319,35.298,-97.49,353.2,30.421,3,327,-0.556,10.295,2.699,0
320,35.299,-97.49,354.1,30.41,3,328,-0.573,10.413,2.867,0
321,35.299,-97.49,355.1,30.47,3,328,-0.598,10.148,3.019,0
322,35.299,-97.49,356.8,30.472,3,329,-0.639,10.388,2.849,0
323,35.3,-97.49,357.7,30.441,3,330,-0.579,10.456,2.692,0
324,35.3,-97.49,358.7,30.501,3,331,-0.57,10.417,2.55,0
325,35.3,-97.49,359.3,30.551,3,331,-0.536,10.33,2.443,0
326,35.3,-97.49,359.6,30.64,3,331,-0.586,10.441,2.459,0
328,35.301,-97.49,359.7,30.71,3,331,-0.621,10.387,2.15,0
328,35.301,-97.49,359.7,30.71,3,331,-0.621,10.387,2.15,0
329,35.301,-97.49,359.7,30.75,3,331,-0.611,10.267,2.341,0
330,35.301,-97.49,359.6,30.851,3,329,-0.596,10.38,2.616,0
331,35.301,-97.49,0.1,30.92,3,329,-0.693,10.388,2.323,0
332,35.302,-97.49,0.1,30.96,3,330,-0.668,10.519,2.196,0
333,35.302,-97.49,359.9,31.03,3,329,-0.626,10.499,2.392,0
334,35.302,-97.49,0.1,31.14,3,329,-0.642,10.65,2.319,0
335,35.303,-97.49,0,31.19,3,327,-0.778,10.592,2.2,0
336,35.303,-97.49,359.9,31.201,3,328,-0.743,10.346,2.467,0
337,35.303,-97.49,0.1,31.27,3,329,-0.702,10.139,2.658,0
338,35.303,-97.49,0.6,31.33,3,327,-0.625,10.164,2.662,0
339,35.304,-97.49,0.5,31.631,3,326,-0.829,10.249,2.386,0
340,35.304,-97.49,1.4,31.43,3,325,-0.812,10.474,2.113,0
341,35.304,-97.49,1.1,31.47,3,325,-0.779,10.642,1.954,0
342,35.305,-97.49,0.6,31.45,3,326,-0.805,10.549,2.326,0
343,35.305,-97.49,0,31.47,3,326,-0.778,10.522,2.269,0
344,35.305,-97.49,359.9,31.3,3,326,-0.852,10.595,2.037,0
345,35.305,-97.49,359.6,31.471,4,326,-0.85,10.354,2.119,0
346,35.306,-97.49,359.4,31.372,5,327,-0.807,10.582,1.821,0
347,35.306,-97.49,359.1,31.31,5,327,-0.846,10.582,2.101,0
348,35.306,-97.49,358.2,31.311,5,327,-0.844,10.353,2.505,0
349,35.307,-97.49,358.7,31.25,5,327,-0.82,10.403,2.768,0
350,35.307,-97.49,359.5,31.22,5,327,-0.807,10.451,2.448,0
351,35.307,-97.49,0,31.16,5,327,-0.888,10.544,2.4,0
352,35.307,-97.49,0,31.12,5,326,-0.821,10.396,2.442,0
353,35.308,-97.49,0,31.08,4,326,-0.871,10.537,2.389,0
354,35.308,-97.49,359.8,31.041,4,327,-0.836,10.656,2.482,0
355,35.308,-97.49,359.8,31.033,5,328,-0.842,10.462,2.552,0
356,35.309,-97.49,0,31.01,4,327,-0.818,10.406,2.273,0
357,35.309,-97.49,0.1,30.931,4,326,-0.885,10.449,2.244,0
358,35.309,-97.49,359.9,30.91,4,324,-0.828,10.54,2.312,0
359,35.309,-97.49,0,30.83,4,323,-0.799,10.327,2.302,0
360,35.31,-97.49,359.8,30.82,4,323,-0.799,10.536,2.644,0
361,35.31,-97.49,0,30.8,4,323,-0.792,10.449,2.266,0
362,35.31,-97.49,359.8,30.75,3,323,-0.726,10.526,2.451,0
363,35.31,-97.49,359.9,30.681,3,324,-0.719,10.395,2.379,0
364,35.311,-97.49,0,30.663,4,324,-0.801,10.566,2.394,0
365,35.311,-97.49,359.8,30.661,3,324,-0.713,10.389,2.43,0
366,35.311,-97.49,0,30.611,3,324,-0.809,10.447,2.244,0
367,35.312,-97.49,359.8,30.53,3,325,-0.896,10.383,2.475,0
368,35.312,-97.49,359.9,30.43,3,326,-0.822,10.498,2.396,0
369,35.312,-97.49,0,30.36,3,327,-0.766,10.408,2.232,0
370,35.312,-97.49,359.8,30.25,3,324,-0.725,10.42,2.4,0
371,35.313,-97.49,359.9,30.23,3,321,-0.657,10.301,2.435,0
372,35.313,-97.49,0,30.231,3,322,-0.594,10.349,2.207,0
373,35.313,-97.49,0,30.44,3,320,-0.556,10.554,2.57,0
374,35.314,-97.49,0,30.51,4,320,-0.621,10.329,2.507,0
375,35.314,-97.49,359.8,30.56,4,319,-0.639,10.484,2.607,0
376,35.314,-97.49,0.1,30.59,4,319,-0.58,10.519,2.17,0
377,35.315,-97.49,0.2,30.66,4,320,-0.611,10.462,2.174,0
378,35.315,-97.49,0,30.69,4,321,-0.64,10.468,2.43,0
379,35.315,-97.49,0,30.701,4,322,-0.612,10.614,2.353,0
380,35.315,-97.49,359.7,30.881,9,325,-0.68,10.426,2.308,0
381,35.316,-97.49,0.1,30.8,9,325,-0.715,10.624,2.228,0
382,35.316,-97.49,0,30.781,9,324,-0.665,10.537,2.215,0
383,35.316,-97.49,359.9,30.78,9,324,-0.72,10.497,2.341,0
384,35.317,-97.49,359.8,30.78,9,323,-0.674,10.489,2.172,0
385,35.317,-97.49,0,30.78,9,323,-0.679,10.422,2.251,0
387,35.317,-97.49,359.9,30.88,9,323,-0.693,10.483,2.432,0
387,35.317,-97.49,359.9,30.88,9,323,-0.693,10.483,2.432,0
388,35.317,-97.49,359.9,30.81,9,323,-0.646,10.502,2.39,0
389,35.318,-97.49,0,30.83,9,328,-0.642,10.449,2.103,0
390,35.318,-97.49,0.1,30.821,9,326,-0.69,10.523,2.207,0
391,35.318,-97.49,359.8,30.78,9,326,-0.65,10.498,2.385,0
392,35.318,-97.49,359.8,30.771,9,325,-0.654,10.336,2.371,0
393,35.319,-97.49,0,30.79,9,326,-0.682,10.454,2.301,0
394,35.319,-97.49,359.8,30.85,9,326,-0.613,10.317,2.394,0
395,35.319,-97.49,0.3,30.86,9,323,-0.676,10.418,2.103,0
396,35.32,-97.49,359.9,30.89,9,323,-0.616,10.366,2.151,0
397,35.32,-97.49,359.8,30.94,9,322,-0.649,10.395,2.373,0
398,35.32,-97.49,0.4,29.95,10,323,-0.64,10.555,2.576,0
399,35.32,-97.49,359.9,30.001,10,328,-0.729,10.504,2.469,0
400,35.321,-97.49,359.7,30.59,10,327,-0.729,10.58,2.342,0
401,35.321,-97.49,0.1,31.18,10,325,-0.791,10.448,2.076,0
402,35.321,-97.49,359.8,31.2,10,323,-0.788,10.406,2.133,0
403,35.322,-97.49,359.9,31.18,10,323,-0.775,10.36,2.571,0
404,35.322,-97.49,359.9,31.27,10,320,-0.789,10.295,2.452,0
405,35.322,-97.49,359.9,31.28,9,320,-0.787,10.387,2.245,0
406,35.322,-97.49,359.8,31.25,9,320,-0.775,10.482,2.388,0
407,35.323,-97.49,359.8,31.26,9,322,-0.77,10.489,2.332,0
408,35.323,-97.49,359.9,31.26,9,321,-0.813,10.484,2.384,0
409,35.323,-97.49,0,31.24,9,322,-0.738,10.353,2.401,0
410,35.324,-97.49,0.1,31.21,9,319,-0.737,10.434,2.245,0
411,35.324,-97.49,0.1,31.16,9,320,-0.731,10.403,2.322,0
412,35.324,-97.49,359.8,31.17,9,317,-0.648,10.583,2.1,0
413,35.324,-97.49,359.7,31.17,9,316,-0.693,10.428,2.301,0
414,35.325,-97.49,359.7,31.17,9,317,-0.747,10.424,2.313,0
415,35.325,-97.49,359.3,31.26,9,318,-0.697,10.579,2.33,0
416,35.325,-97.49,359.8,31.071,9,319,-0.777,10.417,2.091,0
417,35.325,-97.49,359.8,31.04,10,320,-0.774,10.397,2.483,0
418,35.326,-97.49,0.1,30.482,10,321,-0.733,10.229,2.631,0
419,35.326,-97.49,0,30.922,10,322,-0.682,10.534,2.521,0
420,35.326,-97.49,0.2,30.98,10,321,-0.61,10.48,2.103,0
421,35.327,-97.49,0,31,10,321,-0.741,10.614,2.286,0
422,35.327,-97.49,0,31.05,10,322,-0.679,10.401,2.471,0
423,35.327,-97.49,359.8,31.08,10,318,-0.781,10.592,2.471,0
424,35.327,-97.49,359.7,31.08,10,317,-0.702,10.372,2.474,0
425,35.328,-97.49,0,31.09,10,314,-0.699,10.436,2.695,0
426,35.328,-97.49,0.3,31.11,10,312,-0.592,10.574,2.436,0
427,35.328,-97.49,0.1,31.091,10,312,-0.663,10.389,2.124,0
428,35.329,-97.49,0,31.14,10,313,-0.607,10.514,2.204,0
429,35.329,-97.49,0,31.19,9,313,-0.768,10.489,2.233,0
430,35.329,-97.49,0,31.13,9,315,-0.872,10.313,2.579,0
431,35.329,-97.49,0.2,31.06,10,315,-0.875,10.271,2.411,0
432,35.33,-97.49,0,31.09,9,317,-0.755,10.309,2.457,0
433,35.33,-97.49,0,31.03,9,318,-0.627,10.318,2.203,0
434,35.331,-97.49,359.7,31.1,9,320,-0.745,10.48,2.269,0
435,35.331,-97.49,359.8,31.041,9,320,-0.768,10.739,2.217,0
436,35.331,-97.49,359.9,31.01,10,322,-0.757,10.687,2.548,0
437,35.331,-97.49,359.8,30.95,9,324,-0.758,10.37,2.374,0
438,35.332,-97.49,359.9,30.91,10,321,-0.746,10.323,2.61,0
439,35.332,-97.49,359.8,30.83,9,322,-0.753,10.544,2.304,0
440,35.332,-97.49,359.7,30.76,10,319,-0.835,10.43,2.603,0
441,35.332,-97.49,359.8,30.72,9,333,-0.78,10.296,2.36,0
442,35.333,-97.49,359.5,30.691,9,330,-0.725,10.372,2.227,0
443,35.333,-97.49,359.3,30.42,9,327,-0.607,10.629,2.121,0
444,35.333,-97.49,357,30.84,9,325,-0.687,10.697,2.059,0
445,35.334,-97.49,355.5,30.88,9,325,-0.641,10.623,2.294,0
446,35.334,-97.49,354.5,30.71,9,326,-0.63,10.775,2.121,0
448,35.334,-97.49,353.8,30.86,10,328,-0.638,10.668,1.942,0
448,35.334,-97.49,353.8,30.86,10,328,-0.638,10.668,1.942,0
449,35.334,-97.49,353.4,31.11,10,328,-0.682,10.447,1.538,0
450,35.335,-97.49,349.1,30.98,10,329,-0.682,10.392,2.11,0
451,35.335,-97.49,347.9,30.97,10,330,-0.701,10.452,2.117,0
452,35.335,-97.49,347,31.001,10,330,-0.656,10.417,2.373,0
453,35.335,-97.49,346,31.011,5,332,-0.763,10.612,1.986,0
454,35.336,-97.49,344.7,31.041,5,333,-0.728,10.603,2.253,0
455,35.336,-97.491,343.4,31.022,4,335,-0.725,10.712,2.243,0
456,35.336,-97.491,342.1,30.981,4,336,-0.672,10.669,2.503,0
457,35.337,-97.491,341.2,30.97,4,336,-0.677,10.469,2.446,0
458,35.337,-97.491,341,30.9,4,335,-0.627,10.566,2.537,0
459,35.337,-97.491,341.1,30.72,4,335,-0.615,10.585,2.418,0
460,35.337,-97.491,341.1,30.57,4,334,-0.541,10.204,2.199,0
461,35.338,-97.491,341.4,30.431,4,334,-0.448,10.366,2.219,0
462,35.338,-97.491,341.6,30.411,4,335,-0.457,10.499,2.27,0
463,35.338,-97.492,341.6,30.501,4,335,-0.611,10.186,2.692,0
464,35.338,-97.492,341.5,30.652,4,337,-0.357,10.577,1.991,0
465,35.339,-97.492,341.2,30.801,4,337,-0.574,10.186,2.436,0
466,35.339,-97.492,340.6,30.64,4,337,-0.552,10.414,2.339,0
467,35.339,-97.492,341.3,31.08,4,336,-0.574,10.416,2.431,0
468,35.339,-97.492,341.6,31.24,4,337,-0.676,10.572,2.045,0
469,35.34,-97.492,341.8,31.35,4,338,-0.712,10.515,1.92,0
470,35.34,-97.492,341.5,31.36,4,339,-0.714,10.593,2.12,0
471,35.34,-97.492,341.5,31.361,3,340,-0.819,10.441,1.985,0
472,35.341,-97.493,341.3,31.39,3,340,-0.755,10.58,2.335,0
473,35.341,-97.493,341.6,31.36,3,341,-0.714,10.578,2.181,0
474,35.341,-97.493,341.4,31.37,3,341,-0.717,10.515,2.142,0
475,35.341,-97.493,341.3,31.34,3,340,-0.834,10.577,2.022,0
476,35.342,-97.493,341.4,31.36,3,341,-0.726,10.266,2.302,0
477,35.342,-97.493,341.5,31.4,3,341,-0.77,10.488,2.103,0
478,35.342,-97.493,341.6,31.38,3,341,-0.768,10.572,2.219,0
479,35.342,-97.493,341.4,31.38,3,341,-0.82,10.499,2.545,0
480,35.343,-97.493,341.4,31.44,3,342,-0.771,9.918,2.253,0
481,35.343,-97.494,341.6,31.46,3,340,-1.055,10.177,2.119,0
482,35.343,-97.494,341.6,31.45,3,340,-0.864,10.015,1.986,0
483,35.343,-97.494,341.8,31.45,3,339,-0.845,10.284,3.456,0
484,35.344,-97.494,342.3,31.44,3,339,-0.918,10.195,2.928,0
485,35.344,-97.494,343.4,31.49,3,339,-0.893,10.261,2.672,0
486,35.344,-97.494,344.3,31.53,3,339,-0.894,10.53,2.857,0
487,35.345,-97.494,345.5,31.58,3,340,-1.009,10.275,2.921,0
488,35.345,-97.494,346.3,31.6,3,340,-1.04,10.291,3.235,0
489,35.345,-97.494,347.4,31.592,3,341,-1.04,10.565,3.258,0
490,35.345,-97.494,348.6,31.5,3,341,-0.984,10.67,2.862,0
491,35.346,-97.494,349.8,31.35,3,342,-0.941,10.385,2.76,0
492,35.346,-97.494,350.8,31.12,3,342,-0.907,10.465,2.79,0
493,35.346,-97.494,351.7,30.91,3,342,-0.839,10.221,2.895,0
494,35.347,-97.495,352.6,30.75,3,343,-0.737,10.133,3.051,0
495,35.347,-97.495,353.6,30.72,3,343,-0.728,10.294,2.844,0
496,35.347,-97.495,354.6,30.67,3,343,-0.661,10.42,2.789,0
497,35.347,-97.495,355.6,30.601,3,344,-0.697,10.368,2.809,0
498,35.348,-97.495,356.6,30.6,3,344,-0.666,10.484,2.903,0
499,35.348,-97.495,357.5,30.591,3,345,-0.723,10.493,2.625,0
500,35.348,-97.495,358.7,30.57,3,345,-0.685,10.385,2.596,0
501,35.349,-97.495,359.1,30.46,3,345,-0.625,10.654,2.534,0
502,35.349,-97.495,0.1,30.7,3,345,-0.464,10.406,1.854,0
503,35.349,-97.495,359.8,30.691,3,345,-0.645,10.254,2.314,0
504,35.35,-97.495,359.8,30.701,3,346,-0.604,10.193,2.423,0
505,35.35,-97.495,359.9,30.711,3,346,-0.683,10.379,2.615,0
506,35.35,-97.495,359.7,30.77,3,346,-0.785,10.318,2.396,0
507,35.35,-97.495,359.6,30.791,3,344,-0.732,10.482,2.182,0
508,35.351,-97.495,359.8,30.811,4,346,-0.781,10.563,1.99,0
509,35.351,-97.495,359.6,30.81,4,346,-0.528,10.708,2.101,0
510,35.351,-97.495,359.5,30.82,4,345,-0.664,10.507,2.396,0
511,35.351,-97.495,359.6,30.84,4,344,-0.693,10.508,2.401,0
512,35.352,-97.495,359.7,30.85,4,344,-0.747,10.649,2.393,0
513,35.352,-97.495,359.8,30.821,4,345,-0.711,10.566,2.514,0
515,35.352,-97.495,359.9,30.822,4,346,-0.73,10.466,2.258,0
515,35.352,-97.495,359.9,30.822,4,346,-0.73,10.466,2.258,0
516,35.353,-97.495,0,30.861,4,346,-0.723,10.749,1.89,0
517,35.353,-97.495,359.7,30.901,3,346,-0.657,10.359,2.292,0
518,35.353,-97.495,359.5,30.88,3,344,-0.801,10.63,2.297,0
519,35.353,-97.495,359.5,30.89,3,344,-0.741,10.424,2.112,0
520,35.354,-97.495,359.4,30.9,3,342,-0.67,10.615,2.073,0
521,35.354,-97.495,359.6,30.96,4,338,-0.655,10.533,2.118,0
522,35.354,-97.495,359.5,30.9,4,335,-0.739,10.284,2.468,0
523,35.355,-97.495,359.4,30.86,4,334,-0.577,10.431,2.142,0
524,35.355,-97.495,359.6,30.852,4,336,-0.692,10.802,1.877,0
525,35.355,-97.495,359.9,30.861,4,335,-0.76,10.596,2.33,0
526,35.355,-97.495,359.8,30.831,4,336,-0.662,10.743,2.388,0
527,35.356,-97.495,359.8,30.831,4,338,-0.639,10.554,2.228,0
528,35.356,-97.495,359.7,30.83,4,338,-0.732,10.505,2.202,0
529,35.356,-97.495,359.6,30.9,4,338,-0.706,10.418,2.363,0
530,35.357,-97.495,359.3,30.91,3,338,-0.75,10.621,2.445,0
531,35.357,-97.495,359.4,30.911,3,338,-0.658,10.418,2.238,0
532,35.357,-97.495,359.5,30.901,4,336,-0.816,10.63,2.313,0
533,35.357,-97.495,359.5,30.9,4,334,-0.64,10.291,2.41,0
534,35.358,-97.495,359.3,30.89,3,334,-0.67,10.485,2.543,0
535,35.358,-97.495,359.2,30.9,3,332,-0.713,10.381,2.416,0
536,35.358,-97.495,359.4,30.91,4,334,-0.665,10.538,2.273,0
537,35.358,-97.495,359.3,30.9,4,335,-0.775,10.761,2.508,0
538,35.359,-97.495,359.3,30.95,3,334,-0.689,10.444,2.061,0
539,35.359,-97.495,359.2,30.941,3,336,-0.758,10.454,2.245,0
540,35.359,-97.495,359.3,30.921,3,337,-0.646,10.704,2.096,0
541,35.36,-97.495,359.3,30.941,3,338,-0.719,10.652,2.11,0
542,35.36,-97.495,359.1,30.911,3,337,-0.702,10.45,2.299,0
543,35.36,-97.495,358.9,30.882,3,337,-0.778,10.268,2.588,0
544,35.36,-97.495,359.1,30.831,3,337,-0.686,10.425,2.417,0
545,35.361,-97.495,359.3,30.8,4,336,-0.756,10.945,2.7,0
546,35.361,-97.495,359.4,30.7,3,337,-0.692,10.618,2.317,0
547,35.361,-97.495,359.4,30.641,3,338,-0.715,10.486,2.21,0
548,35.362,-97.495,359.4,30.553,3,339,-0.659,10.411,2.681,0
549,35.362,-97.495,359.4,30.444,3,338,-0.534,10.093,2.321,0
550,35.362,-97.495,359.3,30.423,3,339,-0.533,10.227,2.556,0
551,35.362,-97.495,359.4,30.451,3,339,-0.335,10.323,2.132,0
552,35.363,-97.495,359.4,30.512,3,339,-0.441,9.969,2.172,0
553,35.363,-97.495,359.4,30.661,3,340,-0.547,9.888,2.545,0
554,35.363,-97.495,359.5,30.86,3,341,-0.514,9.984,2.06,0
555,35.363,-97.495,359.4,30.98,3,342,-0.502,10.096,1.805,0
556,35.364,-97.495,359.3,31.22,3,342,-0.801,10.622,2.498,0
557,35.364,-97.495,359.3,31.39,3,342,-1.108,10.276,1.886,0
558,35.364,-97.495,359.3,31.561,4,344,-0.729,10.301,1.986,0
559,35.365,-97.495,359.3,31.753,4,346,-0.815,10.475,2.136,0
560,35.365,-97.495,359,31.871,4,348,-0.861,10.588,2.15,0
561,35.365,-97.495,359,31.83,9,348,-0.95,10.666,1.982,0
562,35.365,-97.495,359,31.73,9,349,-1.003,10.663,2.511,0
563,35.366,-97.495,359.3,31.59,9,350,-0.907,10.466,2.624,0
564,35.366,-97.495,359.4,31.4,9,351,-0.817,10.302,2.321,0
565,35.367,-97.495,359.5,30.98,9,351,-0.801,10.587,2.363,0
566,35.367,-97.495,359.3,30.79,9,351,-0.814,10.697,2.336,0
567,35.367,-97.495,359.3,30.621,9,351,-0.637,10.464,2.447,0
568,35.367,-97.495,359.4,30.541,9,352,-0.653,10.642,1.894,0
569,35.368,-97.495,359.5,30.471,9,352,-0.716,10.608,2.496,0
570,35.368,-97.495,359.6,30.411,9,350,-0.576,10.656,2.123,0
571,35.368,-97.495,359.5,30.4,9,351,-0.693,10.654,2.001,0
572,35.369,-97.495,359.2,30.43,9,351,-0.629,10.515,2.166,0
573,35.369,-97.495,359.2,30.47,9,358,-0.486,10.327,2.53,0
574,35.369,-97.495,359.4,30.551,9,358,-0.513,10.61,2.127,0
575,35.369,-97.495,359.2,30.641,9,357,-0.579,10.489,1.995,0
577,35.37,-97.495,359.3,30.682,9,358,-0.575,10.397,2.243,0
577,35.37,-97.495,359.3,30.682,9,358,-0.575,10.397,2.243,0
578,35.37,-97.495,359.4,30.761,9,357,-0.697,10.415,2.33,0
579,35.37,-97.495,359.2,30.88,9,356,-0.581,10.551,2.343,0
580,35.37,-97.495,359.2,30.92,9,357,-0.632,10.539,2.108,0
581,35.371,-97.495,359.1,31.01,9,355,-0.744,10.598,2.346,0
582,35.371,-97.495,359.3,31.1,9,359,-0.829,10.751,2.071,0
583,35.371,-97.495,359.2,31.17,9,358,-0.613,10.217,2.488,0
584,35.372,-97.495,359.2,31.19,9,358,-0.795,10.288,2.447,0
585,35.372,-97.495,359.3,31.151,9,358,-0.738,10.402,2.268,0
586,35.372,-97.495,359.2,31.2,9,358,-0.629,10.439,2.266,0
587,35.372,-97.495,359.2,31.182,9,358,-0.747,10.588,2.531,0
588,35.373,-97.495,359.4,31.191,9,359,-0.67,10.722,1.776,0
589,35.373,-97.495,359.4,31.24,9,360,-0.68,10.514,2.229,0
590,35.373,-97.495,359.1,30.95,9,359,-0.778,10.525,2.265,0
591,35.374,-97.495,359.4,31.3,9,360,-0.83,10.654,2.431,0
592,35.374,-97.495,359.4,31.33,9,361,-0.751,10.542,2.158,0
593,35.374,-97.495,359.3,31.33,9,359,-0.713,10.69,2.114,0
594,35.374,-97.495,359.5,31.331,9,360,-0.704,10.524,2.049,0
595,35.375,-97.495,359.6,31.36,9,360,-0.651,10.577,2.153,0
596,35.375,-97.495,359.8,31.382,9,361,-0.6,10.654,2.074,0
597,35.375,-97.495,359.9,31.341,9,361,-0.771,10.846,2.041,0
598,35.376,-97.495,359.9,31.21,10,362,-0.637,10.492,2.29,0
599,35.376,-97.495,359.8,31.05,10,363,-0.686,10.569,2.03,0
600,35.376,-97.495,359.7,30.93,10,365,-0.543,10.408,1.997,0
601,35.376,-97.495,359.7,30.84,10,361,-0.636,10.308,2.238,0
602,35.377,-97.495,359.7,30.83,10,362,-0.697,10.847,2.575,0
603,35.377,-97.495,359.8,30.861,10,363,-0.047,10.18,1.769,0
604,35.377,-97.495,359.9,30.93,10,363,-0.554,10.607,2.318,0
605,35.377,-97.495,359.9,30.961,10,364,-0.677,10.573,2.489,0
606,35.378,-97.495,359.9,31.07,10,364,-0.697,10.69,2.011,0
607,35.378,-97.495,359.8,31.17,10,366,-0.883,10.647,2.121,0
608,35.378,-97.495,359.7,31.33,10,364,-0.703,10.428,2.125,0
609,35.379,-97.495,359.6,31.471,10,364,-0.837,10.119,2.578,0
610,35.379,-97.495,359.5,31.611,10,364,-0.802,10.637,2.303,0
611,35.379,-97.495,359.6,31.732,10,364,-0.875,10.565,1.963,0
612,35.379,-97.495,359.9,31.833,9,364,-0.95,10.657,2.447,0
613,35.38,-97.495,359.9,31.841,9,364,-0.89,10.599,2.698,0
614,35.38,-97.495,359.8,31.841,9,364,-0.961,10.5,2.132,0
615,35.38,-97.495,359.8,31.7,9,365,-1.071,10.467,2.324,0
616,35.381,-97.495,359.8,31.57,9,365,-0.967,10.522,2.397,0
617,35.381,-97.495,359.7,31.45,9,365,-1.006,10.316,2.522,0
618,35.381,-97.495,359.7,31.35,9,365,-0.909,10.435,1.726,0
619,35.381,-97.495,359.8,31.271,9,366,-0.957,10.372,2.224,0
620,35.382,-97.495,0.1,31.071,9,366,-0.996,10.363,2.269,0
621,35.382,-97.495,359.7,31.333,9,365,-0.868,10.154,2.617,0
622,35.382,-97.495,359.8,31.455,9,365,-0.977,10.146,2.423,0
623,35.383,-97.495,359.9,31.527,9,365,-0.964,10.388,2.332,0
624,35.383,-97.495,359.7,31.806,9,364,-1.014,10.514,2.061,0
625,35.383,-97.495,359.6,31.523,9,363,-1.112,10.474,2.236,0
626,35.384,-97.495,359.8,32.059,9,362,-1.087,10.484,2.477,0
627,35.384,-97.495,359.8,32.178,9,359,-1.15,10.607,2.771,0
628,35.384,-97.495,0.1,32.165,9,357,-1.168,10.737,2.679,0
629,35.385,-97.495,359.3,31.7,9,357,-1.068,10.557,2.599,0
630,35.385,-97.495,1.1,31.5,9,364,-1.113,10.741,2.313,0
631,35.385,-97.495,359.8,31.68,9,363,-1.169,10.708,2.053,0
632,35.385,-97.495,359.5,31.32,9,362,-1.231,10.421,2.437,0
633,35.386,-97.495,359.8,30.891,9,361,-0.989,10.435,2.713,0
634,35.386,-97.495,359.9,30.821,9,360,-0.956,10.279,2.544,0
635,35.386,-97.495,0,30.681,9,360,-0.936,10.228,2.175,0
636,35.387,-97.495,359.8,30.59,9,359,-0.823,10.232,2.437,0
637,35.387,-97.495,359.8,30.57,9,359,-0.785,10.322,2.158,0
638,35.387,-97.495,0,30.56,9,359,-0.831,10.316,2.24,0
639,35.387,-97.495,359.7,30.63,9,359,-0.804,10.532,2.328,0
641,35.388,-97.495,359.7,30.711,9,363,-0.682,10.423,2.347,0
641,35.388,-97.495,359.7,30.711,9,363,-0.682,10.423,2.347,0
642,35.388,-97.495,359.7,30.771,9,361,-0.748,10.295,2.553,0
643,35.388,-97.495,359.8,30.83,9,361,-0.787,10.493,2.253,0
644,35.388,-97.495,359.8,30.88,9,360,-0.789,10.374,2.561,0
645,35.389,-97.495,359.8,30.95,9,360,-0.73,10.357,2.298,0
646,35.389,-97.495,359.7,30.94,9,359,-0.826,10.36,2.379,0
647,35.389,-97.495,359.6,31.01,9,359,-0.782,10.474,2.623,0
648,35.39,-97.495,359.9,31,9,359,-0.88,10.451,2.399,0
649,35.39,-97.495,0.2,30.97,9,359,-0.841,10.509,2,0
650,35.39,-97.495,359.8,31.03,9,359,-0.898,10.5,2.234,0
651,35.39,-97.495,359.7,31.02,9,359,-0.846,10.472,2.68,0
652,35.391,-97.495,359.9,31.05,9,359,-0.882,10.673,2.143,0
653,35.391,-97.495,359.8,31.05,9,358,-0.821,10.37,2.295,0
654,35.391,-97.495,359.8,31.01,9,358,-0.896,10.625,2.424,0
655,35.392,-97.495,359.9,31,9,358,-1.083,10.36,3.134,0
656,35.392,-97.495,359,31.28,9,358,-1.016,10.252,2.436,0
657,35.392,-97.495,0.6,31.47,9,359,-0.873,10.326,2.472,0
658,35.392,-97.495,0,30.761,9,358,-0.879,10.475,2.241,0
659,35.393,-97.495,359.8,30.68,9,359,-0.769,10.435,2.221,0
660,35.393,-97.495,0,30.601,9,360,-0.84,10.329,2.266,0
661,35.393,-97.495,359.9,30.48,9,360,-0.806,10.529,2.091,0
662,35.394,-97.495,359.8,30.35,9,361,-0.748,10.522,2.274,0
663,35.394,-97.495,0.1,30.291,9,361,-0.744,10.414,2.412,0
664,35.394,-97.495,0.3,30.17,9,362,-0.833,10.361,2.063,0
665,35.394,-97.495,0.1,30.07,9,361,-0.735,10.503,2.362,0
666,35.395,-97.495,0,29.971,9,362,-0.746,10.366,2.273,0
667,35.395,-97.495,359.7,29.971,9,362,-0.789,10.399,2.362,0
668,35.395,-97.495,0,29.93,9,362,-0.852,10.411,2.281,0
669,35.395,-97.495,0.2,29.931,9,362,-0.883,10.49,2.366,0
670,35.396,-97.495,0,29.71,9,363,-0.962,10.239,2.151,0
671,35.396,-97.495,0,29.461,9,363,-1.091,10.301,2.254,0
672,35.396,-97.495,359.9,29.11,9,364,-1.213,10.328,2.341,0
673,35.396,-97.495,0.1,28.74,9,364,-1.154,10.323,2.296,0
674,35.397,-97.495,0,28.43,9,364,-0.986,10.479,2.12,0
675,35.397,-97.495,359.8,28.311,9,364,-0.883,10.387,2.303,0
676,35.397,-97.495,359.7,28.401,9,363,-0.888,10.497,2.537,0
677,35.397,-97.495,359.9,28.532,9,363,-0.799,10.413,2.406,0
678,35.398,-97.495,359.9,28.733,9,363,-0.809,10.498,2.116,0
679,35.398,-97.495,359.9,28.933,9,362,-0.85,10.563,2.408,0
680,35.398,-97.495,359.8,29.132,9,361,-0.829,10.719,2.359,0
681,35.399,-97.495,359.9,29.292,9,361,-0.919,10.939,2.411,0
682,35.399,-97.495,0,29.381,9,361,-0.77,10.777,2.502,0
683,35.399,-97.495,1.8,29.851,9,361,-0.783,10.203,2.665,0
684,35.399,-97.495,359.8,29.07,9,361,-0.766,10.523,2.468,0
685,35.4,-97.495,0,29.353,9,361,-0.78,10.86,2.483,0
686,35.4,-97.495,0,29.231,9,361,-0.682,10.541,2.3,0
687,35.4,-97.495,0,29.142,9,361,-0.652,10.575,2.091,0
688,35.4,-97.495,359.9,29.022,9,362,-0.459,10.528,2.102,0
689,35.401,-97.495,0,29.07,9,363,-0.324,10.304,1.957,0
690,35.401,-97.495,359.9,29.321,9,363,-0.362,10.409,2.324,0
691,35.401,-97.495,0.7,29.541,9,365,-0.392,10.225,2.931,0
692,35.402,-97.495,2,29.861,9,365,-0.443,10.132,2.96,0
693,35.402,-97.495,3.1,30.25,9,365,-0.427,10.179,3.194,0
694,35.402,-97.495,4.1,30.57,9,364,-0.423,10.251,2.797,0
695,35.403,-97.495,5.1,30.81,9,364,-0.607,10.226,2.71,0
696,35.403,-97.495,6,31.09,9,365,-0.642,10.123,3.087,0
697,35.403,-97.495,7.1,31.32,9,365,-0.717,10.196,2.794,0
698,35.403,-97.495,8.1,31.411,9,365,-0.69,10.413,2.832,0
699,35.404,-97.495,9.2,31.501,9,363,-0.941,10.343,3.09,0
700,35.404,-97.495,10.2,31.561,9,362,-0.984,10.483,2.852,0
701,35.404,-97.495,11.4,31.56,9,363,-1.034,10.703,2.338,0
703,35.404,-97.495,12.3,31.45,9,363,-1.081,10.6,2.338,0
703,35.404,-97.495,12.3,31.45,9,363,-1.081,10.6,2.338,0
704,35.405,-97.494,13.3,31.31,9,363,-0.968,10.517,3.064,0
705,35.405,-97.494,14.3,31.211,9,364,-0.912,10.52,2.663,0
706,35.405,-97.494,15.6,30.561,9,365,-0.773,10.235,2.502,0
707,35.406,-97.494,16.2,30.661,9,366,-0.695,10.575,2.492,0
708,35.406,-97.494,17.2,30.651,9,367,-0.554,9.926,3.012,0
709,35.406,-97.494,17.4,30.512,9,368,-0.697,10.153,2.143,0
710,35.406,-97.494,17.3,30.482,9,369,-0.48,10.56,1.472,0
711,35.407,-97.494,17.4,30.521,9,368,-0.614,10.434,2.181,0
712,35.407,-97.494,17.5,30.61,9,369,-0.553,10.438,2.553,0
713,35.407,-97.494,17.1,30.731,9,370,-0.634,10.522,2.409,0
714,35.407,-97.493,17.4,30.7,9,369,-0.755,10.709,2.277,0
715,35.408,-97.493,17.7,30.7,9,368,-0.642,10.367,2.692,0
716,35.408,-97.493,17.6,30.83,9,369,-0.69,10.19,2.502,0
717,35.408,-97.493,17.8,30.95,9,369,-0.824,10.241,2.311,0
718,35.408,-97.493,17.3,30.961,9,368,-0.927,10.717,1.351,0
719,35.409,-97.493,17.4,30.971,9,368,-1.046,10.309,1.465,0
720,35.409,-97.493,17.4,31.061,9,368,-0.709,10.541,2.545,0
721,35.409,-97.493,17.3,31.2,9,368,-0.67,10.177,2.911,0
722,35.41,-97.493,16.9,31.321,9,369,-0.453,9.333,3.122,0
723,35.41,-97.493,16.9,31.31,9,367,-0.885,10.374,2.395,0
724,35.41,-97.492,17,31.48,9,367,-0.902,10.224,3.455,0
725,35.41,-97.492,17.2,31.92,9,367,-0.883,10.385,2.318,0
726,35.411,-97.492,17.5,31.692,9,364,-0.998,10.229,2.301,0
727,35.411,-97.492,16.9,31.8,9,364,-0.98,10.291,2.31,0
728,35.411,-97.492,17.2,31.782,9,362,-1.052,10.355,2.904,0
729,35.411,-97.492,17.3,31.803,9,362,-1.232,10.435,2.498,0
730,35.412,-97.492,17.5,31.724,9,361,-1.177,10.482,2.679,0
731,35.412,-97.492,17.4,31.702,9,361,-1.146,10.351,2.674,0
732,35.412,-97.492,17.8,31.544,9,360,-1.09,10.494,2.2,0
733,35.413,-97.491,17.6,31.493,9,358,-1.167,10.535,2.119,0
734,35.413,-97.491,17.8,31.444,9,357,-1.058,10.586,1.87,0
735,35.413,-97.491,17.5,31.443,9,355,-1.109,10.658,2.282,0
736,35.413,-97.491,17.3,31.432,9,355,-1.029,10.685,2.406,0
737,35.414,-97.491,17.1,31.36,9,355,-1.11,10.778,2.241,0
738,35.414,-97.491,17.2,31.27,9,355,-0.956,10.569,2.199,0
739,35.414,-97.491,18.2,31.001,9,354,-0.996,10.884,2.036,0
740,35.414,-97.491,18.7,31.19,10,354,-0.996,10.779,1.987,0
741,35.415,-97.491,18.5,30.54,10,353,-0.934,10.729,2.032,0
742,35.415,-97.491,18,30.331,9,361,-0.773,10.473,2.237,0
743,35.415,-97.49,18.1,30.171,9,360,-0.547,10.377,2.211,0
744,35.415,-97.49,17.9,30.141,9,358,-0.644,10.242,2.427,0
745,35.416,-97.49,17.3,30.091,9,358,-0.617,10.409,2.443,0
746,35.416,-97.49,17.4,30.102,9,360,-0.669,10.28,2.167,0
747,35.416,-97.49,17.5,30.231,9,360,-0.531,10.2,2.175,0
748,35.416,-97.49,17.2,30.372,9,361,-0.533,10.232,2.274,0
749,35.417,-97.49,17.4,30.61,9,361,-0.47,10.164,2.216,0
750,35.417,-97.49,17.6,30.77,9,361,-0.656,10.17,1.91,0
751,35.418,-97.49,17.5,31.15,9,364,-0.764,10.292,1.937,0
752,35.418,-97.489,17.5,31.371,9,363,-0.841,10.407,2.403,0
753,35.418,-97.489,17.4,31.47,9,361,-0.934,10.882,2.409,0
754,35.418,-97.489,17.2,31.501,9,361,-0.99,10.552,2.304,0
755,35.419,-97.489,17.7,31.39,9,360,-0.766,10.524,2.572,0
756,35.419,-97.489,17.5,31.272,9,361,-0.734,10.632,2.625,0
757,35.419,-97.489,18.4,30.952,9,362,-1.009,10.774,1.355,0
758,35.419,-97.489,18.5,30.761,9,361,-0.839,10.366,2.079,0
759,35.42,-97.489,19.2,30.732,9,361,-0.844,10.284,2.221,0
760,35.42,-97.489,20.4,30.732,9,361,-0.672,10.156,2.661,0
761,35.42,-97.488,21.2,30.691,9,365,-0.823,10.404,2.492,0
762,35.42,-97.488,21.5,30.75,9,363,-0.504,10.483,2.574,0
763,35.421,-97.488,21.9,30.84,9,363,-0.766,10.139,2.199,0
765,35.421,-97.488,22.4,30.88,9,362,-0.844,10.415,1.717,0
765,35.421,-97.488,22.4,30.88,9,362,-0.844,10.415,1.717,0
766,35.421,-97.488,22.4,30.98,9,362,-0.951,10.315,2.171,0
767,35.422,-97.488,22.1,31.09,9,362,-0.706,10.349,2.448,0
768,35.422,-97.488,22.1,31.19,9,361,-0.705,10.268,2.4,0
769,35.422,-97.488,22.2,31.321,9,360,-0.867,10.309,2.347,0
770,35.422,-97.487,22.1,31.452,9,360,-0.928,10.58,1.666,0
771,35.423,-97.487,22.3,31.552,9,359,-0.978,10.424,2.447,0
772,35.423,-97.487,22.4,31.623,9,358,-1.012,10.402,2.406,0
773,35.423,-97.487,22.2,31.79,9,358,-1.03,10.293,2.611,0
774,35.423,-97.487,21.6,31.762,9,358,-1.057,10.588,2.102,0
775,35.424,-97.487,20.8,31.732,9,357,-1.021,10.707,1.769,0
776,35.424,-97.487,18.9,31.703,9,356,-0.979,10.805,1.5,0
777,35.424,-97.487,17.2,31.551,9,355,-1.056,10.558,2.012,0
778,35.424,-97.486,15.5,31.512,9,355,-0.947,10.385,2.278,0
779,35.425,-97.486,13.9,31.502,9,354,-0.923,10.325,2.05,0
780,35.425,-97.486,12.4,31.502,9,354,-1.152,10.667,1.945,0
781,35.425,-97.486,10.9,31.423,9,353,-1.251,10.524,2.475,0
782,35.426,-97.486,9.7,31.342,9,357,-1.062,10.358,2.339,0
783,35.426,-97.486,7.6,31.234,9,355,-0.985,10.396,2.028,0
784,35.426,-97.486,6.1,31.202,9,353,-0.957,10.528,2.125,0
785,35.426,-97.486,5,31.161,9,353,-1.169,10.696,1.955,0
786,35.427,-97.486,3.5,31.092,9,351,-1.275,10.514,2.567,0
787,35.427,-97.486,2.1,30.854,9,350,-1.433,10.54,2.006,0
788,35.427,-97.486,0.9,30.492,9,350,-0.627,10.434,2.198,0
789,35.427,-97.486,0.3,30.702,9,349,0.141,10.427,2.448,0
790,35.428,-97.486,0,31.92,9,348,0.413,10.567,2.629,0
791,35.428,-97.486,359.8,32.74,9,348,0.409,10.278,3.003,0
792,35.428,-97.486,1.2,34.631,9,351,0.262,10.212,2.653,0
793,35.429,-97.486,1.7,35.44,9,350,-1.098,10.584,2.118,0
794,35.429,-97.486,1.5,35.47,9,350,-1.342,10.649,2.005,0
795,35.429,-97.486,0.7,35.13,9,350,-1.38,10.739,2.211,0
796,35.43,-97.486,0.2,34.67,9,349,-1.397,10.773,2.26,0
797,35.43,-97.486,0.2,34.19,9,349,-1.337,10.8,2.55,0
798,35.43,-97.486,0.2,33.69,9,349,-1.261,10.511,2.243,0
799,35.431,-97.486,0.2,33.14,9,349,-1.097,10.439,2.435,0
800,35.431,-97.486,0,32.691,9,349,-1.211,10.788,1.733,0
801,35.431,-97.486,359.8,32.301,9,349,-1.229,10.449,2.151,0
802,35.431,-97.486,359.7,31.87,9,348,-1.148,10.223,2.849,0
803,35.432,-97.486,359.8,31.53,9,348,-1.225,10.354,2.641,0
804,35.432,-97.486,0.1,31.35,9,348,-1.024,10.347,2.204,0
805,35.432,-97.486,0,30.81,9,348,-1.197,10.259,2.121,0
806,35.433,-97.486,0,30.47,9,347,-1.256,10.158,2.188,0
807,35.433,-97.486,359.8,30.261,9,348,-1.087,10.246,2.493,0
808,35.433,-97.486,359.7,30.061,9,347,-0.994,10.355,2.765,0
809,35.433,-97.486,359.7,29.932,9,346,-1.108,10.509,2.233,0
810,35.434,-97.486,359.8,29.862,9,346,-0.974,10.406,2.259,0
811,35.434,-97.486,359.8,29.982,9,345,-0.936,10.487,2.531,0
812,35.434,-97.486,359.9,30.203,9,344,-0.677,10.605,2.668,0
813,35.434,-97.486,0,30.432,9,343,-0.77,10.819,2.37,0
814,35.435,-97.486,359.9,31.13,9,342,-0.953,10.561,2.213,0
815,35.435,-97.486,359.7,30.84,9,342,-0.792,10.378,2.386,0
816,35.436,-97.486,0.3,31.51,9,342,-0.662,10.508,2.241,0
817,35.436,-97.486,0.2,31.33,9,342,-0.59,10.539,2.305,0
818,35.436,-97.486,0.1,31.41,9,343,-0.767,10.722,2.275,0
819,35.436,-97.486,0,31.41,9,342,-0.879,10.28,2.237,0
820,35.437,-97.486,359.9,31.22,9,341,-1.158,10.63,2.201,0
821,35.437,-97.486,0,30.83,9,342,-1.104,10.572,2.477,0
822,35.437,-97.486,359.8,30.45,9,342,-1.2,10.631,2.594,0
823,35.438,-97.486,0,30.08,9,342,-1.162,10.556,2.28,0
824,35.438,-97.486,0,29.72,9,342,-1.277,10.559,2.543,0
826,35.438,-97.486,0.3,29.36,9,343,-1.135,10.238,2.383,0
826,35.438,-97.486,0.3,29.36,9,343,-1.135,10.238,2.383,0
827,35.438,-97.486,0.4,29,9,343,-1.077,10.513,2.374,0
828,35.439,-97.486,0.2,28.74,9,343,-0.969,10.498,2.342,0
829,35.439,-97.486,0,28.6,9,343,-1.114,10.513,2.159,0
830,35.439,-97.486,359.9,28.57,9,343,-1.061,10.342,2.257,0
831,35.439,-97.486,0,28.43,10,343,-1.121,10.591,2.053,0
832,35.44,-97.486,359.8,28.042,9,344,-1.063,10.536,2.393,0
833,35.44,-97.486,359.5,27.86,9,345,-0.967,10.489,2.542,0
834,35.44,-97.486,359.6,27.66,9,346,-1.013,10.271,2.519,0
835,35.44,-97.486,0,27.38,9,347,-1.144,10.497,2.318,0
836,35.441,-97.486,359.8,27.06,9,347,-0.966,10.542,2.469,0
837,35.441,-97.486,359.7,26.76,9,348,-1.002,10.565,2.44,0
838,35.441,-97.486,359.7,26.6,9,348,-0.846,10.251,2.512,0
839,35.441,-97.486,359.9,26.44,9,348,-1.007,10.376,2.466,0
840,35.442,-97.486,0.8,26.3,9,348,-0.74,10.365,2.256,0
841,35.442,-97.486,0.2,26.58,9,348,-0.543,10.452,2.316,0
842,35.442,-97.486,0.1,26.98,9,348,-0.586,10.564,2.34,0
843,35.442,-97.486,0.2,27.4,9,348,-0.434,10.397,2.21,0
844,35.443,-97.486,0.1,27.801,9,347,-0.631,10.234,2.749,0
845,35.443,-97.486,359.9,27.991,9,347,-1.084,10.372,2.597,0
846,35.443,-97.486,359.9,27.911,9,347,-1.02,10.282,2.117,0
847,35.443,-97.486,0,28.002,9,346,-0.775,10.301,2.559,0
848,35.444,-97.486,359.8,28.192,9,345,-1.184,10.533,2.085,0
849,35.444,-97.486,359.6,28.293,9,344,-1.329,10.293,2.324,0
850,35.444,-97.486,359.6,28.161,9,344,-1.362,10.334,2.178,0
851,35.444,-97.486,359.1,27.992,9,343,-1.309,10.42,2.372,0
852,35.445,-97.486,358.5,27.831,9,342,-1.237,10.647,2.584,0
853,35.445,-97.486,357.9,27.651,9,341,-0.835,10.762,2.504,0
854,35.445,-97.486,357.9,27.351,9,341,-0.797,10.645,2.386,0
855,35.445,-97.486,356.2,27.89,10,341,-0.671,10.513,2.22,0
856,35.446,-97.486,354.9,27.92,9,342,-0.642,10.558,2.106,0
857,35.446,-97.486,354,28.11,9,342,-0.693,10.232,2.476,0
858,35.446,-97.486,353,28.26,9,341,-0.772,10.274,1.783,0
859,35.446,-97.486,352.4,28.4,9,341,-0.927,10.428,2.164,0
860,35.447,-97.486,351.3,28.39,9,341,-1.056,10.564,2.177,0
861,35.447,-97.486,350.3,28.23,3,341,-1.077,10.499,2.458,0
862,35.447,-97.486,349.2,28.05,3,341,-1.46,10.05,2.187,0
863,35.447,-97.486,348.7,27.81,3,340,-1.337,10.369,2.349,0
864,35.448,-97.487,348.2,27.471,3,340,-1.252,10.386,2.517,0
865,35.448,-97.487,346.6,27.23,3,339,-0.877,10.478,2.591,0
866,35.448,-97.487,345.9,27.161,3,339,-1.045,10.438,2.584,0
867,35.448,-97.487,345.2,27.32,3,339,-0.934,10.484,2.37,0
868,35.449,-97.487,344.2,27.331,3,339,-0.864,10.588,2.161,0
869,35.449,-97.487,343,27.361,3,338,-0.862,10.471,2.493,0
870,35.449,-97.487,341.9,27.451,3,338,-0.903,10.476,2.368,0
871,35.449,-97.487,341,27.55,3,338,-0.836,10.588,2.449,0
872,35.449,-97.487,340.7,27.68,3,338,-0.745,10.575,2.481,0
873,35.45,-97.487,339.7,27.84,3,338,-0.781,10.634,2.524,0
874,35.45,-97.487,339.6,27.87,4,338,-0.795,10.63,2.771,0
875,35.45,-97.488,339.4,28,4,338,-0.847,10.491,2.784,0
876,35.451,-97.488,339.4,27.72,4,339,-1.186,10.637,2.443,0
877,35.451,-97.488,339.2,27.441,4,339,-0.832,10.509,2.248,0
878,35.451,-97.488,339.2,27.372,4,339,-0.521,10.342,2.298,0
879,35.451,-97.488,339.5,27.572,4,340,-0.357,10.329,2.372,0
880,35.452,-97.488,339.7,27.852,3,341,-0.289,10.469,2.148,0
881,35.452,-97.488,339.6,28.152,3,340,-0.284,10.441,2.585,0
882,35.452,-97.488,340.3,28.423,3,340,-0.458,10.422,2.652,0
883,35.452,-97.489,340.7,28.643,3,339,-0.451,10.34,2.41,0
884,35.453,-97.489,341,29.003,3,339,-0.476,10.472,2.146,0
885,35.453,-97.489,341.1,29.213,3,340,-0.742,10.455,2.129,0
886,35.453,-97.489,341,29.043,3,341,-1.017,10.23,2.207,0
887,35.453,-97.489,340.9,28.592,3,341,-0.884,10.271,2.279,0
889,35.454,-97.489,340.9,28.221,3,342,-1.041,10.092,2.358,0
889,35.454,-97.489,340.9,28.221,3,342,-1.041,10.092,2.358,0
890,35.454,-97.489,340.9,27.84,3,342,-1.114,10.743,2.035,0
891,35.454,-97.489,341,27.58,3,342,-1.095,10.54,2.102,0
892,35.454,-97.489,341.1,27.34,3,341,-0.96,10.706,2.274,0
893,35.454,-97.489,341.1,27.18,3,341,-0.945,10.606,2.293,0
894,35.455,-97.49,340.8,26.981,3,340,-0.94,10.393,2.493,0
895,35.455,-97.49,340.9,26.941,3,340,-0.945,10.293,2.277,0
896,35.455,-97.49,341,27.042,3,339,-0.693,10.336,2.4,0
897,35.455,-97.49,341,27.333,3,338,-0.913,10.663,2.319,0
898,35.456,-97.49,340.8,27.433,3,338,-1.134,10.431,2.236,0
899,35.456,-97.49,340.7,27.35,3,339,-1.135,10.507,2.074,0
900,35.456,-97.49,340.7,27.483,3,338,-1.041,10.406,2.188,0
901,35.456,-97.49,340.6,27.572,3,337,-1.158,10.825,2.112,0
902,35.457,-97.49,340.3,27.441,3,337,-1.253,10.721,2.139,0
903,35.457,-97.49,340.3,27.272,3,337,-1.27,10.522,2.452,0
904,35.457,-97.491,340.2,27.04,3,336,-1.267,10.417,2.656,0
905,35.457,-97.491,340.5,26.77,3,336,-1.167,10.491,2.826,0
906,35.457,-97.491,340.8,26.51,3,336,-0.795,10.746,2.608,0
907,35.458,-97.491,340.9,26.45,3,337,-0.743,10.343,3.322,0
908,35.458,-97.491,340.9,26.431,3,336,-0.748,10.606,2.596,0
909,35.458,-97.491,341.1,26.37,3,337,-1.048,10.712,2.618,0
910,35.458,-97.491,340.7,26.311,3,337,-0.852,10.361,2.46,0
911,35.459,-97.491,340.7,26.201,3,338,-0.92,10.184,3.072,0
912,35.459,-97.491,340.7,26.031,3,338,-1.219,10.255,2.515,0
913,35.459,-97.491,340.9,25.631,3,339,-1.576,10.231,2.228,0
914,35.459,-97.491,341,25.231,3,339,-0.904,10.51,2.735,0
915,35.459,-97.492,341.2,24.771,3,340,-1.173,10.499,2.939,0
916,35.46,-97.492,341.8,24.35,3,341,-0.78,10.45,2.471,0
917,35.46,-97.492,342.3,24.08,3,341,-0.172,10.03,2.027,0
918,35.46,-97.492,342.1,24.45,3,341,0.019,10.904,2.566,0
919,35.46,-97.492,341.7,25.261,3,342,-0.17,10.774,2.3,0
920,35.46,-97.492,341.5,25.931,3,343,-0.008,10.294,2.474,0
921,35.461,-97.492,340.8,26.73,3,343,-0.21,10.364,2.518,0
922,35.461,-97.492,340.8,27.42,3,343,-0.427,10.196,2.847,0
923,35.461,-97.492,340.3,27.76,3,344,-0.909,10.366,2.273,0
924,35.461,-97.492,339.6,27.741,3,344,-1.087,10.388,0.817,0
925,35.462,-97.493,337.2,27.51,3,344,-1.004,10.919,0.906,0
926,35.462,-97.493,332.8,27.41,3,343,-0.998,10.948,1.171,0
927,35.462,-97.493,331.4,26.89,4,342,-0.973,11.132,0.851,0
928,35.462,-97.493,330,28.82,4,343,-1.047,10.762,1.234,0
929,35.462,-97.493,329.1,27.41,7,344,-0.881,10.683,1.303,0
930,35.463,-97.493,322,26.31,11,344,-0.954,10.779,1.768,0
931,35.463,-97.494,316.6,26.16,11,345,-1.364,10.758,1.952,0
932,35.463,-97.494,313.4,25.55,11,345,-1.422,10.844,1.322,0
933,35.463,-97.494,304.4,25.48,10,343,-1.294,10.521,1.309,0
934,35.463,-97.494,304.8,25.751,10,345,-1.518,10.656,1.123,0
935,35.463,-97.495,297.3,24.402,10,346,-0.855,10.141,2.855,0
936,35.463,-97.495,294.7,24.01,9,346,-0.546,10.376,2.746,0
937,35.463,-97.495,295.3,24.1,10,345,-0.29,10.492,2.745,0
938,35.464,-97.495,295.7,24.62,10,345,-0.467,10.566,2.709,0
939,35.464,-97.496,296.3,24.91,10,344,-0.626,10.32,2.189,0
940,35.464,-97.496,296.3,25.2,10,342,-0.827,10.346,2.057,0
941,35.464,-97.496,296.4,25.31,11,341,-1.099,10.023,1.733,0
942,35.464,-97.497,292.6,25.31,12,338,-0.846,10.476,2.254,0
943,35.464,-97.497,295.4,24.91,11,338,-0.817,10.464,2.433,0
944,35.464,-97.497,295.8,24.73,11,338,-0.841,10.471,2.409,0
945,35.464,-97.497,296.1,25.43,11,339,-0.665,10.485,2.687,0
946,35.464,-97.498,297.2,25.701,11,337,-0.654,10.321,3.244,0
947,35.465,-97.498,298.7,25.48,11,336,-0.757,10.241,3.049,0
948,35.465,-97.498,302.4,25.96,10,336,-0.75,10.218,3.155,0
949,35.465,-97.498,304.6,25.71,10,336,-0.818,10.224,2.977,0
950,35.465,-97.498,306.5,26.131,10,338,-0.751,10.495,2.968,0
951,35.465,-97.499,308.4,26.131,10,340,-0.839,10.496,2.617,0
952,35.465,-97.499,310,26.191,10,341,-0.96,10.436,3.061,0
953,35.465,-97.499,311.7,26.25,10,342,-0.808,10.277,3.082,0
955,35.466,-97.499,313.6,26.29,10,342,-0.6,10.106,2.798,0
955,35.466,-97.499,313.6,26.29,10,342,-0.6,10.106,2.798,0
956,35.466,-97.5,315.1,26.84,10,342,-0.017,9.863,3.427,0
957,35.466,-97.5,316.3,26.96,10,342,0.029,10.26,3.164,0
958,35.466,-97.5,317,27.401,11,343,-0.122,9.884,3.159,0
959,35.466,-97.5,317.5,27.551,11,344,-0.103,9.907,2.867,0
960,35.467,-97.5,323.6,29.07,10,343,-0.588,9.8,3.118,0
961,35.467,-97.501,324.2,29.392,10,344,-0.698,10.987,2.611,0
962,35.467,-97.501,324.5,29.751,10,345,-0.353,10.81,2.504,0
963,35.467,-97.501,324.7,30.09,10,345,-0.195,10.849,2.499,0
964,35.467,-97.501,325.2,30.6,10,345,0.118,11.539,2.139,0
965,35.468,-97.501,325,31.18,10,346,-0.247,10.777,1.277,0
966,35.468,-97.502,324.4,31.541,10,346,0.014,10.163,2.126,0
967,35.468,-97.502,324.1,32.082,10,348,-0.141,10.601,1.62,0
968,35.468,-97.502,323.5,32.622,10,346,0.078,10.103,2.373,0
969,35.469,-97.502,323.4,33.181,9,345,-0.128,10.886,1.771,0
970,35.469,-97.502,323,33.995,9,347,-1.101,10.521,1.883,0
971,35.469,-97.503,322.4,33.863,9,348,-1.243,10.426,2.295,0
972,35.469,-97.503,322.6,33.46,9,349,-1.273,10.351,2.541,0
973,35.47,-97.503,321.7,32.502,9,351,-1.413,10.538,2.141,0
974,35.47,-97.503,321.7,31.901,9,352,-1.1,10.618,1.051,0
975,35.47,-97.504,321.3,31.44,9,352,-1.338,10.395,1.681,0
976,35.47,-97.504,321.2,30.87,9,352,-1.315,10.426,2.573,0
977,35.47,-97.504,321.2,30.44,9,353,-1.279,10.114,2.326,0
978,35.471,-97.504,321.5,29.95,9,354,-1.185,10.316,2.552,0
979,35.471,-97.504,321.8,29.56,9,355,-1.221,10.546,2.118,0
980,35.471,-97.505,321.7,29.21,9,354,-1.29,10.657,2.117,0
981,35.471,-97.505,321.5,28.82,9,354,-1.273,10.624,2.214,0
982,35.471,-97.505,321.1,28.46,9,351,-1.207,10.568,2.319,0
983,35.472,-97.505,320.9,28.27,9,352,-1.242,9.867,2.727,0
984,35.472,-97.505,320.5,28.35,9,351,-1.133,10.505,2.341,0
985,35.472,-97.506,320.3,27.57,9,352,-1.294,10.378,2.214,0
986,35.472,-97.506,320.3,27.21,9,351,-1.266,10.479,2.311,0
987,35.472,-97.506,320.6,26.951,9,351,-1.117,10.299,2.375,0
988,35.473,-97.506,320.7,26.832,9,351,-0.993,10.431,2.439,0
989,35.473,-97.506,320.4,26.963,9,351,-1.218,10.421,2.235,0
990,35.473,-97.506,320.3,26.713,9,351,-1.136,10.348,2.307,0
991,35.473,-97.507,320.7,26.714,9,350,-0.8,10.541,2.366,0
992,35.473,-97.507,321,26.914,9,349,-0.76,10.562,2.365,0
993,35.474,-97.507,320.6,27.264,9,346,-0.85,10.664,2.467,0
994,35.474,-97.507,321.2,28.211,9,346,-1.06,10.418,2.53,0
995,35.474,-97.507,320.9,28.38,9,347,-1.248,10.56,3.191,0
996,35.474,-97.508,321.7,28.102,9,345,-0.913,10.636,3.416,0
997,35.474,-97.508,323.7,27.981,9,346,-0.839,10.462,3.334,0
998,35.475,-97.508,324.3,27.89,10,346,-0.977,10.178,3.262,0
999,35.475,-97.508,325.8,27.97,10,347,-1.078,10.22,2.986,0
1000,35.475,-97.508,329.7,27.84,10,348,-1.076,9.985,2.911,0
1001,35.475,-97.508,331.2,27.78,10,347,-0.996,10.012,2.9,0
1002,35.475,-97.509,333.1,27.62,10,347,-0.886,10.003,3.047,0
1003,35.476,-97.509,335,27.39,10,345,-0.869,10.242,3.15,0
1004,35.476,-97.509,337,27.381,10,345,-0.963,10.339,3.044,0
1005,35.476,-97.509,338.9,27.55,9,344,-1.121,10.286,3.046,0
1006,35.476,-97.509,340.8,27.52,9,341,-1.124,10.117,2.927,0
1007,35.477,-97.509,344.5,27.531,9,339,-1.278,10.177,2.959,0
1008,35.477,-97.509,346.3,27.421,9,338,-1.137,10.341,2.79,0
1009,35.477,-97.509,347.9,27.301,9,337,-0.961,10.497,3.002,0
1010,35.478,-97.509,349.8,27.32,9,337,-0.863,10.391,3.11,0
1011,35.478,-97.509,351.6,27.37,9,339,-0.806,10.376,2.952,0
1012,35.478,-97.509,351.7,27.281,9,338,-0.787,10.452,3.099,0
1013,35.478,-97.509,355.4,28.051,9,338,-0.934,10.379,2.997,0
1014,35.479,-97.509,356.3,27.25,9,337,-0.805,10.131,2.495,0
1015,35.479,-97.509,356.9,27.151,9,336,-0.794,10.456,2.464,0
1016,35.479,-97.51,357.1,27.2,9,336,-0.842,10.507,2.485,0
1017,35.479,-97.51,357,26.971,9,337,-0.892,10.273,2.207,0
1018,35.48,-97.51,356.9,26.95,9,337,-0.862,10.549,2.341,0
1019,35.48,-97.51,356.7,26.82,9,337,-0.877,10.308,2.528,0
1020,35.48,-97.51,356.5,26.75,9,337,-0.875,10.301,2.246,0
1021,35.48,-97.51,355.6,26.83,9,339,-0.917,10.554,2.277,0
1023,35.48,-97.51,354.8,26.84,9,339,-1.055,10.501,2.302,0
1023,35.48,-97.51,354.8,26.84,9,339,-1.055,10.501,2.302,0
1024,35.481,-97.51,354.2,26.65,9,339,-1.155,10.286,2.179,0
1025,35.481,-97.51,353.5,26.29,9,339,-1.223,10.592,2.374,0
1026,35.481,-97.51,352.8,25.95,9,339,-1.203,10.291,2.44,0
1027,35.481,-97.51,352.1,25.76,9,339,-0.982,10.51,2.568,0
1028,35.482,-97.51,351.7,25.8,9,339,-0.883,10.332,2.158,0
1029,35.482,-97.51,351,25.88,9,339,-0.82,10.551,2.336,0
1030,35.482,-97.51,350.4,25.89,9,339,-0.792,10.821,2.57,0
1031,35.482,-97.51,347.2,24.883,9,340,-0.851,10.521,2.412,0
1032,35.483,-97.51,348.8,25.59,9,340,-0.877,10.673,2.284,0
1033,35.483,-97.51,348.3,25.691,9,340,-0.86,10.581,2.133,0
1034,35.483,-97.51,347.3,25.532,9,341,-0.81,10.705,2.536,0
1035,35.483,-97.51,346.9,25.346,10,342,-0.725,10.338,2.476,0
1036,35.483,-97.51,346.7,25.213,10,343,-0.631,10.424,2.391,0
1037,35.484,-97.51,346.5,24.952,10,344,0.18,10.552,2.662,0
1038,35.484,-97.51,346.8,25.735,10,345,0.052,10.396,2.494,0
1039,35.484,-97.51,347.1,26.315,10,345,-0.029,10.553,2.705,0
1040,35.484,-97.511,347.4,26.732,9,346,-0.185,10.29,2.912,0
1041,35.485,-97.511,348.3,26.853,9,346,0.041,10.484,2.961,0
1042,35.485,-97.511,349,27.152,10,347,0.086,10.386,3.055,0
1043,35.485,-97.511,350,27.481,10,347,-0.017,9.931,2.756,0
1044,35.485,-97.511,350.8,27.8,10,348,0.445,10.391,2.82,0
1045,35.486,-97.511,352.1,28.31,9,349,-0.415,10.199,2.567,0
1046,35.486,-97.511,352.8,28.731,9,350,-1.338,10.317,2.676,0
1047,35.486,-97.511,353.4,28.363,9,351,-1.141,10.166,2.722,0
1048,35.486,-97.511,354.8,27.935,9,352,-1.339,10.394,2.916,0
1049,35.487,-97.511,356.2,27.224,9,353,-1.287,10.156,2.816,0
