time,lat,lng,bearing,spd,acc,alt,accx,accy,accz,stable,
0,35.434,-97.486,359.7,31.282,3,350,-0.546,0.169,9.989,0
1,35.434,-97.486,359.9,31.283,3,349,-0.567,-0.06,9.757,0
2,35.434,-97.486,0,31.262,3,348,-0.53,0.076,9.907,0
3,35.435,-97.486,0,31.241,3,349,-0.382,-0.191,10.204,0
4,35.435,-97.486,0.1,30.94,3,348,-0.34,-0.132,9.93,0
5,35.435,-97.486,359.5,30.461,3,349,-0.671,-0.053,10.139,0
6,35.436,-97.486,359.9,30.54,3,349,-0.981,-0.425,9.419,0
7,35.436,-97.486,0,30.921,3,349,-0.904,-0.465,9.498,0
8,35.436,-97.486,359.9,31.19,3,349,-0.56,-0.104,9.586,0
9,35.437,-97.486,0,31.08,3,349,-0.516,-0.103,9.985,0
10,35.437,-97.486,0.1,30.77,3,349,-0.39,-0.031,9.468,0
11,35.437,-97.486,0,30.44,3,348,-0.57,-0.256,10.307,0
12,35.438,-97.486,359.9,30.26,3,348,-0.623,-0.193,10.039,0
13,35.438,-97.486,0,30.29,3,348,-0.854,-0.234,9.743,0
14,35.438,-97.486,0.1,30.38,3,349,-0.812,-0.355,9.518,0
15,35.438,-97.486,359.9,30.61,3,349,-0.714,-0.403,9.398,0
16,35.439,-97.486,359.9,30.741,3,350,-0.619,-0.307,9.884,0
17,35.439,-97.486,359.8,30.9,3,350,-0.783,-0.281,9.512,0
18,35.439,-97.486,358.6,30.69,3,350,-0.554,-0.222,10.087,0
19,35.439,-97.486,0.1,30.98,3,349,-0.483,-0.407,10.192,0
20,35.44,-97.486,0,30.66,3,349,-0.307,-0.247,9.683,0
21,35.44,-97.486,359.8,30.46,3,349,-0.431,0.016,9.846,0
22,35.44,-97.486,359.9,30.08,3,349,-0.551,0.054,9.945,0
23,35.441,-97.486,359.9,29.91,3,349,-0.498,-0.2,9.608,0
24,35.441,-97.486,359.8,29.871,3,349,-0.694,-0.158,9.588,0
25,35.441,-97.486,0.1,29.77,3,344,-0.827,-0.068,9.612,0
26,35.441,-97.486,0.3,29.49,3,346,-0.527,-0.119,9.297,0
27,35.442,-97.486,0.3,29.47,3,348,-0.325,-0.137,9.645,0
28,35.442,-97.486,0.1,29.25,3,348,-0.379,-0.115,9.674,0
29,35.442,-97.486,0,29.03,3,349,-0.398,-0.293,9.576,0
30,35.442,-97.486,359.9,28.93,3,349,-0.134,-0.034,10.07,0
31,35.443,-97.486,359.8,28.671,3,348,-0.345,-0.038,8.347,0
32,35.443,-97.486,0.1,28.571,3,348,-0.358,-0.328,9.023,0
33,35.443,-97.486,0.2,28.671,3,348,-0.473,-0.037,9.763,0
34,35.443,-97.486,0.2,28.772,3,347,-0.52,-0.22,9.858,0
35,35.444,-97.486,359.9,28.751,3,347,-0.497,0.058,9.464,0
36,35.444,-97.486,359.5,28.682,3,346,-0.847,0.353,9.829,0
37,35.444,-97.486,359.5,28.553,3,345,-0.623,0.147,9.408,0
38,35.444,-97.486,358.8,28.493,3,345,-1.065,0.213,9.391,0
39,35.445,-97.486,357.8,28.532,3,344,-0.765,-0.449,9.937,0
40,35.445,-97.486,357.4,28.45,3,340,-0.838,-0.461,9.719,0
41,35.445,-97.486,356,29.51,3,342,-0.69,-0.289,9.643,0
42,35.446,-97.486,355,29.24,3,342,-0.456,-0.478,9.733,0
43,35.446,-97.486,354.1,29.36,3,342,-0.774,-0.323,9.364,0
44,35.446,-97.486,353.1,29.55,3,341,-0.697,-0.373,9.871,0
45,35.446,-97.486,352.3,29.66,3,341,-0.627,-0.15,9.834,0
46,35.447,-97.486,351.3,29.69,3,340,-0.397,-0.418,9.845,0
47,35.447,-97.486,350.1,29.71,3,340,-0.635,-0.213,9.779,0
48,35.447,-97.486,349,29.74,3,340,-0.293,-0.418,9.596,0
49,35.447,-97.487,348.1,29.75,3,340,-0.33,-0.073,9.641,0
50,35.448,-97.487,347.2,29.64,3,340,-0.396,-0.276,9.525,0
51,35.448,-97.487,346,29.56,3,340,-0.614,-0.425,9.519,0
52,35.448,-97.487,344.5,29.74,3,339,-0.446,-0.71,9.808,0
53,35.448,-97.487,343,29.971,3,338,-0.313,-0.063,9.711,0
54,35.449,-97.487,341.7,30.021,3,338,-0.712,-0.061,9.576,0
55,35.449,-97.487,341.3,29.961,3,338,-0.979,-0.003,9.442,0
56,35.449,-97.487,341.3,30.031,3,337,-0.793,-0.284,9.898,0
57,35.449,-97.487,340.7,30.21,3,337,-0.508,-0.49,9.588,0
58,35.45,-97.487,340.9,30.14,3,337,-0.923,-0.227,10.061,0
59,35.45,-97.487,340.5,29.71,3,337,-0.928,-0.275,9.707,0
60,35.45,-97.488,339,30,3,336,-0.737,-0.276,9.918,0
61,35.45,-97.488,339,31.031,3,336,-0.569,-0.126,9.647,0
62,35.451,-97.488,339.1,30.772,3,335,-0.622,0.102,9.616,0
64,35.451,-97.488,339.2,30.332,3,336,-0.27,0.077,10.182,0
64,35.451,-97.488,339.2,30.332,3,336,-0.27,0.077,10.182,0
65,35.451,-97.488,339.3,29.752,3,337,-0.47,0.573,10.271,0
66,35.451,-97.488,339.7,28.821,3,337,-0.34,-0.08,9.625,0
67,35.452,-97.488,339.9,28.061,3,337,-0.35,0.038,9.589,0
68,35.452,-97.488,339.8,27.592,3,338,-0.189,0.48,9.71,0
69,35.452,-97.489,339.9,27.082,3,339,-0.619,0.621,9.802,0
70,35.452,-97.489,341,25.913,3,339,-0.968,-0.109,9.309,0
71,35.453,-97.489,341.4,25.544,3,338,-1.573,-0.36,9.439,0
72,35.453,-97.489,341.7,25.903,3,339,-1.432,-0.254,9.39,0
73,35.453,-97.489,342.2,26.443,3,340,-1.128,-0.243,9.46,0
74,35.453,-97.489,342.5,26.812,3,340,-0.469,0.018,10.083,0
75,35.454,-97.489,342.7,26.851,3,341,-0.379,-0.005,9.946,0
76,35.454,-97.489,342.5,26.68,3,341,-0.288,-0.315,9.732,0
77,35.454,-97.489,341.3,26.1,3,341,0.1,0.438,9.263,0
78,35.454,-97.489,341.1,24.88,3,341,0.211,0.558,9.614,0
79,35.455,-97.489,340.7,24.101,3,341,-0.396,0.045,9.528,0
80,35.455,-97.49,340.8,23.971,3,341,-0.505,0.042,9.811,0
81,35.455,-97.49,341,24.182,3,340,-0.873,-0.459,9.957,0
82,35.455,-97.49,341,24.832,3,339,-1.006,-0.557,9.67,0
83,35.455,-97.49,340.8,25.603,3,339,-0.937,-0.678,9.613,0
84,35.456,-97.49,340.7,26.33,3,339,-0.907,-0.718,9.808,0
85,35.456,-97.49,340.9,27.21,3,338,-0.792,-0.759,9.435,0
86,35.456,-97.49,340.8,27.971,3,338,-0.889,-0.57,9.468,0
87,35.456,-97.49,340.7,28.712,3,337,-0.861,-1.015,9.241,0
88,35.457,-97.49,340.5,29.581,3,337,-1.088,-0.689,9.89,0
89,35.457,-97.49,340.4,30.321,3,337,-1.024,-0.548,9.922,0
90,35.457,-97.491,340.4,30.84,3,337,-1.155,-0.327,9.666,0
91,35.457,-97.491,340.4,31.38,3,336,-1.374,-0.371,9.913,0
92,35.458,-97.491,340.7,31.94,3,336,-1.603,-0.348,9.872,0
93,35.458,-97.491,341.1,32.421,3,337,-1.138,-0.278,9.26,0
94,35.458,-97.491,340.8,33.031,3,337,-1.466,-0.526,9.594,0
95,35.459,-97.491,341.1,33.511,3,338,-1.374,-0.483,9.46,0
96,35.459,-97.491,341.2,33.891,3,338,-0.558,0.281,9.264,0
97,35.459,-97.491,341.5,33.251,3,336,-1.029,0.134,8.38,0
98,35.459,-97.492,341.5,32.901,3,336,-0.606,0.284,9.654,0
99,35.46,-97.492,341.8,32.37,3,337,0.463,0.112,9.416,0
100,35.46,-97.492,341.9,31.84,3,337,0.071,-0.22,10.494,0
101,35.46,-97.492,341.6,31.281,3,338,-0.331,-0.29,11.099,0
102,35.46,-97.492,341.1,30.761,3,338,-0.373,0.284,9.865,0
103,35.461,-97.492,340.8,30.262,3,339,-0.484,0.32,9.974,0
104,35.461,-97.492,340.5,29.761,3,339,-0.173,0.657,10.189,0
105,35.461,-97.492,340.2,28.78,3,337,-0.169,0.128,10.338,0
106,35.461,-97.492,338.8,28.17,3,338,0.898,-0.184,9.353,0
107,35.462,-97.493,335.2,27.74,3,337,0.869,-0.763,9.571,0
108,35.462,-97.493,330.6,27.361,3,337,0.506,-0.92,9.949,0
109,35.462,-97.493,326.8,27.211,3,337,0.2,-0.845,10.184,0
110,35.462,-97.493,323.6,27.61,3,337,0.073,-0.736,9.917,0
111,35.463,-97.493,319.2,27.451,3,338,0.495,-0.938,9.264,0
112,35.463,-97.493,314.8,26.712,3,339,0.278,-0.88,9.365,0
113,35.463,-97.494,310.6,26.78,3,339,0.229,-0.57,9.883,0
114,35.463,-97.494,307.1,26.48,3,340,0.005,-1.209,9.909,0
115,35.463,-97.494,303.2,26.69,3,339,-0.028,-1.345,9.673,0
116,35.463,-97.494,299.9,27.24,3,339,-0.241,-1.426,9.279,0
117,35.463,-97.495,296.9,27.84,3,339,-1.108,-0.954,10.761,0
118,35.463,-97.495,295.2,28.71,3,337,-1.616,-0.534,9.704,0
119,35.464,-97.495,295.5,29.62,3,337,-1.411,-0.682,9.459,0
120,35.464,-97.496,295.4,30.51,3,338,-1.17,-0.404,9.941,0
121,35.464,-97.496,295.5,31.08,3,338,-1.144,-0.244,10.136,0
122,35.464,-97.496,295.8,31.44,3,338,-0.934,0.132,9.678,0
123,35.464,-97.497,296.1,31.59,3,338,-0.621,0.112,9.792,0
124,35.464,-97.497,296.3,31.36,3,338,-0.454,0.123,9.294,0
125,35.464,-97.497,296.5,31.16,3,338,-0.791,0.193,9.727,0
126,35.464,-97.497,297.2,31.13,3,338,-1.56,0.57,9.55,0
127,35.465,-97.498,299.3,31.27,3,337,-1.784,0.511,9.525,0
128,35.465,-97.498,302.1,31.61,3,337,-1.83,0.306,9.79,0
129,35.465,-97.498,304.8,31.941,3,338,-1.72,0.257,9.696,0
130,35.465,-97.499,307.2,32.331,3,338,-1.761,0.251,10.103,0
131,35.465,-97.499,309.6,32.86,3,338,-1.805,0.383,10.178,0
132,35.465,-97.499,312.1,33.26,3,338,-1.547,0.617,9.906,0
133,35.466,-97.499,314.6,33.52,3,338,-1.995,1.075,10.255,0
134,35.466,-97.5,317.1,33.13,3,338,-0.882,1.136,8.966,0
135,35.466,-97.5,318.9,32.68,3,337,-1.757,0.941,9.39,0
137,35.466,-97.5,321.1,32.28,3,338,-1.268,0.752,10.495,0
137,35.466,-97.5,321.1,32.28,3,338,-1.268,0.752,10.495,0
138,35.467,-97.5,323.2,31.961,3,339,-0.76,0.381,9.334,0
139,35.467,-97.501,324.6,31.61,3,340,-0.381,-0.056,9.782,0
140,35.467,-97.501,324.5,31.471,3,340,-0.495,-0.068,10.126,0
141,35.467,-97.501,324.5,31.092,3,341,-0.577,0.002,9.067,0
142,35.467,-97.501,324.5,30.765,3,342,-0.178,0.068,8.722,0
143,35.468,-97.501,324.7,30.605,3,342,-0.042,-0.183,9.944,0
144,35.468,-97.502,324.8,30.256,3,343,-0.304,0.087,9.927,0
145,35.468,-97.502,324.8,29.675,3,344,-0.395,-0.134,9.92,0
146,35.468,-97.502,324.9,29.293,3,345,-1.351,-0.379,9.338,0
147,35.469,-97.502,324.9,28.915,3,346,-0.703,-0.597,8.959,0
148,35.469,-97.502,324.7,29.063,3,346,-0.507,-0.783,9.096,0
149,35.469,-97.502,323.7,29.233,3,347,-0.477,-0.999,9.826,0
150,35.469,-97.503,322.8,29.622,3,347,-0.655,-0.609,10.063,0
151,35.47,-97.503,321.9,30.091,3,348,-0.605,-0.41,9.77,0
152,35.47,-97.503,321.6,29.991,3,348,-0.533,-0.103,9.752,0
153,35.47,-97.504,321.5,29.711,3,348,-0.086,-0.351,8.972,0
154,35.47,-97.504,321.1,29.64,3,348,-0.369,-0.408,9.636,0
155,35.47,-97.504,320.6,29.75,3,348,-0.543,-0.339,9.722,0
156,35.471,-97.504,320.3,29.94,3,348,-0.593,-0.329,9.52,0
157,35.471,-97.504,320.4,30.23,3,344,-0.864,-0.233,9.666,0
158,35.471,-97.505,320.5,30.43,3,346,-0.552,-0.217,9.539,1
159,35.471,-97.505,320.4,30.36,3,347,-0.524,0.034,9.82,0
160,35.472,-97.505,320.4,30.27,3,347,-0.827,0.17,9.668,0
161,35.472,-97.505,320.5,30.14,3,348,0.027,0.541,10.091,0
162,35.472,-97.505,320.4,29.78,3,348,-0.594,0.493,10.23,0
163,35.472,-97.506,320.2,29.57,3,347,-0.223,-0.025,10.021,0
164,35.472,-97.506,320.3,29.561,3,347,-0.491,-0.105,9.697,0
165,35.473,-97.506,320.4,29.852,3,347,-0.797,-0.246,9.044,0
166,35.473,-97.506,320.7,30.404,3,347,-0.527,-0.452,9.607,0
167,35.473,-97.506,320.4,30.904,3,346,-0.543,-0.199,9.228,0
168,35.473,-97.507,320.4,31.188,3,345,-0.443,-0.131,9.916,0
169,35.473,-97.507,320.3,31.383,3,344,-0.457,0.014,10.052,0
170,35.474,-97.507,320.5,31.363,3,344,-0.359,0.013,9.838,0
171,35.474,-97.507,320.6,31.691,3,343,-0.543,0.512,9.781,0
172,35.474,-97.508,321.4,31.555,3,342,-1.043,0.72,10.162,0
173,35.474,-97.508,323.6,31.402,3,342,-1.195,0.769,10.263,0
174,35.475,-97.508,324.2,31.4,3,341,-1.111,0.913,10.007,0
175,35.475,-97.508,325.5,31.44,3,342,-1.169,0.832,9.641,0
176,35.475,-97.508,330.1,30.61,3,342,-1.237,0.614,9.777,0
177,35.475,-97.508,332.1,30.51,3,342,-0.966,0.646,9.253,0
178,35.476,-97.509,333.8,30.25,3,342,-0.881,0.712,9.467,0
179,35.476,-97.509,335.5,30.06,3,342,-0.791,0.678,9.8,0
180,35.476,-97.509,337.3,29.74,3,342,-0.836,0.795,9.686,0
181,35.476,-97.509,339.2,29.512,3,341,-1.056,0.641,9.831,0
182,35.477,-97.509,341.3,29.392,3,341,-1.295,0.655,9.845,0
183,35.477,-97.509,343.6,29.492,3,340,-1.289,0.712,9.812,0
184,35.477,-97.509,345.8,29.541,3,340,-1.167,0.407,9.694,0
185,35.477,-97.509,347.7,29.843,3,340,-1.346,0.213,9.965,0
186,35.478,-97.509,349.6,30.19,3,340,-1.448,0.157,9.828,0
187,35.478,-97.509,351.7,30.64,3,340,-1.25,-0.026,9.656,0
188,35.478,-97.509,352.1,30.97,3,340,-1.409,0.23,9.711,0
189,35.478,-97.509,355.2,30.7,3,340,-1.158,-0.076,9.742,0
190,35.479,-97.509,356.6,31.601,3,341,-1.044,-0.307,9.593,0
191,35.479,-97.509,357,32.011,3,342,-1.037,-0.532,9.408,0
192,35.479,-97.51,356.9,32.591,3,343,-0.949,-0.718,9.332,0
193,35.48,-97.51,356.7,33.17,3,343,-0.988,-0.38,9.199,0
194,35.48,-97.51,356.5,33.72,3,344,-0.688,-0.172,9.584,0
195,35.48,-97.51,356.1,33.88,3,343,-0.606,-0.121,9.532,0
196,35.48,-97.51,355.3,33.99,3,343,-0.145,-0.165,9.776,1
197,35.481,-97.51,354.4,33.83,3,343,-0.169,-0.06,9.938,1
198,35.481,-97.51,353.3,33.54,3,343,-0.469,0.183,9.977,0
199,35.481,-97.51,352.5,33.23,3,342,-0.456,0.252,9.994,0
200,35.482,-97.51,351.9,32.96,3,342,-0.227,-0.023,9.91,0
201,35.482,-97.51,351.1,32.79,3,342,-0.161,0.006,10.021,0
202,35.482,-97.51,350,32.71,3,342,-0.292,-0.261,9.869,0
203,35.483,-97.51,350.2,33.17,3,342,-0.536,-0.063,9.827,0
204,35.483,-97.51,348.3,32.15,3,342,-0.598,0.132,9.982,0
205,35.483,-97.51,347.6,32.045,3,343,-0.559,-0.014,10.095,0
207,35.483,-97.51,347.1,31.696,3,344,-0.697,-0.257,9.6,0
207,35.483,-97.51,347.1,31.696,3,344,-0.697,-0.257,9.6,0
208,35.484,-97.51,346.7,31.496,3,344,-0.762,-0.111,9.635,0
209,35.484,-97.51,346.5,31.446,3,345,-0.854,0.133,9.327,0
210,35.484,-97.51,346.8,31.186,3,346,-0.925,0.096,9.861,0
211,35.484,-97.511,347.7,31.035,3,347,-0.927,0.329,9.636,0
212,35.485,-97.511,348.9,30.606,3,348,-0.808,0.256,9.111,0
213,35.485,-97.511,350.1,30.257,3,349,-0.654,0.44,9.981,0
214,35.485,-97.511,350.8,29.948,3,350,-0.785,0.124,9.47,0
215,35.486,-97.511,351.9,29.727,3,351,-1.648,0.291,10.675,0
216,35.486,-97.511,353,29.327,3,352,-0.87,0.398,9.829,0
217,35.486,-97.511,353.9,28.917,3,353,-0.398,0.482,9.458,0
218,35.486,-97.511,354.7,28.316,3,354,-1.097,0.23,9.685,0
219,35.487,-97.511,355.6,27.875,3,355,-0.801,0.305,9.554,0
220,35.487,-97.511,356.9,27.523,3,356,-0.717,0.31,9.967,0
221,35.487,-97.511,358.5,26.861,3,357,-1.034,0.166,10.015,0
222,35.488,-97.511,359.1,26.961,3,358,-0.862,-0.238,9.597,0
223,35.488,-97.511,359.5,27.221,3,359,-1.171,-0.131,9.601,0
224,35.488,-97.511,359.9,27.6,3,359,-0.862,-0.264,9.633,0
225,35.488,-97.511,359.9,28.02,3,359,-1.025,-0.016,9.552,0
226,35.489,-97.511,0.1,28.49,3,354,-0.346,-0.17,9.174,0
227,35.489,-97.511,0.2,28.94,3,356,-1.151,0.046,9.048,0
228,35.489,-97.511,0,29.39,3,357,-0.837,-0.361,9.431,0
229,35.489,-97.511,358.5,29.9,3,357,-0.21,-0.973,9.764,0
230,35.49,-97.511,356.3,30.4,3,357,-0.422,-1.097,10.03,0
231,35.49,-97.511,354.3,30.88,3,357,0.087,-0.727,9.709,0
232,35.49,-97.511,352.2,31.18,3,357,-0.332,-0.422,9.89,0
233,35.49,-97.511,350.8,31.27,3,357,-0.415,-0.336,10.085,0
234,35.491,-97.511,349,31.42,3,357,-0.359,-0.709,10.221,0
235,35.491,-97.511,347,31.49,3,357,-0.035,-0.277,9.501,0
236,35.491,-97.511,345,31.55,3,357,0.243,-0.214,9.384,0
237,35.492,-97.511,343.4,31.47,3,357,-0.255,-0.048,9.263,0
238,35.492,-97.512,342,31.4,3,356,-0.155,-0.344,9.326,0
239,35.492,-97.512,340,31.32,3,356,-0.092,-0.752,10.059,0
240,35.492,-97.512,338,31.36,3,356,0.305,-0.611,9.74,0
241,35.493,-97.512,335.8,31.311,3,356,-0.271,0.07,10.343,0
242,35.493,-97.512,334.7,31.09,3,355,-0.429,0.171,9.827,0
243,35.493,-97.512,334.4,30.85,3,355,-0.106,0.872,9.666,0
244,35.493,-97.512,334.3,29.951,3,354,0.11,1.206,9.699,0
245,35.494,-97.513,334.5,28.581,3,354,-0.291,0.324,9.926,0
246,35.494,-97.513,334.8,28.151,3,354,-0.855,0.393,10.182,0
247,35.494,-97.513,335.4,28.103,3,353,-0.456,0.404,9.82,0
248,35.494,-97.513,335.9,28.093,3,352,-0.948,0.686,10.185,0
249,35.495,-97.513,337.9,28.094,3,351,-0.912,0.764,9.893,0
250,35.495,-97.513,340,28.116,3,351,-0.87,0.477,10.081,0
251,35.495,-97.513,341.2,28.237,3,350,-0.487,0.348,9.501,0
252,35.495,-97.513,342.6,28.377,3,349,-0.751,0.541,9.571,0
253,35.495,-97.513,344.5,28.377,3,350,-0.987,0.793,9.749,0
254,35.496,-97.513,346.3,28.357,3,348,-0.7,0.724,10.004,0
255,35.496,-97.514,348,28.307,3,347,-0.698,0.535,9.741,0
256,35.496,-97.514,349.4,28.245,3,346,-0.62,1.068,10.867,0
257,35.496,-97.514,351.3,28.155,3,345,-1.16,0.748,10.028,0
258,35.497,-97.514,353.2,28.047,3,344,-0.394,0.63,9.584,0
259,35.497,-97.514,355,27.988,3,342,-1.049,0.986,9.529,0
260,35.497,-97.514,357.2,28.136,3,342,-1.039,0.593,10.146,0
261,35.497,-97.514,359,28.124,3,341,-0.252,0.437,9.566,0
262,35.498,-97.514,359.6,28.075,3,340,-0.366,0.137,9.869,0
263,35.498,-97.514,359.2,28.026,3,339,-0.074,0.08,10.045,0
264,35.498,-97.514,358.5,27.965,3,339,-0.085,0.176,9.718,0
265,35.498,-97.514,358,27.862,3,338,-0.238,0.087,10.083,0
266,35.499,-97.514,358.1,27.711,3,338,-0.303,0.293,9.976,0
267,35.499,-97.514,358,27.491,3,338,-0.352,0.356,10.004,0
268,35.499,-97.514,358.2,27.21,3,338,-0.179,0.469,9.917,0
269,35.499,-97.514,358.2,26.53,3,338,-0.351,0.23,9.646,0
270,35.5,-97.514,358.2,26.17,3,337,-0.281,0.21,9.856,0
271,35.5,-97.514,358.2,25.89,3,337,-0.384,0.179,9.953,0
272,35.5,-97.514,358.2,25.55,3,341,0.066,0.563,9.808,0
273,35.5,-97.514,358.1,25.24,3,340,0.146,1.037,9.683,0
274,35.501,-97.514,358,24.29,3,339,0.509,1.318,10.216,0
275,35.501,-97.514,358.1,22.84,3,338,1.05,1.905,9.74,0
277,35.501,-97.514,357.9,20.62,3,338,1.274,2.175,10.195,0
277,35.501,-97.514,357.9,20.62,3,338,1.274,2.175,10.195,0
278,35.501,-97.514,358.1,17.89,3,338,1.418,2.244,10.322,0
279,35.501,-97.514,358.2,14.93,3,337,-0.287,0.392,9.795,0
280,35.501,-97.514,358.1,13,3,337,-0.668,-0.202,9.78,0
281,35.502,-97.514,358.1,12.6,3,337,-0.721,-0.243,9.591,0
282,35.502,-97.514,358.2,12.8,3,337,1.058,1.632,9.944,0
283,35.502,-97.514,358.3,12.76,3,337,1.733,2.552,10.54,0
284,35.502,-97.514,358.1,10.42,3,337,1.076,1.805,10.118,0
285,35.502,-97.514,358,7.03,3,337,-0.382,0.205,9.957,0
286,35.502,-97.514,358.1,4.7101,3,337,0.468,1.321,10.121,0
287,35.502,-97.514,357.8,3.8301,3,337,0.657,1.46,10.12,0
288,35.502,-97.514,357.8,2.4002,3,337,-0.01,0.775,9.97,0
289,35.502,-97.514,357.8,0.26077,3,337,-1.332,-0.955,9.367,1
290,35.502,-97.514,357.9,0.95131,3,337,-0.867,-0.416,9.725,1
291,35.502,-97.514,358,1.7229,3,337,-0.823,-0.199,9.8,1
292,35.502,-97.514,358,1.8902,3,337,-0.538,0.115,9.495,0
293,35.502,-97.514,358,1.65,3,337,-0.776,-0.23,9.578,0
294,35.502,-97.514,358,1.86,3,337,-0.752,-0.208,9.699,1
295,35.502,-97.514,357.9,2.06,3,337,-0.434,0.11,9.934,0
296,35.502,-97.514,357.8,1.9912,3,337,-0.678,-0.214,9.77,0
297,35.502,-97.514,357.8,2.1001,3,337,-0.689,-0.207,9.657,0
298,35.502,-97.514,357.8,2.26,3,337,-0.595,-0.197,9.737,1
299,35.502,-97.514,357.8,2.361,3,337,-0.651,-0.176,9.895,1
300,35.502,-97.514,357.8,2.361,3,338,-0.74,-0.259,9.561,1
301,35.502,-97.514,358,2.82,3,337,-1,-0.643,9.709,1
302,35.502,-97.514,358.2,3.34,3,338,-1.155,-0.834,9.568,1
303,35.502,-97.514,358.5,3.8813,3,338,-1.262,-0.856,9.57,1
304,35.502,-97.514,359.1,4.6835,3,339,-1.135,-0.885,9.531,1
305,35.502,-97.514,359.6,5.4911,3,338,-0.634,-0.021,9.782,1
306,35.502,-97.514,359.5,5.9441,3,339,-0.514,0.021,9.599,0
307,35.502,-97.514,358.7,6.0505,3,339,-0.364,-0.06,9.756,1
308,35.503,-97.514,358.1,6.0303,3,339,-0.297,0.094,9.599,0
309,35.503,-97.514,358,5.73,3,340,-0.329,0.281,9.805,0
310,35.503,-97.514,357.6,5.07,3,340,-0.481,0.041,9.789,0
311,35.503,-97.514,357.9,4.74,3,339,-0.523,0.044,9.714,1
312,35.503,-97.514,358,4.58,3,340,-0.506,0.108,9.801,1
313,35.503,-97.514,358.5,4.4102,3,339,-0.592,-0.121,9.64,1
314,35.503,-97.514,358.4,4.42,3,339,-0.511,0.04,9.805,1
315,35.503,-97.514,358.8,4.3702,3,339,-0.736,-0.239,9.679,1
316,35.503,-97.514,359.2,4.4314,3,339,-0.402,0.274,9.826,1
317,35.503,-97.514,359.1,4.7205,3,339,-0.172,0.425,9.913,0
318,35.503,-97.514,358.9,4.3,3,339,0.327,0.989,9.904,0
319,35.503,-97.514,358.9,3.26,3,338,-0.588,-0.103,9.713,0
320,35.503,-97.514,358.9,2.54,3,338,-0.552,-0.114,9.759,1
321,35.503,-97.514,358.9,2.452,3,337,-0.694,-0.005,10.017,0
322,35.503,-97.514,358.8,2.5903,3,338,-0.56,-0.083,9.571,1
323,35.503,-97.514,358.7,2.5158,3,338,-0.484,-0.057,9.611,1
324,35.503,-97.514,358.7,2.4805,3,339,-0.681,-0.149,9.752,1
325,35.503,-97.514,358.6,2.4025,3,339,-0.677,-0.087,9.819,1
326,35.503,-97.514,358.6,2.4705,3,339,-0.723,-0.049,9.68,1
327,35.503,-97.514,358.5,2.54,3,339,-0.566,-0.102,9.652,1
328,35.503,-97.514,358.5,2.59,3,339,-0.611,-0.09,9.671,1
329,35.503,-97.514,358.5,2.61,3,339,-0.632,-0.084,9.739,1
330,35.503,-97.514,358.5,2.6407,3,339,-0.849,-0.451,9.627,1
331,35.503,-97.514,358.5,2.9,3,339,-0.967,-0.588,9.313,1
332,35.503,-97.514,358.6,3.7201,3,339,-0.947,-0.378,9.646,1
333,35.503,-97.514,358.7,4.5902,3,339,-0.599,-0.093,9.745,1
334,35.503,-97.514,358.9,1.2981,3,339,-0.711,-0.082,9.764,1
335,35.503,-97.514,358.9,1.2981,3,339,-0.678,-0.074,9.737,0
336,35.503,-97.514,359.6,0.89275,6,338,-0.706,-0.43,9.592,0
338,35.503,-97.514,356.9,5.0817,4,338,-0.531,-0.005,9.816,0
338,35.503,-97.514,356.9,5.0817,4,338,-0.531,-0.005,9.816,0
339,35.504,-97.514,358.5,5.34,4,338,-0.516,0.095,9.826,0
340,35.504,-97.514,359.3,5.58,4,338,0.149,0.765,9.977,0
341,35.504,-97.514,359.2,5.2716,3,338,0.276,0.824,9.842,0
342,35.504,-97.514,359.1,4.41,3,338,-0.233,0.437,9.812,0
343,35.504,-97.514,357.7,3.6101,3,338,-0.279,0.305,9.771,0
344,35.504,-97.514,359.1,2.8204,3,338,-0.686,-0.308,9.653,0
345,35.504,-97.514,359.1,2.2208,3,339,-0.659,-0.258,9.473,0
346,35.504,-97.514,359,2.15,3,339,-0.605,-0.226,9.821,0
347,35.504,-97.514,358.9,2.2411,3,339,-0.702,-0.178,9.519,0
348,35.504,-97.514,358.8,2.2801,3,339,-0.159,0.244,9.868,0
349,35.504,-97.514,358.7,2.39,3,339,-0.703,-0.194,9.669,0
350,35.504,-97.514,358.7,2.2811,3,339,-0.65,-0.195,9.788,1
351,35.504,-97.514,358.6,2.4205,3,339,-0.662,-0.153,9.728,0
352,35.504,-97.514,358.5,2.49,3,339,-0.219,0.399,10.09,0
353,35.504,-97.514,358.3,2.2502,3,339,-0.776,-0.238,9.768,0
354,35.504,-97.514,358.3,2.0301,3,338,-0.865,-0.542,9.657,1
355,35.504,-97.514,358.1,2.34,3,339,-2.133,-1.774,9.436,1
356,35.504,-97.514,358.1,3.2706,3,338,-1.611,-1.338,9.33,0
357,35.504,-97.514,358.1,4.3855,3,337,-0.629,-0.049,9.417,0
358,35.504,-97.514,357.9,4.8703,3,336,-0.648,-0.113,9.812,0
359,35.504,-97.514,358,4.9704,3,336,-1.25,-0.399,9.903,0
360,35.504,-97.514,357.9,5.2303,3,337,-0.66,0.08,9.995,0
361,35.504,-97.514,358.1,5.28,3,337,-0.561,0.096,9.721,0
362,35.504,-97.514,358,5.1902,3,337,-0.573,0.281,9.739,0
363,35.504,-97.514,358,4.8903,3,337,-0.453,0.366,9.602,0
364,35.504,-97.514,358.3,4.48,3,337,-0.614,0.248,9.912,0
365,35.504,-97.514,357.6,4.42,3,337,-0.681,0.258,9.782,0
366,35.504,-97.514,357.6,4.2502,3,336,-0.706,0.318,9.804,0
367,35.505,-97.514,358,4.1,3,337,-0.699,0.32,9.746,0
368,35.505,-97.514,358,3.9605,3,338,-1.014,-0.123,9.867,0
369,35.505,-97.514,357.9,3.9901,3,338,-0.871,0.063,9.796,1
370,35.505,-97.514,357.8,4.29,3,337,-0.755,0.316,9.858,0
371,35.505,-97.514,357.7,4.2802,3,337,-0.72,0.351,9.789,0
372,35.505,-97.514,357.6,4.22,3,337,-0.776,0.415,9.875,0
373,35.505,-97.514,357.3,4.011,3,337,-1.393,-0.458,9.493,0
374,35.505,-97.514,357.2,4.38,3,337,-0.853,0.365,9.937,0
375,35.505,-97.514,357,4.51,3,337,-0.842,0.36,9.926,0
376,35.505,-97.514,357,4.4401,3,337,-0.829,0.434,9.663,0
377,35.505,-97.514,356.9,4.3403,3,337,-0.775,0.417,9.614,0
378,35.505,-97.514,356.9,4.2101,3,336,-0.845,0.537,9.786,0
379,35.505,-97.514,356.9,4.04,3,336,-0.884,0.496,9.636,0
380,35.505,-97.514,357.2,3.91,3,336,-1.08,0.26,9.721,0
381,35.505,-97.514,357.3,4.0312,3,336,-0.968,0.547,9.699,0
382,35.505,-97.514,357.4,4.0602,3,336,-0.531,1.103,9.865,0
383,35.505,-97.514,357.4,3.79,3,336,-0.646,0.764,9.947,0
384,35.505,-97.514,357.4,2.9802,3,336,-0.762,0.871,9.682,0
385,35.505,-97.514,357.4,2.492,3,336,-1.003,0.491,9.707,0
386,35.505,-97.514,357.4,2.06,3,336,-0.637,0.852,9.667,0
387,35.505,-97.514,357.2,1.8,3,336,-1.008,0.478,9.548,0
388,35.505,-97.514,356.9,1.6903,3,336,-1.051,0.41,9.649,0
389,35.505,-97.514,356.5,1.7105,3,336,-0.995,0.438,9.891,0
390,35.505,-97.514,356.4,1.8407,3,336,-1.25,0.326,9.708,0
391,35.505,-97.514,356.4,2.0709,3,336,-1.142,0.319,9.625,1
392,35.505,-97.514,356.3,2.34,3,336,-1.071,0.406,9.895,0
393,35.505,-97.514,356.3,2.1901,3,336,-0.796,0.725,9.653,1
394,35.505,-97.514,356,2.5001,3,336,-0.824,0.662,9.714,0
395,35.505,-97.514,355.7,2.3601,3,337,-0.851,0.549,9.773,0
396,35.505,-97.514,355.4,2.15,3,337,-1.049,0.328,9.581,0
397,35.505,-97.514,355.2,2.14,3,337,-0.906,0.553,9.725,0
398,35.505,-97.514,355,2.2511,3,337,-0.97,0.397,9.606,0
399,35.505,-97.514,354.8,2.1704,3,337,-0.896,0.512,9.806,0
400,35.505,-97.514,354.7,2.1311,3,337,-0.987,0.452,9.588,0
401,35.505,-97.514,354.5,2.16,3,337,-1.121,0.318,9.474,0
402,35.506,-97.514,354.2,2.2414,3,338,-1.087,0.325,9.585,1
403,35.506,-97.514,353.9,2.4101,3,337,-1.038,0.407,9.756,0
404,35.506,-97.514,353.7,2.5903,3,338,-1.013,0.423,9.781,1
406,35.506,-97.514,353.6,2.71,3,338,-1.042,0.386,9.689,0
406,35.506,-97.514,353.6,2.71,3,338,-1.042,0.386,9.689,0
407,35.506,-97.514,353.3,2.7505,3,338,-0.978,0.443,9.785,0
408,35.506,-97.514,353.2,2.82,3,337,-0.977,0.436,9.862,0
409,35.506,-97.514,353.1,2.824,3,338,-0.952,0.498,9.731,0
410,35.506,-97.514,353,2.9401,3,338,-0.992,0.47,9.712,1
411,35.506,-97.514,352.9,2.9814,3,339,-0.612,0.933,9.844,0
412,35.506,-97.514,352.7,3.0301,3,340,-0.552,1,9.831,0
413,35.506,-97.514,352.6,2.6602,3,340,-0.84,0.536,9.777,0
414,35.506,-97.514,352.5,2.15,3,340,-0.968,0.435,9.699,0
415,35.506,-97.514,352.4,2.05,3,340,-0.994,0.295,9.726,0
416,35.506,-97.514,352.5,2.0712,3,340,-0.994,0.329,9.607,0
417,35.506,-97.514,352.6,2.2506,3,340,-0.828,0.404,9.788,0
418,35.506,-97.514,352.5,2.38,3,340,-0.757,0.65,10.028,0
419,35.506,-97.514,352.5,2.3602,3,340,-0.788,0.549,9.705,0
420,35.506,-97.514,352.5,2.02,3,340,-0.874,0.304,10.061,0
421,35.506,-97.514,352.4,1.84,3,341,-1.059,0.18,9.726,0
422,35.506,-97.514,352.4,2.0104,3,340,-1.007,0.232,9.9,0
423,35.506,-97.514,352.5,2.3108,3,341,-0.674,0.68,9.701,0
424,35.506,-97.514,352.5,2.2006,3,341,-0.716,0.536,9.874,0
425,35.506,-97.514,352.4,1.7407,3,341,-1.038,0.312,9.78,0
426,35.506,-97.514,352.4,1.9,3,341,-1.02,0.061,9.577,1
427,35.506,-97.514,352.4,2.1901,3,341,-0.925,0.153,9.551,1
428,35.506,-97.514,352.3,2.4502,3,341,-0.91,0.301,9.967,0
429,35.506,-97.514,352.2,2.63,3,341,-0.889,0.279,9.712,0
430,35.506,-97.514,352.1,2.7301,3,341,-0.787,0.292,9.916,0
431,35.506,-97.514,352.1,2.82,3,341,0.022,1.321,9.957,0
432,35.506,-97.514,352.3,2.4205,3,340,-0.937,0.134,9.797,1
433,35.506,-97.514,352.3,2.4002,3,340,-0.908,0.224,9.97,0
434,35.506,-97.514,352.2,2.571,3,341,-0.838,0.179,9.826,1
435,35.506,-97.514,352.1,2.75,3,340,-0.827,0.245,9.857,1
436,35.506,-97.514,352.1,2.8614,3,341,-0.854,0.289,9.805,0
437,35.506,-97.514,352.2,2.93,3,341,-0.75,0.229,9.649,1
438,35.506,-97.514,352.2,2.9801,3,341,-0.273,0.662,9.985,0
439,35.506,-97.514,352.2,2.8301,3,342,-0.358,0.71,9.926,0
440,35.506,-97.514,352.1,2.2301,3,342,-0.471,0.568,9.6,0
441,35.506,-97.514,352.1,1.7618,3,341,-0.146,0.869,10.306,0
442,35.506,-97.514,352.1,1.0907,3,341,-0.272,0.752,9.762,0
443,35.506,-97.514,352.1,1.0907,3,341,-1.102,-0.382,9.683,0
444,35.506,-97.514,352.1,1.0907,3,341,-0.927,-0.265,9.872,0
445,35.506,-97.514,352.1,0.78102,3,342,-0.911,-0.202,9.867,0
446,35.506,-97.514,352,1.28,3,342,-0.867,-0.195,9.484,0
447,35.506,-97.514,352,1.7207,3,342,-0.841,-0.007,9.541,0
448,35.506,-97.514,352,2.0601,3,342,-0.998,-0.302,9.717,1
449,35.506,-97.514,351.9,2.4121,3,342,-0.92,-0.282,9.462,0
450,35.506,-97.514,352,3.2905,3,342,-0.796,0.013,9.878,1
451,35.507,-97.514,352.1,4.1404,3,341,-0.997,-0.427,9.54,1
452,35.507,-97.514,352.2,4.53,3,341,-0.973,-0.381,9.69,1
453,35.507,-97.514,352.4,5.0708,3,342,-1.068,-0.352,9.832,1
454,35.507,-97.514,352.5,5.6401,3,342,-0.585,0.089,9.721,0
455,35.507,-97.514,352.5,5.88,3,342,-0.461,0.047,9.713,1
456,35.507,-97.514,352.5,5.85,3,343,-0.519,0.115,9.896,0
457,35.507,-97.514,352.5,5.7701,3,342,-0.475,0.076,9.576,0
458,35.507,-97.514,352.2,5.6404,3,342,-0.491,0.047,9.92,1
459,35.507,-97.514,352.1,5.4801,3,342,-0.172,0.537,9.844,0
460,35.507,-97.514,352.1,5.25,3,342,-0.033,0.687,9.87,0
461,35.507,-97.514,352.2,4.5907,3,341,-0.441,0.092,9.641,0
462,35.507,-97.514,352.2,3.921,3,341,-0.421,0.224,9.981,0
463,35.507,-97.514,352.2,3.67,3,341,-0.444,0.075,9.604,0
464,35.507,-97.514,352.3,3.46,3,340,-0.441,0.116,9.639,0
465,35.507,-97.514,352.3,3.23,3,340,-0.74,-0.245,9.479,0
466,35.507,-97.514,352.6,3.1704,3,340,-1.064,-0.744,9.693,0
467,35.507,-97.514,352.6,3.6105,3,340,-0.533,-0.074,9.734,0
468,35.507,-97.514,352.7,4.19,3,339,-0.535,-0.032,9.933,1
469,35.507,-97.514,352.7,4.14,3,339,-0.618,-0.064,9.782,0
471,35.507,-97.514,352.8,4.0221,3,339,-0.519,0.054,9.813,0
471,35.507,-97.514,352.8,4.0221,3,339,-0.519,0.054,9.813,0
472,35.507,-97.514,352.8,4.0001,3,339,-0.425,0.126,9.787,0
473,35.507,-97.514,352.7,3.9402,3,339,-0.095,0.686,10.147,0
474,35.507,-97.514,352.6,3.66,3,339,0.015,0.643,9.918,0
475,35.507,-97.514,352.4,2.87,3,338,-0.002,0.701,10.005,0
476,35.507,-97.514,352.3,1.9526,3,338,-0.304,0.285,9.931,0
477,35.507,-97.514,352.3,1.0904,3,338,-0.011,0.666,9.916,0
478,35.507,-97.514,352.3,1.0904,3,338,-0.6,-0.007,9.703,1
479,35.507,-97.514,352.3,1.0904,3,338,-0.604,0.031,9.762,1
480,35.507,-97.514,352.3,1.0904,3,338,-0.586,0.021,9.753,1
481,35.507,-97.514,352.3,1.0904,3,338,-0.871,-0.335,9.656,1
482,35.507,-97.514,352.3,1.0904,3,338,-0.838,-0.387,9.572,1
483,35.507,-97.514,352.3,1.0904,3,338,-0.833,-0.301,9.542,1
484,35.507,-97.514,351.8,1.2526,3,339,-0.789,-0.267,9.968,0
485,35.508,-97.514,351.7,1.61,3,338,-0.757,-0.285,9.436,0
486,35.508,-97.514,351.5,1.9904,3,338,-1.251,-0.865,9.713,1
487,35.508,-97.514,351.3,2.8221,3,339,-0.735,-0.06,9.604,1
488,35.508,-97.514,351.1,3.1001,3,339,-0.924,-0.338,9.792,0
489,35.508,-97.514,350.9,3.58,3,339,-1.003,-0.433,9.553,0
490,35.508,-97.514,350.8,4.21,3,339,-1.103,-0.458,9.763,1
491,35.508,-97.514,351.4,4.81,3,339,-0.867,-0.448,9.758,0
492,35.508,-97.514,351.7,5.3502,3,339,-0.512,-0.036,9.529,0
493,35.508,-97.514,351.8,5.5,3,338,-0.451,0.111,9.734,0
494,35.508,-97.514,351.9,5.42,3,338,-0.45,0.053,10.126,0
495,35.508,-97.514,351.8,5.2501,3,338,0.024,0.673,9.774,0
496,35.508,-97.514,351.7,4.6009,3,338,-0.16,0.435,9.821,0
497,35.508,-97.514,351.9,3.69,3,338,-0.347,0.418,9.792,0
498,35.508,-97.514,352.1,3.2202,3,338,-0.361,0.274,9.826,0
499,35.508,-97.514,352.1,3.05,3,338,-0.333,0.125,9.714,0
500,35.508,-97.514,352.3,2.8602,3,337,-0.553,0.064,9.777,0
501,35.508,-97.514,352.4,2.7615,3,337,-0.724,-0.33,9.929,1
502,35.508,-97.514,352.3,2.98,3,337,-0.54,-0.033,9.71,0
503,35.508,-97.514,352.4,3.09,3,337,-0.45,0.027,9.79,1
504,35.508,-97.514,352.4,3.0428,3,337,-0.056,0.547,9.784,0
505,35.508,-97.514,352.5,2.67,3,337,0.347,0.974,10.178,0
506,35.508,-97.514,352.6,1.81,3,337,0.109,0.942,9.941,0
507,35.508,-97.514,352.6,1.81,3,337,-0.569,-0.067,10.005,0
508,35.508,-97.514,352.6,1.81,3,337,-0.681,-0.236,9.635,0
509,35.508,-97.514,352.6,1.81,3,337,-0.503,0.075,9.764,0
510,35.508,-97.514,352.6,1.81,3,337,-0.52,0,9.852,1
511,35.508,-97.514,352.6,1.81,3,337,-0.51,0.031,9.721,1
512,35.508,-97.514,352.6,1.81,3,337,-0.875,-0.412,9.535,1
513,35.508,-97.514,352.6,0.39051,3,337,-0.791,-0.313,9.811,1
514,35.508,-97.514,352.5,0.85,3,337,-1.097,-0.644,9.628,1
515,35.508,-97.514,352.5,1.41,3,337,-0.758,-0.293,9.714,1
516,35.508,-97.514,352.5,2.012,3,338,-0.659,-0.248,9.744,1
517,35.508,-97.514,352.5,2.5301,3,338,-0.642,0.011,9.844,0
518,35.508,-97.514,352.4,2.8,3,338,-0.549,0.095,9.705,0
519,35.508,-97.514,352.2,2.8703,3,338,-0.441,0.091,9.64,0
520,35.508,-97.514,352,2.87,3,337,-0.469,0.091,9.468,0
521,35.508,-97.515,351.8,2.8625,3,338,-0.547,0.038,9.642,0
522,35.508,-97.515,351.8,2.76,3,338,-0.4,0.11,9.665,0
523,35.508,-97.515,351.8,2.76,3,338,-0.556,0.019,9.876,1
524,35.508,-97.515,351.8,2.79,3,338,-0.577,-0.03,9.874,0
525,35.508,-97.515,351.8,2.7802,3,338,-0.577,0.148,9.677,0
526,35.509,-97.515,351.7,2.8101,3,338,-0.482,0.072,9.808,1
527,35.509,-97.515,351.7,2.8602,3,338,-0.502,0.076,9.915,0
528,35.509,-97.515,351.7,2.9211,3,338,-0.478,0.069,9.811,0
529,35.509,-97.515,351.9,2.9114,3,338,-0.783,-0.291,9.743,1
530,35.509,-97.515,352.2,3.002,3,338,-0.782,-0.241,9.723,0
531,35.509,-97.515,352.3,3.4804,3,338,-0.662,-0.16,9.768,1
532,35.509,-97.515,352.5,3.8501,3,338,-0.487,0.008,9.821,1
534,35.509,-97.515,352.5,4.0421,3,339,-0.469,0.028,9.955,1
534,35.509,-97.515,352.5,4.0421,3,339,-0.469,0.028,9.955,1
535,35.509,-97.515,352.7,4.1302,3,339,0.431,1.123,9.777,0
536,35.509,-97.515,352.6,4.0401,3,339,0.218,0.846,9.988,0
537,35.509,-97.515,352.4,3.0106,3,339,-0.437,0.093,10.005,0
538,35.509,-97.515,352.3,2.21,3,338,-0.328,0.093,9.95,0
539,35.509,-97.515,352,2.2045,3,338,-0.597,-0.078,9.634,1
540,35.509,-97.515,351.9,2.2411,3,338,-0.483,-0.02,9.73,1
541,35.509,-97.515,351.7,2.41,3,338,-0.529,0.025,9.76,1
542,35.509,-97.515,351.8,2.5607,3,338,-0.56,0.172,9.949,0
543,35.509,-97.515,351.8,2.6505,3,338,-0.486,0.054,9.68,0
544,35.509,-97.515,351.8,2.73,3,338,-0.498,0.057,9.63,0
545,35.509,-97.515,351.8,2.8209,3,338,-0.435,0.072,9.895,0
546,35.509,-97.515,351.8,2.8804,3,338,-0.466,0.112,9.695,1
547,35.509,-97.515,351.8,2.9421,3,338,-0.449,0.074,9.794,1
548,35.509,-97.515,351.8,2.9603,3,338,-0.204,0.393,9.669,0
549,35.509,-97.515,351.9,2.7801,3,338,-0.545,0.087,9.836,0
550,35.509,-97.515,351.9,2.7418,3,338,-0.457,0.014,9.753,0
551,35.509,-97.515,351.9,2.84,3,338,-0.478,0.113,9.654,0
552,35.509,-97.515,351.8,2.9311,3,338,-0.516,0.151,9.924,0
553,35.509,-97.515,351.8,2.9604,3,337,-0.505,0.105,9.817,0
554,35.509,-97.515,351.7,2.9903,3,337,-0.497,0.106,9.745,0
555,35.509,-97.515,351.7,3.0628,3,337,-0.702,-0.089,9.751,0
556,35.509,-97.515,351.6,3.5611,3,337,-0.493,0.182,9.81,1
557,35.509,-97.515,351.6,3.6302,3,337,-1.132,-0.673,9.759,1
558,35.509,-97.515,351.7,4.21,3,337,-0.575,0.118,9.904,1
559,35.509,-97.515,351.8,4.5001,3,338,-1.017,-0.5,9.809,1
560,35.509,-97.515,352.1,5.0602,3,338,-1.214,-0.617,9.661,1
561,35.51,-97.515,352.4,5.9708,3,338,-0.452,-0.128,9.803,0
562,35.51,-97.515,352.4,6.3708,3,338,-0.754,-0.232,9.643,0
563,35.51,-97.515,352.4,6.8117,3,337,-0.515,0.037,9.882,0
564,35.51,-97.515,352.5,7.0121,3,337,-0.498,0.179,9.816,1
565,35.51,-97.515,352.4,7.1105,3,337,0.057,0.699,9.789,0
566,35.51,-97.515,352.4,6.9002,3,337,0.305,1.135,9.858,0
567,35.51,-97.515,352.5,5.4572,3,337,0.077,0.755,9.824,0
568,35.51,-97.515,352.5,4.753,4,337,0.371,1.2,10.014,0
569,35.51,-97.515,352.3,3.72,3,336,0.223,1.112,10.154,0
570,35.51,-97.515,352.1,3.2712,4,336,0.259,1.058,9.913,0
571,35.51,-97.515,352.2,2.9169,3,337,0.043,0.828,9.989,0
572,35.51,-97.515,352.2,2.9475,4,337,-0.42,0.215,9.636,0
573,35.51,-97.515,352.2,3.2235,4,337,-0.403,0.241,9.796,1
574,35.51,-97.515,352.2,3.1006,8,337,-0.861,-0.306,9.713,1
575,35.51,-97.515,357,0.74525,3,336,-0.733,-0.247,9.813,1
576,35.51,-97.515,357,0.74525,3,336,-0.697,-0.144,9.665,0
577,35.51,-97.515,352.1,1.0269,3,336,-0.632,-0.071,9.837,0
578,35.51,-97.515,352,1.3226,4,335,-0.861,-0.406,9.723,0
579,35.51,-97.515,351.9,1.118,9,334,-0.595,-0.011,9.461,0
580,35.51,-97.515,351.9,1.118,9,334,-0.432,0.246,9.565,1
581,35.51,-97.515,351.9,2.248,23,335,-0.439,0.215,9.691,1
582,35.51,-97.515,351.9,3.0827,30,335,-0.411,0.213,9.593,0
583,35.51,-97.515,352,3.121,4,335,-0.398,0.235,9.766,0
584,35.51,-97.515,352.1,3.1419,3,335,-0.455,0.187,9.687,1
585,35.51,-97.515,351.9,3.19,3,335,-0.55,0.265,9.694,0
586,35.51,-97.515,351.7,3.2404,3,335,-0.454,0.233,9.792,0
587,35.51,-97.515,351.5,3.3001,3,335,-0.846,-0.033,10.083,0
588,35.51,-97.515,351.4,3.4601,3,335,-0.785,-0.061,9.729,1
589,35.51,-97.515,351.5,3.8516,3,335,-0.616,0.141,9.794,0
590,35.51,-97.515,351.7,4.2807,3,334,-0.593,0.259,9.952,0
591,35.51,-97.515,351.8,4.45,3,334,-0.507,0.51,9.765,0
592,35.51,-97.515,352,4.55,3,334,-0.492,0.486,9.746,0
593,35.51,-97.515,352.1,4.33,3,335,-0.598,0.44,9.866,0
594,35.511,-97.515,352.3,4.171,3,334,-0.612,0.39,10.034,0
595,35.511,-97.515,352.2,4.1408,3,334,-0.603,0.481,9.891,0
596,35.511,-97.515,352.1,4.1402,3,334,-0.386,0.779,9.8,0
597,35.511,-97.515,352,3.9502,3,333,-0.572,0.461,10.061,0
598,35.511,-97.515,351.8,3.6223,3,333,-0.704,0.508,9.85,0
600,35.511,-97.515,351.7,3.49,3,333,-0.714,0.462,9.945,0
600,35.511,-97.515,351.7,3.49,3,333,-0.714,0.462,9.945,0
601,35.511,-97.515,351.5,3.4401,3,333,-0.657,0.473,9.813,0
602,35.511,-97.515,351.4,3.4101,3,333,-0.682,0.549,10.009,0
603,35.511,-97.515,351.3,3.36,3,333,-0.747,0.62,9.773,0
604,35.511,-97.515,351.2,3.3207,3,332,-0.759,0.476,9.802,0
605,35.511,-97.515,351.2,3.301,3,332,-0.763,0.52,9.747,0
606,35.511,-97.515,351.3,3.2901,3,332,-0.86,0.464,9.796,0
607,35.511,-97.515,351.3,3.3001,3,332,-0.991,0.299,9.773,0
608,35.511,-97.515,351.3,3.4009,3,331,-0.609,0.909,9.826,0
609,35.511,-97.515,351.3,3.6401,3,331,-0.854,0.547,9.656,0
610,35.511,-97.515,351.5,3.51,3,331,-0.784,0.591,9.72,0
611,35.511,-97.515,351.7,3.4002,3,331,-0.775,0.565,9.932,0
612,35.511,-97.515,351.9,3.3607,3,331,-0.856,0.662,9.794,1
613,35.511,-97.515,352.3,3.2601,3,332,-0.894,0.686,9.688,0
614,35.511,-97.515,352.1,3.2802,3,331,-0.853,0.611,9.796,0
615,35.511,-97.515,351.9,3.2915,3,331,-0.901,0.618,9.877,0
616,35.511,-97.515,351.6,3.31,3,331,-0.787,0.591,9.776,0
617,35.511,-97.515,351,3.3201,3,331,-0.928,0.656,9.713,0
618,35.511,-97.515,350.4,3.3404,3,331,-0.841,0.643,9.965,0
619,35.511,-97.515,350,3.35,3,331,-0.887,0.641,9.804,0
620,35.511,-97.515,349.8,3.3104,3,331,-0.885,0.713,9.767,0
621,35.511,-97.515,349.6,3.2801,3,331,-0.964,0.7,9.707,0
622,35.511,-97.515,349.5,3.2901,3,330,-0.972,0.661,9.939,0
623,35.511,-97.515,349.2,3.2901,3,330,-0.916,0.703,9.865,0
624,35.511,-97.515,349.1,3.3207,3,330,-0.894,0.684,9.845,0
625,35.511,-97.515,349,3.3101,3,330,-0.911,0.821,9.928,0
626,35.512,-97.515,348.6,3.291,3,330,-0.55,1.039,10.074,0
627,35.512,-97.515,348.2,2.85,3,330,-0.436,1.334,9.796,0
628,35.512,-97.515,348,2.255,3,330,-0.809,0.959,9.744,0
629,35.512,-97.515,347.9,1.6624,3,330,-0.857,0.841,9.916,0
630,35.512,-97.515,347.9,1.291,3,329,-1.143,0.374,9.559,0
631,35.512,-97.515,347.8,1.38,3,329,-1.052,0.545,9.745,1
632,35.512,-97.515,347.6,1.62,3,329,-1.139,0.389,9.775,1
633,35.512,-97.515,347.5,1.9621,3,329,-0.999,0.46,9.699,1
634,35.512,-97.515,347.4,2.32,3,328,-0.977,0.529,9.83,0
635,35.512,-97.515,347.4,2.561,3,328,-0.957,0.565,9.846,0
636,35.512,-97.515,347.5,2.67,3,328,-1.006,0.6,9.686,0
637,35.512,-97.515,347.5,2.8003,3,327,-0.976,0.645,9.899,1
638,35.512,-97.515,347.5,2.84,3,327,-1.016,0.577,9.566,1
639,35.512,-97.515,347.5,2.9102,3,327,-0.774,0.972,9.766,0
640,35.512,-97.515,347.5,2.71,3,326,-0.851,0.786,9.875,0
641,35.512,-97.515,347.3,2.4313,3,326,-0.865,0.851,9.625,0
642,35.512,-97.515,347.2,2.24,3,326,-0.713,0.983,9.857,0
643,35.512,-97.515,347,2.01,3,325,-0.643,1.014,9.857,0
644,35.512,-97.515,346.9,1.49,3,325,-1.01,0.616,9.626,0
645,35.512,-97.515,346.8,1.1102,3,325,-0.771,0.917,9.841,0
646,35.512,-97.515,346.7,1.0204,3,324,-1.123,0.444,9.696,1
647,35.512,-97.515,346.7,1.0204,3,324,-1.283,0.185,9.653,1
648,35.512,-97.515,346.4,0.9902,3,324,-1.215,0.285,9.757,0
649,35.512,-97.515,346.2,1.5412,3,325,-1.196,0.357,9.862,0
650,35.512,-97.515,345.9,1.9602,3,325,-0.562,1.132,9.608,0
651,35.512,-97.515,345.8,2.2302,3,325,-0.843,0.729,9.879,0
652,35.512,-97.515,345.8,1.781,3,325,-0.66,0.894,9.78,0
653,35.512,-97.515,345.7,1.4503,3,325,-0.914,0.573,9.806,0
654,35.512,-97.515,345.6,1.1207,3,324,-1.256,0.262,9.544,0
655,35.512,-97.515,345.5,1.32,3,324,-1.122,0.338,9.657,0
656,35.512,-97.515,345.5,1.7203,3,324,-1.17,0.433,9.93,0
657,35.512,-97.515,345.4,2.0535,3,324,-0.693,0.623,9.911,0
658,35.512,-97.515,345.5,2.1719,3,324,-0.781,0.822,9.672,0
659,35.512,-97.515,345.5,2.0302,3,323,-1.101,0.327,9.688,0
660,35.512,-97.515,345.5,2.02,3,323,-1.015,0.378,9.694,0
661,35.512,-97.515,345.6,2.2827,3,323,-0.978,0.417,9.754,0
662,35.512,-97.515,345.6,2.5101,3,323,-0.89,0.386,9.838,1
663,35.512,-97.515,345.6,2.6801,3,323,-0.861,0.583,9.792,0
664,35.512,-97.515,345.5,2.7705,3,323,-0.806,0.554,9.948,0
665,35.512,-97.515,345.4,2.6502,3,323,-0.847,0.489,9.8,0
666,35.512,-97.515,345.2,2.6227,3,323,-0.865,0.382,9.928,0
668,35.512,-97.515,345,2.6809,3,323,-0.762,0.503,9.926,0
668,35.512,-97.515,345,2.6809,3,323,-0.762,0.503,9.926,0
669,35.512,-97.515,344.9,2.75,3,324,-0.871,0.46,10.029,0
670,35.512,-97.515,344.8,2.7412,3,323,-0.832,0.351,9.761,0
671,35.512,-97.515,344.7,2.7903,3,323,-0.835,0.417,9.966,0
672,35.512,-97.515,344.7,2.8501,3,323,-0.82,0.409,9.729,0
673,35.512,-97.515,344.7,2.9108,3,324,-0.81,0.424,9.938,1
674,35.512,-97.515,344.8,2.9403,3,324,-0.723,0.381,9.672,0
675,35.512,-97.515,344.9,2.9101,3,324,-0.723,0.354,9.567,0
676,35.512,-97.515,345,2.9824,3,324,-0.904,0.138,9.688,0
677,35.512,-97.515,345,3.0401,3,323,-1.439,-0.547,9.532,0
678,35.513,-97.515,345,3.45,3,323,-0.818,0.161,9.771,1
679,35.513,-97.515,344.9,4.182,3,324,-0.769,0.274,9.689,0
680,35.513,-97.515,344.9,4.43,3,324,-0.651,0.303,9.736,1
681,35.513,-97.515,345,4.2214,3,324,-0.629,0.452,9.858,0
682,35.513,-97.515,345.1,4.21,3,324,-0.245,0.792,9.885,0
683,35.513,-97.515,345.1,3.3921,3,324,-0.255,0.625,9.874,0
684,35.513,-97.515,345.2,3.1806,3,323,-0.582,0.398,9.868,0
685,35.513,-97.515,345.3,3.0801,3,323,-0.55,0.29,9.787,0
686,35.513,-97.515,345.3,2.9606,3,324,-0.578,0.246,9.835,1
687,35.513,-97.515,345.3,2.8506,3,323,-0.542,0.229,9.655,0
688,35.513,-97.515,345.3,2.8001,3,324,-0.594,0.183,9.69,0
689,35.513,-97.515,345.3,2.8101,3,323,-0.627,0.202,9.609,0
690,35.513,-97.515,345.3,2.8302,3,323,-0.591,0.215,9.882,0
691,35.513,-97.515,345.3,2.8814,3,323,-0.598,0.027,9.656,1
692,35.513,-97.515,345.3,3.1113,3,323,-0.54,0.179,9.842,0
693,35.513,-97.516,345.2,3.1201,3,324,-0.544,0.132,9.822,0
694,35.513,-97.516,345.1,3.13,3,323,-0.654,-0.072,9.7,0
695,35.513,-97.516,345,3.2619,3,324,-0.497,0.081,9.771,0
696,35.513,-97.516,344.9,3.37,3,324,-1.295,-0.879,9.552,1
697,35.513,-97.516,344.8,4.03,3,325,-0.782,-0.229,9.708,0
698,35.513,-97.516,344.8,5.02,3,325,-0.638,-0.273,9.845,0
699,35.513,-97.516,344.8,5.28,3,325,-0.57,0.006,9.763,0
700,35.513,-97.516,344.9,5.4715,3,324,-0.563,-0.01,9.527,0
701,35.513,-97.516,344.9,5.5101,3,325,-0.507,0.117,9.727,1
702,35.513,-97.516,345.1,5.55,3,325,-0.468,-0.018,9.908,0
703,35.513,-97.516,345,5.5901,3,325,-0.426,0.019,9.87,0
704,35.513,-97.516,345,5.5801,3,326,-0.426,0.097,9.94,0
705,35.513,-97.516,344.9,5.55,3,325,-1.057,-0.564,9.55,0
706,35.514,-97.516,344.8,6.0202,3,326,-0.81,-0.374,9.921,0
707,35.514,-97.516,344.8,6.8001,3,325,-0.555,0.006,9.626,1
708,35.514,-97.516,344.7,7.0307,3,326,-0.928,-0.407,9.638,1
709,35.514,-97.516,344.7,7.221,3,325,-0.619,0.102,9.466,0
710,35.514,-97.516,344.7,7.58,3,325,-0.92,-0.371,9.884,0
711,35.514,-97.516,344.8,7.82,3,325,-0.539,-0.047,9.564,0
712,35.514,-97.516,344.9,8.1404,3,326,-0.653,-0.013,9.548,1
713,35.514,-97.516,344.8,8.25,3,325,-0.586,-0.038,9.737,0
714,35.514,-97.516,344.8,8.29,3,325,-0.441,0.089,9.63,0
715,35.514,-97.516,344.9,8.3504,3,325,-0.57,0.087,9.636,0
716,35.514,-97.516,344.9,8.3302,3,325,0.589,1.314,9.878,0
717,35.514,-97.516,344.9,8.0909,3,325,1.242,1.942,10.085,0
718,35.514,-97.516,345,6.09,3,325,-0.16,0.505,9.88,0
719,35.514,-97.516,345.1,3.66,3,325,0.189,0.932,9.879,0
720,35.514,-97.516,345.1,2.7102,3,325,-0.243,0.306,9.731,0
721,35.514,-97.516,345.1,2.0712,3,325,-0.149,0.475,9.678,0
722,35.514,-97.516,345.1,1.61,3,325,-0.229,0.38,9.734,0
723,35.514,-97.516,345.1,1.1463,3,324,-0.33,0.21,9.816,0
724,35.514,-97.516,345.1,1.1463,3,324,-0.049,0.567,9.883,1
725,35.514,-97.516,345.1,0.43105,3,324,-0.756,-0.219,9.71,1
726,35.514,-97.516,345.1,0.43105,3,324,-0.831,-0.341,9.585,1
727,35.514,-97.516,345.1,0.43105,3,324,-1.076,-0.757,9.627,1
728,35.514,-97.516,345.1,0.43105,3,324,-0.75,-0.253,9.703,1
729,35.514,-97.516,344.7,1.8845,3,324,-0.705,-0.157,9.736,1
730,35.514,-97.516,344.5,2.2711,3,324,-1.174,-0.903,9.492,0
732,35.515,-97.516,344.3,2.7102,3,324,-0.454,-0.104,9.903,1
732,35.515,-97.516,344.3,2.7102,3,324,-0.454,-0.104,9.903,1
733,35.515,-97.516,344.4,3.4912,3,324,-0.557,0.081,9.486,0
734,35.515,-97.516,344.3,3.682,3,324,-0.829,-0.505,9.981,0
735,35.515,-97.516,344.4,3.8301,3,325,-1.167,-0.815,9.442,0
736,35.515,-97.516,344.5,4.51,3,324,-1.196,-0.851,9.555,1
737,35.515,-97.516,344.7,5.4611,3,324,-1.031,-0.722,9.8,1
738,35.515,-97.516,345.2,6.7601,3,324,-0.592,0.159,9.69,0
739,35.515,-97.516,345.5,7.4405,3,324,-0.359,-0.118,9.728,0
740,35.515,-97.516,345.6,7.5302,3,324,-0.42,0.062,9.859,0
741,35.515,-97.516,345.6,7.5301,3,324,-0.379,0.035,9.846,0
742,35.515,-97.516,345,7.4715,3,324,-0.4,0.082,9.509,0
743,35.515,-97.516,344.7,7.4103,3,324,-0.428,-0.036,9.851,0
744,35.515,-97.516,344.7,7.36,3,324,-0.374,0.02,9.828,0
745,35.515,-97.516,344.8,7.35,3,324,-0.61,-0.316,9.611,0
746,35.515,-97.516,344.9,7.59,3,324,-0.787,-0.319,9.609,0
747,35.515,-97.516,345,7.99,3,325,-1.167,-0.439,9.741,1
748,35.515,-97.516,345.1,8.67,3,324,-1.119,-1.007,9.652,1
749,35.516,-97.516,345.2,9.6603,3,324,-0.937,-0.548,9.905,0
750,35.516,-97.516,345.4,10.49,3,324,-0.338,0.306,9.974,0
751,35.516,-97.516,345.4,10.43,3,324,-0.322,0.377,9.791,0
752,35.516,-97.516,345.4,10.12,3,325,-0.386,0.404,9.918,0
753,35.516,-97.516,345.5,9.7803,3,325,-0.205,0.098,9.41,0
754,35.516,-97.517,345.4,9.5309,3,324,-0.687,-0.481,9.497,0
755,35.516,-97.517,345.2,9.8606,3,324,-1.086,-0.674,9.788,0
756,35.516,-97.517,344.8,10.5,3,324,-0.205,0.199,10.03,0
757,35.516,-97.517,344.5,10.55,3,324,0.051,0.791,9.974,0
758,35.516,-97.517,344.5,10.012,3,324,0.516,1.336,10.031,0
759,35.516,-97.517,344.7,8.5643,3,323,0.419,1.352,9.981,0
760,35.517,-97.517,344.7,7.0516,3,323,0.578,1.333,9.916,0
761,35.517,-97.517,345.1,5.3402,3,323,0.129,0.921,9.827,0
762,35.517,-97.517,345.3,4.201,3,322,0.02,0.784,10.088,0
763,35.517,-97.517,345.4,3.2615,3,323,-0.296,0.415,9.739,0
764,35.517,-97.517,345.4,2.5801,3,323,-0.228,0.301,9.663,0
765,35.517,-97.517,345.4,2.3401,3,323,-0.146,0.472,9.995,0
766,35.517,-97.517,345.4,1.9313,3,323,-0.352,0.334,9.722,0
767,35.517,-97.517,345.4,1.5803,3,324,-0.458,0.03,9.817,1
768,35.517,-97.517,345.4,1.44,3,324,-0.283,0.44,9.835,0
769,35.517,-97.517,345.4,1.28,3,323,-0.288,0.38,9.729,0
770,35.517,-97.517,345.4,1.28,3,323,-0.324,0.285,9.705,1
771,35.517,-97.517,345.3,0.59211,3,323,-0.382,0.27,9.736,1
772,35.517,-97.517,345.3,0.59211,3,323,-0.531,-0.039,9.825,1
773,35.517,-97.517,345.3,0.59211,3,323,-0.321,0.327,9.781,1
774,35.517,-97.517,345.3,0.27857,3,323,-0.48,0.069,9.827,1
775,35.517,-97.517,345.3,0.27857,3,323,-0.887,-0.434,9.637,1
776,35.517,-97.517,345.3,0.27857,3,323,-0.784,-0.38,9.775,1
777,35.517,-97.517,345.3,0.95,3,323,-0.773,-0.263,9.634,1
778,35.517,-97.517,345.2,1.44,3,323,-0.727,-0.149,9.714,0
779,35.517,-97.517,345.2,1.8717,3,323,-0.771,-0.331,9.722,1
780,35.517,-97.517,345.1,2.2232,3,323,-1.27,-0.962,9.51,1
781,35.517,-97.517,345,3.14,3,323,-1.202,-0.659,9.689,1
782,35.517,-97.517,344.9,4.32,3,323,-1.011,-0.719,9.494,1
783,35.517,-97.517,345,5.2708,3,323,-0.511,0.02,9.796,0
784,35.517,-97.517,345,5.7201,3,323,-0.511,0.033,9.659,0
785,35.517,-97.517,345.2,5.8402,3,323,-0.501,0.189,9.774,1
786,35.517,-97.517,345.5,5.8301,3,323,-0.472,0.222,9.71,1
787,35.517,-97.517,345.7,5.8303,3,323,-0.395,0.098,9.904,0
788,35.517,-97.517,345.9,5.8312,3,324,-0.432,0.03,9.798,0
789,35.517,-97.517,345.8,5.8407,3,323,-0.958,-0.564,9.786,0
790,35.517,-97.517,345.5,5.8801,3,323,-0.599,-0.31,9.799,0
791,35.517,-97.517,345.2,6.58,3,323,-0.472,-0.057,9.647,0
792,35.517,-97.517,345.1,6.9201,3,323,-0.428,0.077,9.972,0
793,35.517,-97.517,344.9,7.0203,3,322,-0.439,0.139,9.403,0
794,35.518,-97.517,345.1,7.0806,3,322,-0.453,0.012,9.94,0
795,35.518,-97.517,345.2,7.1002,3,322,-0.399,0.016,9.912,0
796,35.518,-97.517,345.4,7.131,3,322,-0.319,0.001,9.81,0
798,35.518,-97.517,345.6,7.1618,3,321,-0.29,-0.018,10.035,0
798,35.518,-97.517,345.6,7.1618,3,321,-0.29,-0.018,10.035,0
799,35.518,-97.517,346,7.1906,3,321,-0.135,-0.18,9.748,0
800,35.518,-97.517,346.4,7.2202,3,321,-0.389,0.01,10.133,0
801,35.518,-97.517,346.8,7.2501,3,321,-0.177,-0.154,9.641,0
802,35.518,-97.517,347.2,7.2501,3,321,0.17,0.435,9.811,0
803,35.518,-97.517,347.6,7.0303,3,321,0.622,0.874,9.878,0
804,35.518,-97.517,348.1,6.4405,3,321,0.869,0.953,10.124,0
805,35.518,-97.517,348.3,5.2705,3,320,0.408,0.876,9.923,0
806,35.518,-97.517,348.8,3.8338,3,320,0.309,0.618,9.637,0
807,35.518,-97.517,349,2.6305,3,320,-0.154,-0.138,9.727,1
808,35.518,-97.517,349.1,1.92,3,320,-0.312,-0.465,9.806,0
809,35.518,-97.517,349.2,1.9213,3,321,-0.268,-0.292,9.708,1
810,35.518,-97.517,349.3,2.1124,3,321,-0.199,-0.185,9.575,1
811,35.518,-97.517,349.7,2.2903,3,321,-0.341,-0.227,9.945,1
812,35.518,-97.517,349.9,2.4201,3,321,-0.32,-0.235,9.723,1
813,35.518,-97.517,350.1,2.6403,3,321,-0.689,-0.805,9.424,1
814,35.518,-97.517,350.6,3.1523,3,321,-0.339,-0.544,9.751,1
815,35.518,-97.517,351.2,3.5803,3,320,-0.692,-0.821,9.856,1
816,35.518,-97.517,351.7,4.0301,3,320,-0.271,-0.194,9.531,1
817,35.518,-97.517,352.1,4.1503,3,320,-0.148,-0.147,9.796,1
818,35.518,-97.517,352.5,4.13,3,319,-0.11,-0.186,9.944,1
819,35.519,-97.517,352.8,4.1002,3,319,-0.08,-0.054,9.759,0
820,35.519,-97.517,353,4.0406,3,319,-0.054,-0.144,9.747,0
821,35.519,-97.517,353.1,4.0902,3,319,-0.254,-0.228,9.845,1
822,35.519,-97.517,353.5,4.4122,3,319,-0.791,-0.943,9.499,1
823,35.519,-97.517,353.7,5.1406,3,319,-0.879,-0.895,9.512,1
824,35.519,-97.517,354.1,5.8801,3,319,-0.4,-0.395,9.388,1
825,35.519,-97.517,354.6,6.26,3,319,-0.31,-0.303,9.66,1
826,35.519,-97.517,355.3,6.5802,3,319,-0.315,-0.157,9.768,1
827,35.519,-97.517,355.7,6.7003,3,319,-0.21,-0.364,9.892,0
828,35.519,-97.517,355.9,6.76,3,319,-0.586,-0.522,9.565,0
829,35.519,-97.517,356.2,7.14,3,320,-0.599,-0.14,9.337,0
830,35.519,-97.517,357,7.4101,3,320,-0.074,-0.299,9.327,0
831,35.519,-97.517,357.6,7.8211,3,319,-0.747,-0.653,9.677,0
832,35.519,-97.517,357.9,8.0901,3,318,-0.492,-0.23,9.65,1
833,35.519,-97.517,358.7,8.5201,3,318,-0.306,-0.297,9.746,0
834,35.519,-97.517,359.4,8.6803,3,318,-0.757,-0.575,9.386,0
835,35.519,-97.517,0.1,8.9701,3,318,-0.507,-0.58,9.734,0
836,35.52,-97.517,0.7,9.3402,3,318,-0.139,-0.159,9.546,0
837,35.52,-97.517,1.3,9.6203,3,318,-0.186,-0.232,9.763,0
838,35.52,-97.517,1.9,9.7203,3,317,-0.397,-0.014,9.756,0
839,35.52,-97.517,2.7,9.9408,3,317,-0.331,-0.115,9.869,0
840,35.52,-97.517,3.2,10.062,3,317,-0.316,-0.071,9.715,0
841,35.52,-97.517,4.2,10.07,3,317,-0.499,-0.274,9.818,0
842,35.52,-97.517,4.8,10.34,3,316,-0.418,-0.032,9.928,0
843,35.52,-97.517,5.7,10.43,3,316,-0.336,-0.027,9.838,0
844,35.52,-97.517,6.4,10.531,3,316,-0.37,-0.12,9.79,1
845,35.52,-97.517,7.5,10.55,3,315,-0.345,-0.113,10.019,0
846,35.52,-97.517,8.1,10.61,3,315,-0.372,-0.018,9.873,0
847,35.521,-97.517,8.8,10.681,3,315,0.465,1.102,10.241,0
848,35.521,-97.517,9.6,10.672,3,314,0.816,1.36,10.156,0
849,35.521,-97.517,10.5,9.2011,3,314,-0.302,0.046,9.908,0
850,35.521,-97.517,11.7,8.4004,3,313,-0.331,-0.158,9.716,0
851,35.521,-97.517,12,8.2401,3,313,-0.255,-0.036,9.739,1
852,35.521,-97.517,11.9,7.7226,3,313,-0.244,-0.14,9.807,0
853,35.521,-97.517,12.7,7.9802,3,313,-0.286,-0.072,9.7,0
854,35.521,-97.517,12.7,7.9001,3,313,-0.406,-0.058,9.75,0
855,35.521,-97.517,12.9,8.0906,3,315,-0.387,0.018,9.711,0
856,35.521,-97.517,12.9,8.05,3,314,-0.356,-0.02,9.764,0
857,35.521,-97.517,13.1,7.9902,3,313,-0.451,0.103,9.676,0
858,35.521,-97.517,13.5,8.0002,3,312,-0.581,-0.262,9.818,0
859,35.521,-97.517,13.6,8.0001,3,311,-0.668,-0.204,10.05,0
860,35.522,-97.517,13.6,8.3404,3,312,-0.702,-0.095,10.031,0
861,35.522,-97.517,14,8.2201,3,311,-0.728,-0.19,9.654,0
862,35.522,-97.517,14.5,8.56,3,311,-0.972,-0.516,9.796,0
863,35.522,-97.517,15.2,8.8803,3,311,-0.85,-0.724,9.628,0
865,35.522,-97.517,15.7,9.35,3,312,-0.758,-0.467,9.911,0
865,35.522,-97.517,15.7,9.35,3,312,-0.758,-0.467,9.911,0
866,35.522,-97.517,15.9,9.9002,3,312,-0.948,-0.694,9.672,0
867,35.522,-97.517,16.3,10.31,3,312,-0.906,-0.337,9.675,0
868,35.522,-97.517,16.6,10.94,3,313,-0.462,0.055,9.745,0
869,35.522,-97.517,17,11.241,3,313,-0.516,-0.001,9.689,0
870,35.522,-97.517,17.3,11.181,3,313,-0.704,-0.201,9.946,0
871,35.522,-97.517,17.6,11.33,3,313,-0.573,-0.03,9.498,0
872,35.523,-97.517,18,11.28,3,312,-0.438,-0.094,9.597,0
873,35.523,-97.517,18.3,11.6,3,311,-0.707,-0.207,9.592,0
874,35.523,-97.517,18.9,11.481,3,312,-0.824,-0.407,9.895,0
875,35.523,-97.516,19.4,11.36,3,312,-0.429,-0.139,9.654,0
876,35.523,-97.516,19.8,11.801,3,312,-0.572,-0.145,9.501,0
877,35.523,-97.516,20.2,11.763,3,312,-0.452,-0.119,9.507,0
878,35.523,-97.516,20.4,11.671,3,313,-0.71,0.07,10.26,0
879,35.523,-97.516,21.1,11.371,3,313,-0.09,0.392,10.033,0
880,35.523,-97.516,21.7,10.611,3,313,-0.017,1.06,10.218,0
881,35.523,-97.516,22.5,9.4609,3,313,-0.361,0.086,9.57,1
882,35.524,-97.516,23.1,8.97,3,313,-0.075,0.351,9.749,0
883,35.524,-97.516,23.6,8.4404,3,313,0.311,0.726,10.035,0
884,35.524,-97.516,23.6,7.3203,3,314,-0.376,0.046,9.734,0
885,35.524,-97.516,23.6,6.6017,3,314,-0.406,0.104,9.719,0
886,35.524,-97.516,23.5,6.2518,3,314,-0.808,-0.369,9.721,0
887,35.524,-97.516,23.3,6.1203,3,315,0.437,1.129,10.044,0
888,35.524,-97.516,23.4,4.9901,3,315,0.176,0.735,9.834,0
889,35.524,-97.516,23.4,3.7201,3,315,0.215,0.641,9.9,0
890,35.524,-97.516,23.5,2.67,3,316,-0.118,0.256,9.93,0
891,35.524,-97.516,23.6,1.9102,3,316,-0.572,-0.338,9.832,1
892,35.524,-97.516,23.6,1.791,3,317,-0.627,-0.282,9.591,1
893,35.524,-97.516,23.7,1.9013,3,317,-0.569,-0.241,9.703,1
894,35.524,-97.516,23.9,1.9765,3,317,-0.547,-0.239,9.697,1
895,35.524,-97.516,24.2,2.04,3,317,-0.601,-0.245,9.723,1
896,35.524,-97.516,24.5,2.0301,3,318,-0.529,-0.252,9.738,0
897,35.524,-97.516,24.8,2.04,3,318,-0.499,-0.301,9.855,1
898,35.524,-97.516,25.1,2.0301,3,318,-1.122,-1.013,9.605,1
899,35.524,-97.516,25.4,2.6405,3,318,-0.916,-0.753,9.563,1
900,35.524,-97.516,26,3.25,3,318,-0.469,-0.135,9.641,1
901,35.524,-97.516,26.6,3.5801,3,318,-0.657,-0.358,9.833,1
902,35.524,-97.516,27.3,3.5109,3,318,-0.288,-0.041,9.789,0
903,35.524,-97.516,27.9,3.3315,3,319,-0.217,-0.124,9.628,0
904,35.524,-97.516,28.5,3.08,3,319,-0.127,-0.107,9.788,0
905,35.524,-97.516,28.7,2.78,3,319,-0.059,-0.035,9.956,0
906,35.524,-97.516,28.8,2.52,3,318,-0.107,0.139,9.741,1
907,35.524,-97.516,28.9,2.06,3,318,-0.217,-0.018,9.712,1
908,35.524,-97.516,28.9,1.7307,3,319,-0.149,0.037,9.716,1
909,35.524,-97.516,29,1.36,3,318,-0.611,-0.437,9.651,1
910,35.524,-97.516,28.9,1.43,3,318,-0.761,-0.604,9.758,1
911,35.524,-97.516,28.8,1.6559,3,318,-1.434,-1.437,9.381,1
912,35.524,-97.516,28.6,2.8001,3,318,-1.612,-1.4,9.532,1
913,35.524,-97.516,28.3,4.2703,3,319,-0.503,-0.345,9.726,1
914,35.524,-97.516,28.1,5.1601,3,319,-0.907,-1.094,9.583,1
915,35.524,-97.516,28.2,5.4906,3,319,-0.408,-0.399,9.643,1
916,35.524,-97.516,28.1,6.3,3,320,-0.384,-0.161,9.67,1
917,35.525,-97.516,28.2,6.4102,3,320,-0.707,-0.449,9.63,1
918,35.525,-97.515,28.3,6.3805,3,320,-0.86,-0.413,9.504,0
919,35.525,-97.515,28.7,6.7007,3,321,-0.652,0.112,9.659,1
920,35.525,-97.515,29.7,6.8242,3,321,-1.051,-0.369,9.759,1
921,35.525,-97.515,29.9,6.8201,3,321,-1.066,-0.324,9.683,1
922,35.525,-97.515,30.5,7.36,3,320,-0.596,0.134,9.658,0
923,35.525,-97.515,30.7,7.69,3,320,-0.526,0.041,9.842,1
924,35.525,-97.515,30.2,7.6204,3,319,-0.56,0.097,9.768,0
925,35.525,-97.515,29.8,7.5502,3,319,-0.737,0.012,10.071,0
926,35.525,-97.515,29.2,7.4102,3,319,-0.772,0.044,9.751,0
927,35.525,-97.515,28.2,7.4302,3,320,-0.775,0.025,9.472,1
929,35.525,-97.515,27.5,7.5013,3,321,-0.727,0.224,9.908,0
929,35.525,-97.515,27.5,7.5013,3,321,-0.727,0.224,9.908,0
930,35.525,-97.515,26.9,7.61,3,321,-0.817,-0.063,9.454,1
931,35.525,-97.515,26.2,7.7503,3,321,-0.671,0.024,9.845,0
932,35.525,-97.515,25.6,8.0002,3,322,-0.655,-0.092,9.663,0
933,35.525,-97.515,24.7,8.1502,3,321,-0.995,0.071,9.889,0
934,35.525,-97.515,23.4,8.3804,3,321,-0.641,-0.306,9.82,0
935,35.526,-97.515,22.3,8.7004,3,321,-0.568,0.171,8.796,0
936,35.526,-97.515,21.1,9.02,3,321,-0.905,0.184,9.757,0
937,35.526,-97.515,20.2,9.1302,3,321,-0.817,0.152,9.768,0
938,35.526,-97.515,19.7,9.31,3,321,-0.885,0.396,9.726,0
939,35.526,-97.515,19,9.5502,3,321,-0.531,0.891,9.934,0
940,35.526,-97.515,18.7,9.51,3,321,-0.585,0.688,9.892,0
941,35.526,-97.515,16.2,8.8106,3,320,-0.907,0.591,9.877,0
942,35.526,-97.515,15.4,8.4912,3,319,0.066,1.857,9.995,0
943,35.526,-97.515,15.6,6.9603,3,319,0.162,1.929,10.074,0
944,35.526,-97.515,15.7,5.32,3,319,-0.443,1.133,9.92,0
945,35.526,-97.515,15.7,4.5805,3,318,-0.391,1.22,9.731,0
946,35.526,-97.515,15.6,3.95,3,318,-0.419,1.159,9.952,0
947,35.526,-97.515,15,3.33,3,318,-0.643,1.036,9.712,0
948,35.526,-97.515,14.5,2.8101,3,318,-0.47,1.078,9.873,0
949,35.526,-97.515,14,2.26,3,318,-0.768,0.841,9.932,0
950,35.526,-97.515,13.7,1.7111,3,318,-0.524,1.04,9.868,0
951,35.526,-97.515,13.4,1.37,3,318,-1.219,0.176,9.58,1
952,35.526,-97.515,13.1,1.6701,3,318,-1.256,0.152,9.871,0
953,35.527,-97.515,12.5,1.9709,3,318,-1.126,0.266,9.571,1
954,35.527,-97.515,12,2.5812,3,318,-1.046,0.379,9.693,1
955,35.527,-97.515,11.3,2.9201,3,318,-1.762,-0.583,9.545,1
956,35.527,-97.515,10.6,4.1102,3,318,-1.828,-0.529,9.556,1
957,35.527,-97.514,10.6,5.4606,3,318,-2.084,-0.975,9.433,0
958,35.527,-97.514,10.8,7.0514,3,317,-1.719,-0.08,9.793,1
959,35.527,-97.514,10.9,8.3127,3,317,-1.328,0.53,9.833,0
960,35.527,-97.514,13.5,8.8108,3,316,-1.249,-0.422,9.712,0
961,35.527,-97.514,15.4,9.4603,3,316,-1.472,-1.55,9.409,1
962,35.527,-97.514,14.7,10.94,3,316,-0.804,-1.625,9.428,0
963,35.527,-97.514,11.7,12.62,3,316,-0.966,-1.243,9.005,0
964,35.527,-97.514,8.7,13.98,3,316,-0.515,-0.014,9.963,0
965,35.527,-97.514,8.5,14.86,3,316,-1.253,1.191,9.972,0
966,35.528,-97.514,10.8,14.53,3,316,-1.51,1.415,9.875,0
967,35.528,-97.514,17.6,14.14,3,316,-1.816,1.793,9.549,0
968,35.528,-97.514,25.5,13.69,3,316,-2.432,1.475,10.401,0
969,35.528,-97.514,34,13.391,3,316,-1.666,1.256,9.213,0
970,35.528,-97.514,42.2,13.33,3,316,-2.354,0.574,10.863,0
971,35.528,-97.514,50.8,13.66,3,316,-1.604,-0.793,10.153,0
972,35.528,-97.514,55.7,14.36,3,315,-1.547,-0.488,9.513,0
973,35.528,-97.514,57.3,15.571,3,315,-1.079,-0.539,9.699,0
974,35.528,-97.513,57.7,16.45,3,315,-1.196,-1.236,9.303,0
975,35.528,-97.513,58.2,17.75,3,315,-0.936,-0.866,9.395,0
976,35.528,-97.513,58.2,19.391,3,315,-1.087,-0.297,9.403,0
977,35.529,-97.513,58.3,20.471,3,315,-0.394,0.737,9.385,0
978,35.529,-97.513,58.4,20.84,3,314,-0.558,0.275,9.132,0
979,35.529,-97.512,58.7,20.86,3,314,-0.401,0.462,9.63,0
980,35.529,-97.512,58.7,21.09,3,314,-0.164,0.33,10.505,0
981,35.529,-97.512,58.5,21.031,3,313,-0.234,0.742,7.687,0
982,35.529,-97.512,59.1,20.78,3,313,-0.054,0.926,10.29,0
983,35.529,-97.512,59.3,20.511,3,312,-0.326,1.617,10.549,0
984,35.529,-97.511,61.8,19.76,3,312,-1.17,3.127,11.229,0
985,35.529,-97.511,64.6,18.29,3,312,1.811,4.523,11.262,0
986,35.529,-97.511,72.4,15.481,3,312,2.23,3.498,10.092,0
987,35.529,-97.511,80.2,11.451,3,312,-0.098,0.15,9.884,0
988,35.529,-97.511,83,6.7614,3,312,-2.317,-1.674,9.443,0
989,35.529,-97.511,81.2,5.7907,3,313,-2.594,-1.668,9.695,0
990,35.529,-97.511,83.7,7.9205,3,312,-2.429,-1.832,8.872,0
991,35.529,-97.511,87.1,10.403,3,312,-2.446,-1.861,9.777,0
992,35.529,-97.511,88.4,13.14,3,312,-1.969,-1.719,9.161,0
994,35.529,-97.51,88.2,15.61,3,311,-1.833,-1.889,9.781,0
994,35.529,-97.51,88.2,15.61,3,311,-1.833,-1.889,9.781,0
995,35.529,-97.51,87.3,17.93,3,311,-2.252,-1.205,9.678,0
996,35.529,-97.51,86.4,20.09,3,311,-2.176,-1.257,9.792,0
997,35.529,-97.51,86.9,22.13,3,311,-1.264,0.517,9.204,0
998,35.529,-97.509,87.5,23.95,3,311,-0.481,0.027,9.899,0
999,35.529,-97.509,88.6,24.5,3,311,-0.715,0.27,9.503,0
1000,35.529,-97.509,88.9,24.48,3,311,-0.845,-0.248,9.755,0
1001,35.529,-97.509,89.6,24.45,3,310,-0.561,-0.112,9.931,0
1002,35.529,-97.508,89.9,24.79,3,310,-1.355,-0.978,9.604,0
1003,35.529,-97.508,90.1,25.02,3,310,-1.366,-0.906,9.341,0
1004,35.529,-97.508,90.3,25.92,3,310,0.101,0.174,9.223,0
1005,35.529,-97.507,90.1,26.6,3,310,-0.389,0.395,10.191,0
1006,35.529,-97.507,90.1,26.24,3,310,-1.333,1.079,9.978,0
1007,35.529,-97.507,91.7,25.88,3,310,-1.527,0.941,9.416,0
1008,35.529,-97.506,94.9,25.79,3,310,-2.134,1.092,9.212,0
1009,35.529,-97.506,98.9,26.18,3,309,-1.602,1.302,9.85,0
1010,35.529,-97.506,103.6,26.3,3,309,-1.383,1.777,8.783,0
1011,35.529,-97.505,108.4,26.111,3,309,-2.731,2.02,10.603,0
1012,35.529,-97.505,115.7,25.291,3,311,-1.925,1.394,9.603,0
1013,35.529,-97.505,121.8,24.425,3,314,-2.297,1.379,10.296,0
1014,35.529,-97.505,127.2,23.648,3,314,-2.657,1.163,9.911,0
1015,35.529,-97.505,133.5,23.26,3,316,-2.307,0.989,8.712,0
1016,35.529,-97.504,139.3,23.136,3,316,-2.471,1.098,9.605,0
1017,35.529,-97.504,139.3,23.136,3,316,-2.458,1.442,9.141,0
1018,35.528,-97.504,151.3,23.871,3,316,-1.521,0.91,7.566,0
1019,35.528,-97.504,155.3,23.83,3,316,-2.234,0.163,9.914,0
1020,35.528,-97.504,160.7,25.617,3,316,-1.824,-0.289,10.725,0
1021,35.528,-97.504,163,26.764,3,315,-0.452,0.285,10.006,0
1022,35.527,-97.504,164,27.303,3,315,-0.636,0.008,9.63,0
1023,35.527,-97.504,163.8,27.322,3,314,-0.154,-0.05,9.291,0
1024,35.527,-97.504,164,27.29,3,314,-0.173,-0.165,9.804,0
1025,35.527,-97.504,163.9,26.94,3,314,0.009,0.406,10.29,0
1026,35.526,-97.504,164.3,26.471,3,314,-0.08,0.023,12.444,0
1027,35.526,-97.503,165,25.974,3,314,-1.47,0.54,11.025,0
1028,35.526,-97.503,166,25.649,3,316,-1.726,0.627,9.234,0
1029,35.526,-97.503,167.8,25.402,3,318,-1.751,0.001,10.297,0
1030,35.525,-97.503,169.4,25.319,3,320,-1.241,-0.361,9.935,0
1031,35.525,-97.503,170.5,25.381,3,321,-1.135,-0.258,9.328,0
1032,35.525,-97.503,171.8,25.692,3,323,-1.542,-0.122,9.995,0
1033,35.525,-97.503,173.1,26.086,3,325,-1.391,-0.104,7.864,0
1034,35.525,-97.503,174.2,26.463,3,326,-1.017,0.584,10.547,0
1035,35.524,-97.503,175.3,26.542,3,327,-0.353,0.794,10.102,0
1036,35.524,-97.503,176.3,25.513,3,328,0.102,1.915,9.184,0
1037,35.524,-97.503,177.1,23.902,3,329,-1.597,1.366,9.007,0
1038,35.524,-97.503,178.3,22.287,3,330,-0.033,0.813,8.735,0
1039,35.523,-97.503,180.6,20.853,3,331,-0.518,0.462,9.072,0
1040,35.523,-97.503,181.6,20.39,3,331,-0.723,0.622,8.718,0
1041,35.523,-97.503,182.5,20.083,3,327,1.142,2.424,10.073,0
1042,35.523,-97.503,183.3,18.901,3,329,-0.063,1.067,10.442,0
1043,35.523,-97.503,183.6,16.382,3,330,-0.548,0.716,10.331,0
1044,35.523,-97.503,184.1,15,3,331,1.398,3.27,10.378,0
1045,35.523,-97.503,185,13.3,3,331,-0.05,3.355,10.122,0
1046,35.522,-97.503,188.3,9.8812,3,330,-3.579,4.599,9.875,0
1047,35.522,-97.503,205.5,7.6712,3,330,-4.419,2.893,9.769,0
1048,35.522,-97.503,230.5,7.2151,3,330,-2.48,0.394,10.12,0
1049,35.522,-97.503,256.5,7.4211,3,330,-2.321,-1.61,9.56,0
