time,lat,lng,bearing,spd,acc,alt,accx,accy,accz,stable,
0,35.219,-97.458,274.8,12.99,19.721,309,-0.722,2.569,9.048,1
1,35.219,-97.458,274.5,13.81,21.238,310,-0.982,2.177,9.376,0
2,35.219,-97.458,272.9,12.01,21.238,309,-0.737,2.195,9.404,0
3,35.219,-97.458,266.1,10.93,24.272,308,-1.021,2.429,9.901,0
4,35.219,-97.458,273.6,12.37,22.755,307,-0.833,2.296,9.072,0
5,35.219,-97.458,273.8,12.73,24.272,308,-0.806,2.409,9.685,0
6,35.219,-97.459,264,12.22,22.755,308,-0.718,2.427,9.083,0
7,35.219,-97.459,272.4,13.45,21.238,307,-0.938,2.498,9.256,1
8,35.219,-97.459,273.2,13.92,21.238,307,-0.788,2.662,9.143,0
9,35.219,-97.459,271.5,13.49,21.238,305,-0.819,2.665,8.809,0
10,35.219,-97.459,274.7,14.21,21.238,306,-0.858,2.605,9.036,0
11,35.219,-97.459,271.7,13.98,21.238,307,-0.929,2.517,9.094,0
12,35.219,-97.459,270.4,13.47,21.238,306,-0.816,2.746,9.262,0
13,35.219,-97.46,267.7,16.31,21.238,302,-0.972,2.882,9.64,0
14,35.219,-97.46,272.7,15.69,21.238,304,-0.8,2.766,9.407,0
15,35.219,-97.46,271.2,15.27,19.721,305,-0.967,2.815,9.704,0
16,35.219,-97.46,269.2,14.45,21.238,308,-0.709,2.182,8.997,0
17,35.219,-97.46,267.2,14.39,21.238,309,-0.772,2.042,8.932,0
18,35.219,-97.46,268.8,15.07,21.238,307,-0.884,2.209,9.642,0
19,35.219,-97.461,270,14.41,22.755,307,-0.986,2.098,9.128,0
20,35.219,-97.461,267.1,14.79,22.755,308,-0.782,2.188,9.818,0
21,35.219,-97.461,261.9,14.91,21.238,307,-0.802,2.455,9.103,0
22,35.218,-97.461,260.8,15.57,21.238,309,-0.866,2.524,9.288,0
23,35.219,-97.461,267.3,15.62,19.721,309,-0.904,2.609,9.589,0
24,35.219,-97.462,269.7,15.85,19.721,312,-0.791,2.483,9.479,0
25,35.219,-97.462,269.6,14.45,19.721,311,-0.633,2.164,9.558,0
26,35.219,-97.462,271.5,15.92,18.204,311,-0.674,2.085,8.848,0
27,35.219,-97.462,269.9,16.09,19.721,311,-0.85,2.143,8.612,0
28,35.219,-97.462,271.9,16.71,19.721,310,-0.972,2.408,9.563,0
29,35.219,-97.462,271.3,15.75,19.721,309,-0.791,2.275,9.251,0
30,35.218,-97.462,265.9,13.81,19.721,309,-0.883,2.337,9.512,0
31,35.218,-97.463,266.7,14.03,21.238,307,-0.905,2.358,9.467,1
32,35.218,-97.463,267.4,14.1,19.721,307,-0.417,2.2,9.004,0
33,35.219,-97.463,270.5,14.2,21.238,310,-0.821,2.373,9.557,0
34,35.219,-97.463,271,12.79,21.238,311,-0.962,2.507,9.29,0
35,35.219,-97.463,276,15.13,21.238,312,-0.882,2.592,9.279,0
36,35.219,-97.463,281.8,14.24,22.755,310,-0.761,2.526,8.956,1
37,35.219,-97.464,274.8,15.48,22.755,310,-0.675,2.45,9.239,0
38,35.219,-97.464,272,15.55,22.755,311,-0.546,2.392,9.591,0
39,35.219,-97.464,268.1,15.7,22.755,312,-0.769,2.249,9.412,0
40,35.219,-97.464,269.8,16.29,22.755,312,-0.704,2.097,9.094,0
41,35.219,-97.464,273.4,17.84,24.272,312,-0.858,2.426,9.878,0
42,35.219,-97.465,272.8,16.51,22.755,311,-0.699,2.041,8.32,0
43,35.219,-97.465,267,16.38,21.238,311,-0.828,2.461,9.958,0
44,35.219,-97.465,266.8,16.3,21.238,311,-0.733,2.211,9.242,0
45,35.219,-97.465,268,16.14,21.238,313,-0.655,2.405,9.359,1
46,35.218,-97.465,264.4,16.85,19.721,312,-0.691,2.406,9.094,0
47,35.218,-97.465,264.4,16.86,19.721,313,-0.783,2.35,9.034,0
48,35.218,-97.466,266.9,17.94,19.721,312,-0.717,2.3,8.772,0
49,35.218,-97.466,269.9,14.89,18.204,311,-0.681,2.264,9.395,0
50,35.218,-97.466,269.6,16.24,18.204,310,-0.914,2.258,9.133,0
51,35.219,-97.466,274.8,16.46,18.204,310,-0.93,2.364,9.381,1
53,35.219,-97.466,270.2,16.18,21.238,311,-0.655,2.262,9.073,0
53,35.219,-97.466,270.2,16.18,21.238,311,-0.655,2.262,9.073,0
54,35.219,-97.467,270.2,14.09,21.238,308,-0.929,2.375,9.298,0
55,35.219,-97.467,273.8,14.37,22.755,309,-0.831,2.333,9.496,0
56,35.219,-97.467,284.3,15.73,22.755,309,-0.705,2.267,9.417,0
57,35.219,-97.467,279.4,15.93,27.306,310,-0.824,2.288,9.719,0
58,35.219,-97.467,275.7,16.19,27.306,311,-0.881,2.332,9.689,0
59,35.219,-97.467,279.4,12.53,31.857,312,-0.805,2.207,9.156,0
60,35.219,-97.468,273.5,15.92,27.306,312,-0.907,2.213,8.976,0
61,35.219,-97.468,270,15.72,27.306,313,-0.527,2.086,8.594,0
62,35.219,-97.468,267.5,16.5,21.238,312,-0.737,2.175,9.209,0
63,35.219,-97.468,270.7,16.76,22.755,313,-0.749,2.415,9.435,0
64,35.219,-97.468,274,16.21,21.238,315,-0.964,2.406,9.03,0
65,35.219,-97.469,270.9,15.77,19.721,316,-0.732,2.361,9.063,0
66,35.219,-97.469,272.6,16.59,21.238,316,-0.847,2.403,9.545,1
67,35.219,-97.469,265.1,16.77,19.721,316,-0.729,2.342,9.162,0
68,35.219,-97.469,263.7,17.96,19.721,317,-0.618,2.302,9.154,0
69,35.219,-97.469,266.7,16.71,18.204,316,-0.81,2.41,9.487,0
70,35.218,-97.469,263.7,15.57,18.204,317,-0.746,2.273,9.103,0
71,35.218,-97.47,267.3,16.07,19.721,315,-0.866,2.268,9.091,0
72,35.218,-97.47,265.5,14.78,19.721,314,-0.916,2.312,8.938,0
73,35.218,-97.47,268.8,15.61,21.238,316,-0.793,2.403,9.377,0
74,35.218,-97.47,268.8,16.33,21.238,316,-0.742,2.449,9.559,1
75,35.218,-97.47,269.1,14.53,21.238,316,-0.908,2.262,9.554,0
76,35.218,-97.47,265.2,14.61,22.755,317,-0.82,2.031,9.098,0
77,35.218,-97.471,268.8,13.62,21.238,319,-0.421,2.11,9.479,0
78,35.218,-97.471,269.4,13.43,19.721,318,-0.603,2.226,9.764,0
79,35.218,-97.471,272.1,15.09,21.238,317,-0.769,2.051,9.012,0
80,35.219,-97.471,274.6,17.7,21.238,314,-0.836,2.164,9.319,0
81,35.218,-97.471,268.5,17.25,21.238,315,-0.888,1.542,9.536,0
82,35.218,-97.472,266.9,16.93,19.721,315,-0.826,1.434,9.593,0
83,35.219,-97.472,276.8,18.96,19.721,314,-0.871,1.234,10.092,0
84,35.219,-97.472,279.6,17.48,21.238,313,-0.637,0.95,9.848,0
85,35.219,-97.472,278.7,16.58,21.238,311,-0.682,0.983,8.95,0
86,35.219,-97.472,277.2,16.44,21.238,313,-0.884,1.442,9.43,0
87,35.219,-97.472,290,14.73,24.272,314,-0.868,0.849,9.994,0
88,35.219,-97.472,290,14.73,24.272,314,-0.801,1.197,9.553,0
89,35.219,-97.472,284.5,10.02,24.272,316,-0.63,1.455,9.637,0
90,35.219,-97.472,277.6,8.99,24.272,316,-0.765,2.199,9.453,0
91,35.219,-97.473,272.5,7.7,22.755,318,-0.919,2.92,9.307,1
92,35.219,-97.473,258.4,7.45,24.272,318,-0.848,2.902,8.919,0
93,35.219,-97.473,245.7,6.74,22.755,317,-0.718,3.109,8.893,0
94,35.219,-97.473,240.6,6.15,21.238,318,-0.702,3.143,9.062,1
95,35.219,-97.473,264.2,6.18,21.238,318,-0.843,3.197,9.229,0
96,35.219,-97.473,263.4,6.86,21.238,319,-0.942,3.151,8.847,0
97,35.219,-97.473,269.5,5.77,21.238,319,-0.944,3.427,9.257,0
98,35.219,-97.473,262.9,9.01,18.204,320,-0.575,3.286,8.571,0
99,35.219,-97.473,267.5,12.04,16.687,320,-0.714,3.22,8.733,0
100,35.219,-97.473,268.8,12.28,15.17,320,-0.867,2.774,9.749,0
101,35.219,-97.473,268.6,13.68,15.17,320,-0.504,2.805,9.928,0
102,35.219,-97.474,269.1,14.12,15.17,318,-0.791,2.501,8.858,0
103,35.219,-97.474,269.8,14.46,15.17,318,-0.885,2.518,8.868,0
104,35.219,-97.474,269.6,14.6,15.17,319,-0.565,2.885,9.94,0
105,35.219,-97.474,269.9,15,15.17,319,-0.866,2.744,9.955,0
106,35.219,-97.474,269.6,15.12,16.687,320,-0.797,2.304,9.732,0
107,35.219,-97.475,270.2,15.25,15.17,320,-0.506,2.633,9.246,0
108,35.219,-97.475,270.2,15.08,15.17,318,-0.918,2.659,9.549,0
109,35.219,-97.475,270,15.15,15.17,318,-0.905,2.712,9.438,1
110,35.219,-97.475,271.3,15.04,15.17,316,-0.727,2.755,9.73,0
111,35.219,-97.475,270.5,15.23,15.17,317,-0.832,2.505,9.81,0
112,35.219,-97.475,270.1,14.79,15.17,318,-0.821,2.275,9.456,0
113,35.219,-97.475,269.1,15.07,15.17,317,-0.632,2.125,8.695,0
114,35.219,-97.476,270,14.98,15.17,315,-0.616,2.571,9.653,0
115,35.219,-97.476,271.2,14.7,15.17,315,-0.797,2.774,9.872,0
116,35.219,-97.476,271.4,14.69,15.17,315,-0.633,2.549,9.163,0
117,35.219,-97.476,270,14.74,16.687,314,-0.709,2.466,9.158,1
118,35.219,-97.476,271,15.1,15.17,315,-0.735,2.685,9.785,0
119,35.219,-97.476,270.7,15.29,15.17,315,-1.079,2.906,10.276,0
120,35.219,-97.477,271.1,15.28,15.17,315,-0.771,2.247,8.54,0
121,35.219,-97.477,270.6,15.19,15.17,315,-0.653,2.242,8.515,0
122,35.219,-97.477,269.8,15.18,15.17,314,-0.81,2.52,9.267,0
123,35.219,-97.477,270.2,15.62,15.17,312,-0.66,2.797,9.261,0
125,35.219,-97.477,270.4,14.96,15.17,312,-0.702,3.226,9.006,0
125,35.219,-97.477,270.4,14.96,15.17,312,-0.702,3.226,9.006,0
126,35.219,-97.478,271.9,16.12,15.17,312,-0.697,3.181,9.102,0
127,35.219,-97.478,270.9,17.26,15.17,313,-0.827,2.598,9.086,0
128,35.219,-97.478,270.7,17.39,16.687,314,-0.657,2.305,8.434,0
129,35.219,-97.478,269,17.35,18.204,315,-0.731,2.258,9.354,0
130,35.219,-97.478,272.5,17.68,19.721,315,-0.935,2.033,8.904,0
131,35.219,-97.479,270.8,18.38,19.721,316,-0.724,2.025,9.853,0
132,35.219,-97.479,269,18.47,18.204,317,-0.716,2.05,9.159,0
133,35.219,-97.479,268.7,18.21,18.204,319,-0.802,2.166,9.635,0
134,35.219,-97.479,269.2,17.46,18.204,321,-0.652,2.07,9.306,0
135,35.219,-97.479,268.9,16.71,16.687,321,-0.766,2.049,9.343,0
136,35.219,-97.48,268.6,16.54,16.687,322,-0.608,1.937,9.284,0
137,35.219,-97.48,269.2,16.07,18.204,321,-0.87,1.754,9.535,0
138,35.219,-97.48,271,15.56,16.687,322,-0.893,1.682,9.815,0
139,35.219,-97.48,270.1,14.9,16.687,322,-0.925,1.454,9.414,0
140,35.219,-97.48,269.7,14.78,15.17,324,-0.68,0.326,9.578,0
141,35.219,-97.48,269.1,14.18,16.687,323,-0.653,0.202,9.8,0
142,35.219,-97.481,269.2,10.63,15.17,322,-0.754,-0.19,10.306,0
143,35.219,-97.481,271.2,7.91,15.17,322,-0.81,-0.241,9.678,0
144,35.219,-97.481,269.8,5.5,15.17,322,-0.764,-0.088,10.172,0
145,35.219,-97.481,265.1,3.16,15.17,323,-0.72,1.325,9.707,0
146,35.219,-97.481,266,2.62,15.17,324,-0.753,1.514,9.588,1
147,35.219,-97.481,266,2.62,15.17,324,-0.762,2.349,9.386,1
148,35.219,-97.481,266,2.62,15.17,324,-0.767,2.35,9.374,1
149,35.219,-97.481,266,2.62,15.17,324,-0.755,2.328,9.242,1
150,35.219,-97.481,266,2.62,15.17,324,-0.755,2.34,9.355,1
151,35.219,-97.481,266,2.62,15.17,324,-0.781,2.329,9.399,1
152,35.219,-97.481,265.5,0.16,15.17,326,-0.79,2.339,9.367,1
153,35.219,-97.481,0,0,15.17,327,-0.775,2.34,9.424,1
154,35.219,-97.481,0,0,15.17,327,-0.743,2.305,9.259,1
155,35.219,-97.481,0,0,13.653,327,-0.756,2.331,9.439,1
156,35.219,-97.481,0,0,13.653,327,-0.771,2.313,9.278,1
157,35.219,-97.481,0,0,13.653,327,-0.765,2.341,9.273,1
158,35.219,-97.481,0,0,13.653,328,-0.763,2.314,9.328,1
159,35.219,-97.481,0,0,13.653,328,-0.755,2.326,9.269,1
160,35.219,-97.481,0,0,13.653,328,-0.749,2.313,9.273,1
161,35.219,-97.481,0,0,13.653,328,-0.768,2.346,9.454,1
162,35.219,-97.481,0,0,13.653,328,-0.775,2.343,9.321,1
163,35.219,-97.481,0,0,13.653,328,-0.758,2.337,9.435,1
164,35.219,-97.481,0,0,13.653,328,-0.753,2.334,9.295,1
165,35.219,-97.481,0,0,13.653,328,-0.773,2.647,9.299,1
166,35.219,-97.481,0,0,13.653,328,-0.776,4.407,8.697,1
167,35.219,-97.481,0,0,13.653,328,-0.707,4.211,8.605,1
168,35.219,-97.481,0,0,13.653,328,-0.756,3.806,9.296,0
169,35.219,-97.481,0,0,13.653,328,-0.647,3.233,9.128,0
170,35.219,-97.481,268.1,5.41,13.653,327,-0.846,3.327,8.744,1
171,35.219,-97.481,270.6,5.77,15.17,327,-0.955,3.394,9.197,1
172,35.219,-97.481,273.1,6.01,15.17,327,-0.827,2.889,9.14,0
173,35.219,-97.481,267.7,7.99,15.17,326,-0.852,3.121,9.423,0
174,35.219,-97.481,269,9.01,15.17,327,-0.795,2.977,8.468,0
175,35.219,-97.481,269.7,9.7,15.17,327,-1.024,2.999,8.964,0
176,35.219,-97.481,269.2,10.21,13.653,327,-0.786,3.003,9.142,0
177,35.219,-97.482,268.5,11.17,15.17,326,-0.543,3.056,8.468,0
178,35.219,-97.482,270.3,11.6,15.17,325,-0.531,3.274,8.909,1
179,35.219,-97.482,268.9,12.25,15.17,325,-0.599,3.251,9.047,1
180,35.219,-97.482,269.5,13.56,15.17,326,-0.748,3.322,9.044,1
181,35.219,-97.482,269.9,13.82,15.17,325,-0.67,2.357,9.451,0
182,35.219,-97.482,270.8,14.96,15.17,324,-0.541,2.21,9.212,0
183,35.219,-97.482,271.7,15.22,16.687,324,-0.769,2.449,9.064,0
184,35.219,-97.483,268.7,15.81,18.204,323,-1.267,2.782,9.171,0
185,35.218,-97.483,267.3,15.66,18.204,322,-0.983,2.766,9.877,0
186,35.218,-97.483,269.7,15.57,16.687,321,-1.041,2.914,9.239,0
187,35.218,-97.483,270,15.23,15.17,321,-0.947,2.361,9.409,1
188,35.218,-97.483,269.7,15.5,15.17,321,-0.581,2.196,9.225,0
189,35.219,-97.484,269.3,15.46,15.17,321,-0.739,2.099,9.366,0
190,35.219,-97.484,268.5,14.85,15.17,322,-0.901,2.076,9.236,0
191,35.218,-97.484,269.3,14.23,15.17,320,-0.823,2.153,9.264,1
192,35.219,-97.484,270.1,13.95,16.687,321,-0.69,0.303,9.819,0
193,35.219,-97.484,269.3,13.25,16.687,321,-0.895,0.209,10.131,0
194,35.219,-97.484,268.7,11.14,16.687,321,-0.816,0.724,9.937,0
195,35.219,-97.484,266.9,8.8,15.17,321,-0.761,1.705,9.458,0
196,35.219,-97.484,267.4,7.06,15.17,321,-0.798,2.543,9.298,1
198,35.219,-97.484,268.9,5.56,15.17,322,-0.8,4.032,8.725,1
198,35.219,-97.484,268.9,5.56,15.17,322,-0.8,4.032,8.725,1
199,35.219,-97.485,270.9,5.73,16.687,321,-0.912,3.934,8.593,1
200,35.219,-97.485,274.2,7.53,16.687,321,-0.903,3.934,8.777,1
201,35.219,-97.485,270,9.03,15.17,321,-0.88,3.924,8.786,1
202,35.219,-97.485,268.3,10.95,15.17,320,-0.784,3.264,9.036,1
203,35.219,-97.485,268.6,12.34,15.17,320,-0.844,3.517,8.904,1
204,35.219,-97.485,268.7,13.19,15.17,321,-0.883,3.299,8.915,0
205,35.219,-97.485,269.2,13.16,15.17,322,-0.782,3.457,8.945,1
206,35.219,-97.485,269.2,14.78,15.17,323,-0.779,3.321,8.967,1
207,35.219,-97.486,269.4,16.25,15.17,321,-0.8,3.472,9.209,1
208,35.219,-97.486,269.7,16.74,15.17,320,-0.785,3.062,9.188,0
209,35.219,-97.486,270.5,17.42,16.687,320,-1.139,3.004,10.237,0
210,35.219,-97.486,272.6,16.78,16.687,320,-1.142,2.308,9.719,0
211,35.219,-97.486,280.7,17.13,18.204,321,-0.875,2.151,9.9,0
212,35.219,-97.487,274.7,17.32,21.238,323,-0.76,2.022,9.264,0
213,35.219,-97.487,271.7,19.03,21.238,323,-0.636,2.07,9.36,0
214,35.219,-97.487,270.5,20.74,21.238,323,-0.83,1.982,9.412,0
215,35.219,-97.487,265.9,21.39,21.238,324,-0.92,2.051,9.462,0
216,35.219,-97.488,266.5,20.87,21.238,323,-0.814,1.909,9.519,0
217,35.218,-97.488,263.9,19.73,21.238,323,-0.902,2.04,9.648,0
218,35.218,-97.488,267.2,18.49,19.721,324,-1.162,1.42,9.487,0
219,35.219,-97.488,274,16.48,19.721,323,-0.951,1.288,9.4,0
220,35.219,-97.488,271.4,17.3,21.238,325,-0.749,1.23,9.772,0
221,35.219,-97.489,267.3,19.12,19.721,324,-0.953,1.074,9.952,0
222,35.219,-97.489,270.6,18.36,19.721,320,-0.906,-0.16,10.027,0
223,35.219,-97.489,268.9,18.81,19.721,321,-0.969,-0.172,10.168,0
224,35.218,-97.489,268.2,14.42,18.204,320,-0.909,0.598,9.881,0
225,35.219,-97.489,273.3,13.31,18.204,322,-0.97,0.966,9.832,0
226,35.219,-97.489,270.9,11.49,18.204,321,-0.85,0.932,9.604,0
227,35.219,-97.489,270.5,8.61,18.204,321,-0.856,1.277,9.543,0
228,35.219,-97.489,267.9,5.14,16.687,321,-0.856,1.268,9.64,1
229,35.219,-97.489,268.5,4.68,16.687,319,-0.913,1.27,9.678,1
230,35.219,-97.489,269.8,3.16,16.687,322,-0.948,1.882,9.528,1
231,35.219,-97.489,269.1,2.93,16.687,321,-0.951,2.239,9.483,1
232,35.219,-97.489,264.2,2.91,18.204,320,-0.906,2.293,9.485,1
233,35.219,-97.489,269.5,2.05,16.687,320,-0.952,2.202,9.227,1
234,35.219,-97.489,265.7,2.01,16.687,320,-0.958,2.124,9.349,1
235,35.219,-97.489,278.7,1.86,18.204,321,-0.954,1.591,9.698,1
236,35.219,-97.489,239.7,1.4,19.721,320,-0.942,1.562,9.653,1
237,35.218,-97.489,237.5,1.82,19.721,319,-0.964,2.371,9.397,1
238,35.218,-97.49,238.1,1.56,18.204,319,-0.949,2.322,9.432,1
239,35.218,-97.49,238.1,1.56,18.204,319,-0.966,2.312,9.384,1
240,35.218,-97.49,238.1,1.56,18.204,319,-0.966,2.276,9.276,1
241,35.218,-97.49,210.1,0.76,18.204,319,-0.956,2.291,9.383,1
242,35.218,-97.49,192.6,0.78,18.204,319,-0.95,2.278,9.391,1
243,35.218,-97.49,192.6,0.78,18.204,319,-0.947,2.272,9.234,1
244,35.218,-97.49,192.6,0.78,18.204,319,-0.951,2.27,9.244,1
245,35.218,-97.489,98.5,0.72,18.204,319,-0.961,2.282,9.393,1
246,35.218,-97.489,88.8,0.48,18.204,321,-0.952,2.293,9.44,1
247,35.218,-97.489,99.3,0.63,18.204,322,-0.943,2.279,9.239,1
248,35.218,-97.489,92.1,0.59,16.687,321,-0.956,2.282,9.336,1
249,35.218,-97.489,92.1,0.59,16.687,321,-0.948,2.289,9.464,1
250,35.218,-97.489,0,0,16.687,320,-0.942,2.268,9.279,1
251,35.218,-97.489,0,0,16.687,320,-0.942,2.29,9.253,1
252,35.218,-97.489,0,0,16.687,320,-0.964,2.304,9.326,1
253,35.218,-97.489,0,0,16.687,320,-0.943,2.262,9.265,1
254,35.218,-97.489,0,0,16.687,320,-0.956,2.304,9.453,1
255,35.218,-97.489,0,0,16.687,320,-0.94,2.275,9.227,1
256,35.218,-97.489,0,0,16.687,320,-0.949,2.291,9.462,1
257,35.218,-97.489,0,0,16.687,320,-0.946,2.295,9.222,1
258,35.218,-97.489,0,0,16.687,320,-0.943,2.268,9.373,1
259,35.218,-97.489,0,0,16.687,320,-0.938,2.277,9.255,1
260,35.218,-97.489,0,0,16.687,320,-0.945,2.273,9.239,1
261,35.218,-97.489,0,0,16.687,320,-0.95,2.298,9.448,1
262,35.218,-97.489,0,0,16.687,320,-0.939,2.269,9.244,1
263,35.218,-97.489,0,0,16.687,320,-0.945,2.278,9.252,1
264,35.218,-97.489,0,0,16.687,320,-0.943,2.292,9.468,1
265,35.218,-97.489,0,0,16.687,320,-0.938,2.298,9.314,1
266,35.218,-97.489,0,0,16.687,320,-0.953,2.682,9.159,1
267,35.218,-97.489,0,0,16.687,320,-0.938,2.287,9.349,1
268,35.218,-97.489,0,0,16.687,320,-0.958,1.979,9.458,1
269,35.218,-97.489,0,0,16.687,320,-0.945,2.343,9.368,1
270,35.218,-97.489,0,0,16.687,320,-0.948,2.326,9.452,1
271,35.218,-97.489,0,0,16.687,320,-0.943,2.292,9.221,1
272,35.218,-97.489,0,0,16.687,320,-0.941,2.285,9.271,1
273,35.218,-97.489,0,0,16.687,320,-0.942,2.288,9.376,1
274,35.218,-97.489,0,0,16.687,320,-0.964,2.302,9.358,1
275,35.218,-97.489,0,0,16.687,320,-0.938,2.318,9.438,1
276,35.218,-97.489,0,0,16.687,320,-0.952,2.318,9.429,1
277,35.218,-97.489,0,0,16.687,320,-0.945,2.275,9.318,1
278,35.218,-97.489,0,0,16.687,320,-0.941,2.302,9.348,1
279,35.218,-97.489,0,0,16.687,320,-0.953,2.294,9.225,1
280,35.218,-97.489,0,0,16.687,320,-0.956,2.305,9.418,1
281,35.218,-97.489,0,0,16.687,320,-0.964,2.312,9.448,1
282,35.218,-97.489,0,0,16.687,320,-0.935,2.276,9.297,1
283,35.218,-97.489,0,0,16.687,320,-0.928,2.299,9.456,1
284,35.218,-97.489,0,0,16.687,320,-0.944,2.275,9.364,1
285,35.218,-97.489,0,0,16.687,320,-0.93,2.273,9.241,1
286,35.218,-97.489,0,0,16.687,320,-0.952,2.297,9.452,1
287,35.218,-97.489,0,0,16.687,320,-0.949,2.515,9.341,1
288,35.218,-97.489,0,0,16.687,320,-0.972,4.314,8.659,1
289,35.218,-97.489,0,0,16.687,320,-0.865,4.444,8.702,1
291,35.218,-97.489,0,0,16.687,320,-0.923,3.684,9.02,1
291,35.218,-97.489,0,0,16.687,320,-0.923,3.684,9.02,1
292,35.218,-97.489,277.3,4.62,13.653,320,-1.012,3.275,9.071,1
293,35.218,-97.49,270.8,6.21,13.653,322,-0.997,3.361,9.035,1
294,35.218,-97.49,268.7,7.36,13.653,322,-0.844,3.584,8.852,1
295,35.218,-97.49,266.4,8.65,13.653,323,-0.97,3.692,8.797,0
296,35.218,-97.49,269.3,9.66,15.17,325,-0.816,3.238,8.628,0
297,35.218,-97.49,270.8,10.66,15.17,324,-0.627,3.356,9.054,1
298,35.218,-97.49,270.3,12.32,15.17,323,-0.846,3.285,9.19,1
299,35.218,-97.49,268.9,13.16,13.653,324,-1.206,3.246,8.608,0
300,35.218,-97.49,270.7,14.23,13.653,322,-0.886,3.147,8.658,0
301,35.218,-97.491,268.3,15.28,13.653,324,-0.94,3.145,9.18,1
302,35.218,-97.491,269.6,16.24,13.653,327,-0.523,2.847,8.278,0
303,35.218,-97.491,268.6,17.14,15.17,327,-0.853,3.069,9.169,0
304,35.218,-97.491,268.8,18.57,15.17,326,-1.039,2.15,9.232,0
305,35.218,-97.491,268.5,18.51,15.17,326,-0.675,2.059,9.252,0
306,35.218,-97.492,270.4,18.26,15.17,327,-0.695,2.093,9.288,0
307,35.218,-97.492,270.4,18.26,15.17,326,-0.828,1.994,9.459,0
308,35.218,-97.492,269.7,18.36,15.17,326,-0.707,2.066,9.484,0
309,35.218,-97.492,270.1,18.28,15.17,326,-0.764,1.273,9.499,0
310,35.218,-97.492,269.4,17.83,15.17,327,-0.917,1.157,9.774,0
311,35.218,-97.493,269.8,17.57,16.687,326,-0.81,0.788,9.733,0
312,35.218,-97.493,269,15.64,16.687,326,-0.808,0.883,9.859,0
313,35.218,-97.493,268.6,15.26,16.687,326,-0.757,1.921,9.365,0
314,35.218,-97.493,269.4,13.33,15.17,327,-0.87,2.111,9.595,0
315,35.218,-97.493,269.6,13.44,15.17,328,-0.884,1.858,9.469,0
316,35.218,-97.493,269.5,12.3,16.687,329,-0.924,0.634,9.948,0
317,35.218,-97.493,269.5,12.18,16.687,329,-0.919,0.172,10.042,0
318,35.218,-97.494,268.7,10.4,16.687,328,-0.945,0.595,9.752,0
319,35.218,-97.494,267.6,8.25,15.17,326,-1.132,-0.423,10.128,0
320,35.218,-97.494,267,6.43,15.17,326,-1.012,0.166,10.083,0
321,35.218,-97.494,264.2,3.36,15.17,325,-0.912,2.18,9.4,1
322,35.218,-97.494,269.8,2.28,15.17,325,-0.846,2.353,9.406,1
323,35.218,-97.494,269,1.24,15.17,325,-0.901,2.585,9.233,1
324,35.218,-97.494,269,1.24,15.17,325,-0.895,2.525,9.306,1
325,35.218,-97.494,264.2,1.45,15.17,325,-0.86,1.549,9.53,1
326,35.218,-97.494,275.5,2.02,15.17,324,-0.902,1.161,9.669,1
327,35.218,-97.494,258.2,0.88,15.17,323,-0.886,2.289,9.371,1
328,35.218,-97.494,258.2,0.88,15.17,323,-0.893,2.276,9.337,1
329,35.218,-97.494,0,0,15.17,323,-0.881,2.289,9.438,1
330,35.219,-97.494,0,0,15.17,322,-0.882,2.257,9.259,1
331,35.219,-97.494,0,0,15.17,322,-0.873,2.699,9.332,1
332,35.219,-97.494,0,0,15.17,322,-0.869,2.456,9.292,1
333,35.219,-97.494,0,0,15.17,322,-0.893,2.363,9.247,1
334,35.219,-97.494,0,0,15.17,322,-0.864,2.381,9.393,1
335,35.219,-97.494,0,0,15.17,322,-0.888,2.108,9.368,1
336,35.219,-97.494,0,0,15.17,323,-0.882,2.045,9.469,1
337,35.219,-97.494,0,0,15.17,323,-0.89,2.124,9.388,1
338,35.219,-97.494,0,0,15.17,323,-0.87,2.274,9.478,1
339,35.219,-97.494,0,0,15.17,323,-0.877,2.304,9.413,1
340,35.219,-97.494,0,0,15.17,323,-0.872,2.281,9.237,1
341,35.219,-97.494,0,0,15.17,323,-0.881,2.3,9.432,1
342,35.219,-97.494,0,0,15.17,323,-0.875,2.305,9.421,1
344,35.219,-97.494,0,0,15.17,323,-0.881,2.294,9.3,1
344,35.219,-97.494,0,0,15.17,323,-0.881,2.294,9.3,1
345,35.219,-97.494,0,0,15.17,322,-0.875,2.293,9.349,1
346,35.219,-97.494,0,0,15.17,322,-0.876,2.287,9.417,1
347,35.219,-97.494,0,0,15.17,322,-0.877,2.294,9.261,1
348,35.219,-97.494,0,0,15.17,322,-0.874,2.282,9.281,1
349,35.219,-97.494,0,0,15.17,322,-0.888,2.29,9.35,1
350,35.219,-97.494,0,0,15.17,322,-0.873,2.274,9.233,1
351,35.219,-97.494,0,0,15.17,322,-0.886,2.296,9.32,1
352,35.219,-97.494,0,0,15.17,322,-0.869,2.3,9.454,1
353,35.219,-97.494,0,0,15.17,322,-0.885,2.317,9.355,1
354,35.219,-97.494,0,0,15.17,322,-0.872,2.279,9.263,1
355,35.219,-97.494,0,0,15.17,322,-0.884,2.297,9.396,1
356,35.219,-97.494,0,0,15.17,322,-0.88,2.274,9.247,1
357,35.219,-97.494,0,0,15.17,322,-0.88,2.311,9.481,1
358,35.219,-97.494,0,0,15.17,322,-0.885,2.298,9.252,1
359,35.219,-97.494,0,0,15.17,322,-0.876,2.276,9.41,1
360,35.219,-97.494,0,0,15.17,322,-0.863,2.284,9.348,1
361,35.219,-97.494,0,0,15.17,322,-0.887,2.287,9.288,1
362,35.219,-97.494,0,0,15.17,322,-0.882,2.291,9.42,1
363,35.219,-97.494,0,0,15.17,322,-0.874,2.314,9.365,1
364,35.219,-97.494,0,0,15.17,322,-0.87,2.278,9.322,1
365,35.219,-97.494,0,0,15.17,322,-0.864,2.284,9.272,1
366,35.219,-97.494,0,0,15.17,322,-0.888,2.301,9.304,1
367,35.219,-97.494,0,0,15.17,322,-0.866,2.294,9.26,1
368,35.219,-97.494,0,0,15.17,322,-0.892,2.305,9.294,1
369,35.219,-97.494,0,0,15.17,322,-0.893,2.302,9.295,1
370,35.219,-97.494,0,0,15.17,322,-0.877,2.297,9.264,1
371,35.219,-97.494,0,0,15.17,322,-0.883,2.291,9.283,1
372,35.219,-97.494,0,0,15.17,322,-0.89,2.306,9.375,1
373,35.219,-97.494,0,0,15.17,322,-0.875,2.277,9.371,1
374,35.219,-97.494,0,0,15.17,322,-0.884,2.291,9.305,1
375,35.219,-97.494,0,0,15.17,322,-0.884,2.312,9.422,1
376,35.219,-97.494,0,0,15.17,322,-0.882,2.295,9.257,1
377,35.219,-97.494,0,0,15.17,322,-0.871,2.292,9.237,1
378,35.219,-97.494,0,0,15.17,322,-0.876,2.286,9.473,1
379,35.219,-97.494,0,0,15.17,322,-0.876,2.278,9.451,1
380,35.219,-97.494,0,0,15.17,322,-0.873,2.29,9.324,1
381,35.219,-97.494,0,0,15.17,322,-0.874,2.282,9.251,1
382,35.219,-97.494,0,0,15.17,322,-0.885,2.311,9.365,1
383,35.219,-97.494,0,0,15.17,322,-0.871,2.275,9.277,1
384,35.219,-97.494,0,0,15.17,322,-0.869,2.273,9.257,1
385,35.219,-97.494,0,0,15.17,322,-0.882,2.638,9.25,1
386,35.219,-97.494,0,0,15.17,322,-0.859,4.425,8.551,1
387,35.219,-97.494,0,0,15.17,322,-0.833,4.067,8.863,1
388,35.219,-97.494,0,0,15.17,322,-0.878,3.797,8.596,1
389,35.218,-97.494,272.4,4.54,15.17,321,-0.762,3.787,8.909,1
390,35.219,-97.494,270.9,5.96,15.17,318,-0.869,3.745,8.67,1
391,35.219,-97.494,271.9,7.36,15.17,314,-0.868,3.957,8.925,0
392,35.219,-97.494,274.1,9.41,15.17,313,-0.699,3.091,8.977,1
393,35.219,-97.494,273.6,9.39,16.687,313,-0.958,2.464,9.056,0
394,35.219,-97.494,273.5,9.92,18.204,315,-0.727,2.155,8.92,0
395,35.219,-97.495,271.3,12.08,16.687,315,-0.857,2.123,9.219,1
396,35.219,-97.495,270.2,12.63,16.687,314,-0.903,2.163,9.34,1
397,35.219,-97.495,270.8,11.76,16.687,315,-1.003,2.6,9.253,0
398,35.219,-97.495,271.1,11.95,16.687,315,-1.019,2.55,9.38,0
399,35.219,-97.495,270.1,12.81,16.687,314,-1.427,2.843,9.199,0
400,35.219,-97.495,270.3,12.88,16.687,314,-0.95,2.866,8.773,0
401,35.219,-97.495,270.9,12.66,18.204,316,-0.756,3.044,9.262,0
402,35.219,-97.496,271.5,14.49,19.721,312,-1.315,2.929,8.871,1
403,35.219,-97.496,271.9,15.41,21.238,312,-0.695,2.675,9.012,0
404,35.218,-97.496,268,15.34,24.272,312,-0.422,2.88,9.957,0
405,35.218,-97.496,255.6,17.02,25.789,312,-0.061,2.483,9.112,0
406,35.218,-97.496,254.3,16.73,25.789,313,-0.741,2.399,8.815,0
407,35.218,-97.497,259.9,17.45,25.789,312,-0.756,2.039,8.812,0
408,35.218,-97.497,265.6,17.28,25.789,312,-0.817,2.13,9.341,0
409,35.218,-97.497,269.8,14.31,24.272,314,-0.858,2.227,9.535,0
410,35.218,-97.497,273.5,13.74,24.272,314,-1.166,2.304,10.067,0
411,35.218,-97.497,272.7,15.31,24.272,314,-0.91,2.231,9.938,0
412,35.218,-97.497,270.1,16.23,21.238,314,-0.951,2.1,9.626,0
413,35.218,-97.498,272,16.17,19.721,315,-1.307,2.056,9.337,0
414,35.218,-97.498,270.7,15.8,19.721,314,-0.815,2.207,9.694,0
415,35.218,-97.498,270.1,15.31,19.721,313,-0.836,2.16,9.545,0
416,35.218,-97.498,268.7,16.13,18.204,312,-0.796,2.092,9.162,0
418,35.218,-97.498,268.5,16.12,18.204,312,-0.884,2.204,9.534,0
418,35.218,-97.498,268.5,16.12,18.204,312,-0.884,2.204,9.534,0
419,35.218,-97.499,269.7,15.19,16.687,312,-0.588,2.124,9.25,0
420,35.218,-97.499,271.2,14.97,16.687,313,-0.85,2.163,9.259,0
421,35.218,-97.499,271.1,15.07,16.687,313,-0.939,2.181,9.241,0
422,35.218,-97.499,271,14.75,16.687,313,-0.923,2.317,9.879,0
423,35.218,-97.499,270.8,14.69,16.687,314,-0.848,2.164,9.54,0
424,35.218,-97.499,271.7,14.36,16.687,314,-0.796,2.057,9.33,0
425,35.218,-97.5,269.1,14.78,16.687,312,-0.968,2.178,10.003,0
426,35.218,-97.5,270.4,14.53,16.687,312,-0.758,2.044,8.845,0
427,35.218,-97.5,270.6,14.37,16.687,313,-0.938,2.14,9.281,0
428,35.218,-97.5,267.4,14.17,16.687,311,-1.201,2.494,10.287,0
429,35.218,-97.5,266.8,13.65,16.687,313,-0.615,2.085,9.48,0
430,35.218,-97.5,269,13.43,16.687,313,-0.728,2.076,9.045,0
431,35.218,-97.5,270.3,13.23,16.687,312,-0.925,2.026,8.374,0
432,35.219,-97.501,271.7,13.35,16.687,312,-1,2.358,9.901,0
433,35.219,-97.501,273.1,13.16,16.687,311,-0.751,2.2,9.39,0
434,35.219,-97.501,268.5,13.03,16.687,311,-0.771,2.129,9.663,0
435,35.218,-97.501,268.5,12.79,16.687,320,-0.502,1.975,8.707,0
436,35.218,-97.501,268.7,12.87,16.687,318,-0.692,2.976,9.833,0
437,35.218,-97.501,269.6,13.47,16.687,316,-0.528,2.555,9.397,0
438,35.218,-97.501,270.3,13.14,16.687,315,-0.657,2.278,9.664,0
439,35.219,-97.502,271.2,13.4,18.204,313,-0.912,2.27,9.366,0
440,35.219,-97.502,270.9,14.3,18.204,311,-0.818,2.207,9.664,0
441,35.218,-97.502,268.9,15.02,19.721,310,-0.604,1.842,9.365,0
442,35.218,-97.502,268.7,15.24,21.238,310,-0.712,2.507,10.387,0
443,35.218,-97.502,266.8,12.92,22.755,310,-0.748,1.963,8.416,0
444,35.218,-97.502,267.4,13.01,22.755,311,-0.533,1.801,8.847,0
445,35.218,-97.503,272.1,13.86,19.721,312,-0.933,2.067,9.36,0
446,35.218,-97.503,273.9,13.82,19.721,313,-1.196,2.037,9.627,0
447,35.218,-97.503,272.4,13.73,18.204,312,-1.242,1.99,9.236,0
448,35.218,-97.503,271.6,14.08,18.204,312,-1.238,2.291,10.039,0
449,35.218,-97.503,269.9,14.71,18.204,311,-1.013,1.912,9.184,0
450,35.218,-97.503,268.8,15.63,18.204,309,-0.965,2.29,10.118,0
451,35.218,-97.504,269.7,14.59,18.204,308,-1.077,1.973,9.143,0
452,35.218,-97.504,269.5,14.77,18.204,309,-0.977,2.14,9.557,0
453,35.218,-97.504,269.5,14.75,18.204,309,-0.746,1.955,9.179,0
454,35.218,-97.504,269.2,13.98,16.687,309,-0.914,1.902,8.985,0
455,35.219,-97.504,268.3,13.16,16.687,309,-0.958,2.18,9.568,0
456,35.219,-97.504,269.6,13.3,16.687,309,-1.012,2.387,9.371,0
457,35.219,-97.504,269,13,16.687,309,-1.053,2.509,9.213,1
458,35.219,-97.505,270.2,12.94,16.687,310,-1,2.429,9.48,0
459,35.219,-97.505,270.1,12.61,16.687,312,-0.901,2.359,8.884,0
460,35.219,-97.505,269.7,12.77,18.204,311,-0.929,2.382,9.281,1
461,35.219,-97.505,271.4,12.03,18.204,310,-1.05,2.34,9.606,0
462,35.219,-97.505,270.3,13.42,18.204,309,-1.137,2.236,9.6,0
463,35.219,-97.505,271.2,12.67,18.204,309,-0.897,2.154,9.181,0
464,35.219,-97.505,270.6,13.16,19.721,309,-0.884,2.177,9.166,0
465,35.218,-97.506,269.7,13.6,18.204,309,-1.11,2.26,9.233,0
466,35.218,-97.506,268.4,14.07,18.204,310,-0.993,2.306,9.343,0
467,35.218,-97.506,268.9,14.07,18.204,309,-0.847,2.466,9.457,0
468,35.218,-97.506,268.3,14.58,19.721,310,-0.77,2.438,9.208,0
469,35.218,-97.506,270.4,14.94,21.238,310,-0.855,2.442,8.541,0
470,35.219,-97.506,272.5,16.66,22.755,308,-0.874,3.259,9.311,0
471,35.218,-97.507,267.7,15.54,24.272,308,-0.909,2.537,8.777,0
472,35.219,-97.507,270.7,14.86,22.755,308,-0.847,2.214,9.349,0
473,35.218,-97.507,267.8,16.13,21.238,309,-1.033,2.608,9.551,0
474,35.218,-97.507,269.7,14.94,19.721,307,-0.813,2.852,9.454,0
475,35.219,-97.507,271.8,14.34,19.721,308,-1.02,2.721,9.007,0
476,35.219,-97.507,270.6,16.43,18.204,307,-0.918,2.293,9.028,0
477,35.219,-97.508,271.8,16.46,18.204,306,-0.732,2.296,9.511,0
478,35.219,-97.508,270.9,16.64,19.721,307,-0.786,2.153,9.265,1
479,35.219,-97.508,269.3,17.42,18.204,308,-0.833,2.33,10.223,0
480,35.219,-97.508,271,16.9,18.204,309,-0.699,2.335,10.362,0
481,35.219,-97.508,270.2,17.25,19.721,310,-0.974,2.593,10.301,0
482,35.218,-97.509,267.3,17.41,21.238,307,-0.811,2.561,10.129,0
483,35.218,-97.509,267.1,16.67,21.238,307,-0.81,2.593,9.66,0
484,35.218,-97.509,265.6,18.37,21.238,307,-0.523,2.109,7.883,0
485,35.219,-97.509,269.5,17.25,18.204,305,-0.705,2.508,9.417,0
487,35.219,-97.509,269.9,17.17,19.721,305,-0.835,2.225,8.608,0
487,35.219,-97.509,269.9,17.17,19.721,305,-0.835,2.225,8.608,0
488,35.219,-97.51,270.1,17.24,18.204,306,-1.123,1.98,8.271,0
489,35.219,-97.51,270.5,17.29,18.204,306,-0.825,2.477,10.273,0
490,35.219,-97.51,271.4,17.6,19.721,306,-0.759,2.202,9.139,0
491,35.218,-97.51,268.7,18.18,21.238,307,-0.821,2.239,9.678,0
492,35.218,-97.51,267.5,17.7,21.238,308,-0.722,2.018,9,0
493,35.218,-97.511,263.7,17.13,22.755,310,-0.615,1.436,9.658,0
494,35.218,-97.511,263.9,17.94,22.755,311,-0.906,1.352,10.165,0
495,35.218,-97.511,262.7,18.07,25.789,312,-0.515,0.974,9.556,0
496,35.218,-97.511,267.9,17.21,24.272,313,-0.809,0.841,9.746,0
497,35.218,-97.511,267.5,15.78,25.789,312,-0.859,1.365,9.679,0
498,35.218,-97.511,268,15.2,27.306,313,-0.734,1.294,9.172,0
499,35.218,-97.512,266.3,13.38,24.272,311,-1.055,1.005,9.72,0
500,35.218,-97.512,268.1,12.87,22.755,312,-0.852,-0.301,10.101,0
501,35.218,-97.512,266.6,7.15,18.204,312,-0.655,-0.421,9.708,0
502,35.218,-97.512,267.5,4.69,18.204,310,-0.862,1.46,9.716,1
503,35.218,-97.512,260.4,3.54,18.204,310,-0.833,3.088,9.054,1
504,35.218,-97.512,258.5,3.52,18.204,311,-0.65,4.604,8.411,0
505,35.218,-97.512,260.3,3.75,16.687,311,-1.215,4.15,8.194,0
506,35.218,-97.512,271.4,5.1,15.17,311,-0.877,3.79,8.447,0
507,35.218,-97.512,270,6.69,15.17,310,-0.875,3.339,8.944,1
508,35.218,-97.512,271.3,7.25,15.17,313,-0.875,2.707,8.879,1
509,35.218,-97.512,271.6,7.71,16.687,314,-0.426,3.394,10.42,0
510,35.218,-97.512,271.1,7.47,18.204,315,-0.665,2.978,8.99,1
511,35.218,-97.512,270.9,8.48,19.721,315,-0.875,2.359,9.352,1
512,35.218,-97.512,270.9,7.91,19.721,315,-0.856,2.327,9.35,0
513,35.218,-97.513,273.3,9.75,19.721,315,-0.839,2.237,9.567,1
514,35.218,-97.513,273.8,10.12,21.238,315,-0.728,2.12,9.316,1
515,35.218,-97.513,271.7,10.24,21.238,314,-1.007,1.975,9.179,1
516,35.218,-97.513,274.3,9.87,22.755,313,-0.985,1.828,9.57,0
517,35.218,-97.513,267.9,10.93,22.755,313,-0.511,1.134,10.03,0
518,35.218,-97.513,269.1,10.27,21.238,313,-0.219,0.058,10.103,0
519,35.218,-97.513,267.1,10.87,18.204,313,0.557,1.91,9.361,1
520,35.218,-97.513,273.1,6.49,16.687,313,-1.73,2.282,9.279,0
521,35.218,-97.513,284.4,6.41,16.687,313,-3.935,1.761,9.298,0
522,35.218,-97.513,278.6,5.28,15.17,313,-4.161,1.357,9.238,0
523,35.218,-97.513,274.1,5.42,15.17,313,-4.061,1.566,9.748,0
524,35.218,-97.514,258.4,6.78,16.687,313,-3.906,0.183,9.762,0
525,35.218,-97.514,246.9,4.75,16.687,314,-2.875,1.377,9.408,0
526,35.218,-97.513,216.2,2.74,16.687,312,-1.829,0.904,9.652,0
527,35.218,-97.513,94.3,2.64,15.17,313,-0.744,0.958,9.912,0
528,35.218,-97.513,73.8,1.63,15.17,310,-0.879,1.997,9.347,1
529,35.218,-97.513,70.5,0.84,15.17,312,-0.927,2.09,9.429,1
530,35.218,-97.513,93.3,0.24,15.17,311,-0.965,2.316,9.453,1
531,35.218,-97.513,93.3,0.24,15.17,311,-0.928,2.292,9.413,1
532,35.218,-97.513,93.3,0.24,15.17,311,-0.948,2.291,9.39,1
533,35.218,-97.513,0,0,13.653,312,-0.936,2.24,9.357,1
534,35.218,-97.513,0,0,13.653,312,-0.943,2.242,9.402,1
535,35.218,-97.513,0,0,13.653,312,-0.937,2.262,9.235,1
536,35.218,-97.513,0,0,13.653,312,-0.952,2.277,9.245,1
537,35.218,-97.513,0,0,13.653,312,-0.914,2.242,9.239,1
538,35.218,-97.513,0,0,13.653,312,-0.926,2.29,9.434,1
539,35.218,-97.513,0,0,13.653,312,-0.929,2.245,9.282,1
540,35.218,-97.513,0,0,13.653,312,-0.949,2.253,9.411,1
541,35.218,-97.513,0,0,13.653,312,-0.944,2.274,9.381,1
542,35.218,-97.513,0,0,13.653,312,-0.943,2.24,9.448,1
543,35.218,-97.513,0,0,13.653,312,-0.936,2.302,9.422,1
544,35.218,-97.513,0,0,13.653,312,-0.953,2.276,9.302,1
545,35.218,-97.513,0,0,13.653,312,-0.931,2.288,9.451,1
546,35.218,-97.513,0,0,13.653,312,-0.948,2.279,9.443,1
547,35.218,-97.513,0,0,13.653,312,-0.931,2.273,9.259,1
548,35.218,-97.513,0,0,13.653,312,-0.933,2.283,9.467,1
549,35.218,-97.513,0,0,13.653,312,-0.934,2.238,9.379,1
550,35.218,-97.513,0,0,13.653,312,-0.933,2.278,9.474,1
551,35.218,-97.513,0,0,13.653,312,-0.941,2.266,9.433,1
552,35.218,-97.513,0,0,13.653,312,-0.931,2.293,9.489,1
553,35.218,-97.513,0,0,13.653,312,-0.947,2.271,9.249,1
554,35.218,-97.513,0,0,13.653,312,-0.953,2.271,9.329,1
555,35.218,-97.513,0,0,13.653,312,-0.955,2.263,9.44,1
556,35.218,-97.513,0,0,13.653,312,-0.94,2.255,9.431,1
557,35.218,-97.513,0,0,13.653,312,-0.935,2.265,9.263,1
558,35.218,-97.513,0,0,13.653,312,-0.947,2.282,9.37,1
559,35.218,-97.513,0,0,13.653,312,-0.942,2.237,9.391,1
560,35.218,-97.513,0,0,13.653,312,-0.943,2.282,9.268,1
561,35.218,-97.513,0,0,13.653,312,-0.949,2.283,9.354,1
562,35.218,-97.513,0,0,13.653,312,-0.942,2.26,9.422,1
563,35.218,-97.513,0,0,13.653,312,-0.934,2.279,9.379,1
564,35.218,-97.513,0,0,13.653,312,-0.929,2.254,9.21,1
565,35.218,-97.513,0,0,13.653,312,-0.951,2.277,9.238,1
566,35.218,-97.513,0,0,13.653,312,-0.949,2.271,9.376,1
567,35.218,-97.513,0,0,13.653,312,-0.93,2.256,9.238,1
568,35.218,-97.513,0,0,13.653,312,-0.955,2.289,9.394,1
569,35.218,-97.513,0,0,13.653,312,-0.929,2.237,9.221,1
570,35.218,-97.513,0,0,13.653,312,-0.939,2.26,9.469,1
571,35.218,-97.513,0,0,13.653,312,-0.946,2.26,9.408,1
572,35.218,-97.513,0,0,13.653,312,-0.935,2.261,9.203,1
573,35.218,-97.513,0,0,13.653,312,-0.948,2.266,9.468,1
574,35.218,-97.513,0,0,13.653,312,-0.94,2.243,9.325,1
575,35.218,-97.513,0,0,13.653,312,-0.939,2.286,9.414,1
576,35.218,-97.513,0,0,13.653,312,-0.948,2.254,9.358,1
577,35.218,-97.513,0,0,13.653,312,-0.94,2.249,9.314,1
578,35.218,-97.513,0,0,13.653,312,-0.944,2.294,9.411,1
579,35.218,-97.513,0,0,13.653,312,-0.938,2.262,9.419,1
580,35.218,-97.513,0,0,13.653,312,-0.925,2.241,9.219,1
581,35.218,-97.513,0,0,13.653,312,-0.948,2.265,9.355,1
582,35.218,-97.513,0,0,13.653,312,-0.936,2.247,9.455,1
583,35.218,-97.513,0,0,13.653,312,-0.928,2.271,9.231,1
584,35.218,-97.513,0,0,13.653,312,-0.933,2.274,9.438,1
585,35.218,-97.513,0,0,13.653,312,-0.936,2.258,9.233,1
586,35.218,-97.513,0,0,13.653,312,-0.944,2.289,9.369,1
587,35.218,-97.513,0,0,13.653,312,-0.934,2.246,9.213,1
588,35.218,-97.513,0,0,13.653,312,-0.947,2.263,9.267,1
589,35.218,-97.513,0,0,13.653,312,-0.932,2.244,9.283,1
590,35.218,-97.513,0,0,13.653,312,-0.94,2.271,9.219,1
591,35.218,-97.513,0,0,13.653,312,-0.963,2.248,9.392,1
592,35.218,-97.513,0,0,13.653,312,-0.934,2.245,9.247,1
593,35.218,-97.513,0,0,13.653,312,-0.945,2.248,9.419,1
594,35.218,-97.513,0,0,13.653,312,-0.939,2.24,9.366,1
595,35.218,-97.513,0,0,13.653,312,-0.938,2.284,9.444,1
596,35.218,-97.513,0,0,13.653,312,-0.944,2.255,9.458,1
597,35.218,-97.513,0,0,13.653,312,-0.935,2.259,9.222,1
598,35.218,-97.513,0,0,13.653,312,-0.95,2.273,9.3,1
599,35.218,-97.513,0,0,13.653,312,-0.931,2.243,9.323,1
600,35.218,-97.513,0,0,13.653,312,-0.935,2.269,9.454,1
601,35.218,-97.513,0,0,13.653,312,-0.946,2.251,9.37,1
602,35.218,-97.513,0,0,13.653,312,-0.923,2.251,9.237,1
603,35.218,-97.513,0,0,13.653,312,-0.934,2.275,9.442,1
604,35.218,-97.513,0,0,13.653,312,-0.918,2.254,9.216,1
605,35.218,-97.513,0,0,13.653,312,-0.936,2.264,9.243,1
606,35.218,-97.513,0,0,13.653,312,-0.926,2.249,9.265,1
607,35.218,-97.513,0,0,13.653,312,-0.946,2.267,9.305,1
608,35.218,-97.513,0,0,13.653,312,-0.93,2.24,9.306,1
609,35.218,-97.513,0,0,13.653,312,-0.933,2.236,9.266,1
610,35.218,-97.513,0,0,13.653,312,-0.938,2.267,9.448,1
611,35.218,-97.513,0,0,13.653,312,-0.927,2.255,9.477,1
612,35.218,-97.513,0,0,13.653,312,-0.947,2.261,9.419,1
613,35.218,-97.513,0,0,13.653,312,-0.94,2.257,9.255,1
614,35.218,-97.513,0,0,13.653,312,-0.93,2.271,9.452,1
615,35.218,-97.513,0,0,13.653,312,-0.931,2.258,9.44,1
616,35.218,-97.513,0,0,13.653,312,-0.929,2.168,9.3,1
617,35.218,-97.513,0,0,13.653,312,-0.928,2.266,9.32,1
618,35.218,-97.513,0,0,13.653,312,-0.939,2.263,9.387,1
619,35.218,-97.513,0,0,13.653,312,-0.949,2.285,9.379,1
620,35.218,-97.513,0,0,13.653,312,-0.943,2.277,9.403,1
621,35.218,-97.513,0,0,13.653,312,-0.937,2.257,9.305,1
622,35.218,-97.513,0,0,13.653,312,-0.941,2.261,9.396,1
623,35.218,-97.513,0,0,13.653,312,-0.951,2.275,9.398,1
624,35.218,-97.513,0,0,13.653,312,-0.95,2.26,9.298,1
625,35.218,-97.513,0,0,13.653,312,-0.928,2.254,9.289,1
626,35.218,-97.513,0,0,13.653,312,-0.934,2.263,9.382,1
627,35.218,-97.513,0,0,13.653,312,-0.944,2.267,9.382,1
628,35.218,-97.513,0,0,13.653,312,-0.94,2.269,9.382,1
629,35.218,-97.513,0,0,13.653,312,-0.944,2.254,9.334,1
630,35.218,-97.513,0,0,13.653,312,-0.939,2.25,9.313,1
631,35.218,-97.513,0,0,13.653,312,-0.927,2.258,9.37,1
632,35.218,-97.513,0,0,13.653,312,-0.946,2.275,9.344,1
633,35.218,-97.513,0,0,13.653,312,-0.948,2.252,9.351,1
634,35.218,-97.513,0,0,13.653,312,-0.942,2.255,9.298,1
635,35.218,-97.513,0,0,13.653,312,-0.935,2.255,9.353,1
636,35.218,-97.513,0,0,13.653,312,-0.925,2.25,9.298,1
637,35.218,-97.513,0,0,13.653,312,-0.946,2.249,9.352,1
638,35.218,-97.513,0,0,13.653,312,-0.945,2.27,9.354,1
639,35.218,-97.513,0,0,13.653,312,-0.942,2.256,9.305,1
