time,lat,lng,bearing,spd,acc,alt,accx,accy,accz,stable
0,35.21839422,-97.42388288,0,0,4.5509996,324,-0.046,3.126,9.18,1
1,35.21839338,-97.42385358,91.7,3.07,4.5509996,324,-0.072,3.622,8.98,1
3,35.21842798,-97.42372802,71.1,6.69,4.5509996,324,-2.437,3.189,9.148,1
4,35.21847676,-97.42366407,43.4,7.87,4.5509996,322,-3.353,2.671,9.312,0
5,35.21853721,-97.42361406,25,7.85,4.5509996,323,-3.502,2.502,9.287,0
6,35.21862489,-97.42359551,5.7,9.4,4.5509996,324,-2.752,2.464,9.352,0
7,35.21870745,-97.42359924,358.8,9.51,4.5509996,325,-1.373,1.91,9.451,0
8,35.21879351,-97.42359631,358.5,9.67,4.5509996,325,-0.533,1.9,9.528,0
9,35.21888293,-97.42359245,358.5,9.57,4.5509996,325,-0.359,1.729,9.535,0
10,35.21895405,-97.42360226,359.7,9.59,4.5509996,326,-0.285,1.67,9.601,0
11,35.21903758,-97.4236001,0.4,9.37,4.5509996,326,-0.306,1.051,9.619,0
12,35.2191077,-97.42359654,1.3,7.95,4.5509996,325,-0.402,0.436,9.868,0
13,35.21916531,-97.42359426,1.5,6.58,4.5509996,326,-0.332,0.498,9.815,0
14,35.21922018,-97.42359121,2,5.57,4.5509996,325,-0.311,0.81,9.775,0
15,35.21926366,-97.42360049,1,4.65,4.5509996,325,-0.305,0.987,9.736,1
16,35.2192973,-97.42360179,2.7,3.66,4.5509996,325,-0.309,1.029,9.696,1
17,35.21933198,-97.42360196,3.5,3.14,4.5509996,324,-0.3,1.162,9.661,1
18,35.21935381,-97.423616,1.1,2.26,4.5509996,325,-0.32,1.26,9.605,1
19,35.21937235,-97.42362474,0.5,2.01,4.5509996,325,-0.318,1.681,9.531,1
20,35.21939078,-97.42362621,359.5,1.91,4.5509996,325,-0.318,1.819,9.512,1
21,35.21941116,-97.42361877,359,2.14,4.5509996,325,-0.311,2.311,9.381,1
22,35.21943049,-97.42361917,359,2.14,6.068,325,-0.292,2.634,9.322,1
23,35.21946379,-97.42361662,359.9,3.76,4.5509996,326,-0.274,2.487,9.349,1
24,35.21949001,-97.42363449,359.9,4.4,4.5509996,326,-0.304,2.337,9.391,1
25,35.21952973,-97.42363459,359.9,4.4,4.5509996,326,-0.269,2.478,9.345,1
26,35.21958565,-97.42362312,0.6,5.62,4.5509996,325,-0.275,2.576,9.331,1
27,35.21963373,-97.42363416,0.8,6.35,4.5509996,325,-0.273,2.572,9.316,1
28,35.21970867,-97.42361967,1.1,7.16,4.5509996,322,-0.261,2.539,9.325,1
29,35.21978508,-97.42361967,0.5,7.75,4.5509996,321,-0.299,2.617,9.281,1
30,35.21986332,-97.42362098,1.2,8.62,4.5509996,320,-0.336,2.435,9.414,1
31,35.21994033,-97.42361196,0.9,9,4.5509996,320,-0.381,2.401,9.35,1
32,35.22002116,-97.42361013,0.8,9.5,4.5509996,322,-0.386,2.323,9.391,1
33,35.22011972,-97.42361397,0,9.93,4.5509996,322,-0.463,2.489,9.325,1
34,35.22020768,-97.42360981,359.6,10.47,6.068,322,-0.53,2.405,9.377,1
36,35.22030699,-97.42360781,359.9,11.12,4.5509996,323,-0.465,2.35,9.374,1
37,35.22040984,-97.42360838,359.6,11.44,6.068,323,-0.422,2.234,9.404,1
38,35.22051302,-97.4236092,359.6,11.44,7.585,323,-0.441,2.224,9.394,1
39,35.22062724,-97.42360538,0.3,12.26,6.068,323,-0.475,2.194,9.441,1
40,35.22073776,-97.42360463,0.3,12.26,7.585,323,-0.485,1.753,9.57,1
41,35.22084482,-97.42360461,359.8,12.24,4.5509996,322,-0.471,2.107,9.448,1
42,35.22095904,-97.42360767,359.7,12.56,4.5509996,323,-0.455,2.166,9.419,1
43,35.22107749,-97.42362082,359.9,12.75,4.5509996,322,-0.651,2.012,9.44,1
44,35.22119244,-97.42362113,359.9,12.75,6.068,323,-0.615,1.973,9.442,1
45,35.22131558,-97.4236178,357.8,13.05,4.5509996,323,-0.332,1.768,9.52,1
46,35.22143316,-97.42362326,357.8,13.05,6.068,323,-0.247,1.597,9.484,1
47,35.22154846,-97.42362397,359.8,12.57,6.068,322,-0.3,1.952,9.461,1
48,35.22166178,-97.42362446,359.8,12.57,7.585,322,-0.44,1.986,9.462,1
49,35.22178854,-97.42362852,0.6,12.94,6.068,322,-0.536,2.148,9.38,1
50,35.2219052,-97.42362714,0.6,12.94,9.101999,323,-0.464,2.22,9.398,1
51,35.22202318,-97.4236376,0,13.47,6.068,322,-0.44,2.134,9.404,1
52,35.22214459,-97.42363766,0,13.47,9.101999,323,-0.453,2.018,9.449,1
53,35.22228326,-97.42362001,0.2,13.93,7.585,321,-0.465,1.944,9.447,1
54,35.2224088,-97.42361944,0.2,13.92,9.101999,321,-0.406,1.945,9.468,1
55,35.22252833,-97.42360764,0.5,14.11,6.068,321,-0.376,1.928,9.508,1
56,35.22265549,-97.42360639,0.5,14.1,7.585,322,-0.31,1.913,9.494,1
57,35.22278193,-97.42362037,0.9,14.19,6.068,321,-0.305,1.851,9.484,1
58,35.22290984,-97.42361803,0.9,14.19,7.585,321,-0.395,1.874,9.49,1
59,35.22304122,-97.42360496,1.9,14.21,6.068,320,-0.48,1.935,9.478,1
60,35.22316925,-97.42359986,1.9,14.21,7.585,320,-0.511,1.93,9.492,1
61,35.22330523,-97.4235883,1.4,14.47,6.068,319,-0.538,1.865,9.467,1
62,35.2234341,-97.42358297,1.1,14.46,6.068,319,-0.511,1.807,9.516,1
63,35.22356224,-97.42357955,0.7,14.32,6.068,320,-0.455,1.699,9.506,1
64,35.22368936,-97.42358694,0.5,14.17,6.068,321,-0.457,1.452,9.6,1
65,35.22380601,-97.4235894,359,13.34,6.068,321,-0.491,1.369,9.606,1
66,35.22392015,-97.4235893,0.3,13.09,6.068,321,-0.534,1.365,9.615,1
67,35.22403506,-97.42358783,0.4,12.69,6.068,320,-0.552,1.356,9.606,1
68,35.22413888,-97.42359074,359.2,12.12,6.068,321,-0.612,0.768,9.759,1
69,35.22425098,-97.4235972,359.6,11.09,6.068,321,-0.589,0.551,9.821,1
70,35.22433453,-97.4236061,359.1,9.38,6.068,321,-0.504,0.873,9.741,1
71,35.22441691,-97.42360235,358.4,8.49,6.068,322,-0.44,1.264,9.647,1
72,35.22449942,-97.42358766,358.6,8.02,4.5509996,323,-0.245,1.317,9.619,1
73,35.22456554,-97.42358447,0.6,7.47,4.5509996,323,-0.336,1.618,9.558,1
74,35.22463155,-97.42358014,1,7.23,4.5509996,323,-0.312,0.882,9.725,1
75,35.22468676,-97.42357498,2.6,6.28,4.5509996,323,-0.423,0.491,9.812,1
76,35.22473669,-97.42357613,3.6,4.93,4.5509996,323,-0.463,0.594,9.811,1
77,35.22476854,-97.42357782,3.7,3.5,4.5509996,323,-0.468,0.945,9.697,1
78,35.22479509,-97.42358402,1.6,2.57,4.5509996,323,-0.465,1.326,9.631,1
79,35.22480931,-97.4235857,3,2.09,4.5509996,323,-0.46,1.261,9.646,1
80,35.22482988,-97.4235892,4.1,1.54,4.5509996,323,-0.471,1.297,9.625,1
81,35.22482988,-97.4235892,4.1,1.54,4.5509996,323,-0.471,1.394,9.604,1
82,35.22482988,-97.4235892,4.1,1.54,4.5509996,323,-0.466,1.435,9.598,1
83,35.2248414,-97.42358042,0,0,4.5509996,321,-0.462,1.747,9.523,1
84,35.2248414,-97.42358042,0,0,4.5509996,321,-0.46,1.819,9.502,1
85,35.2248414,-97.42358042,0,0,4.5509996,321,-0.459,2.118,9.428,1
86,35.2248414,-97.42358042,0,0,4.5509996,321,-0.45,2.211,9.407,1
87,35.2248414,-97.42358042,0,0,4.5509996,321,-0.461,2.228,9.408,1
88,35.22484976,-97.42359138,4.1,1.52,4.5509996,322,-0.456,2.194,9.414,1
89,35.22486256,-97.42359223,4.1,1.47,4.5509996,322,-0.463,1.836,9.504,1
90,35.22487899,-97.42359441,4.1,1.35,4.5509996,322,-0.46,1.782,9.515,1
91,35.22489054,-97.4235974,2.4,1.34,4.5509996,322,-0.453,1.887,9.483,1
92,35.22490055,-97.42359716,0.5,1.51,4.5509996,322,-0.452,2.217,9.391,1
93,35.22491932,-97.42359683,0.4,2.71,4.5509996,322,-0.454,3.041,9.184,1
94,35.22494922,-97.42359761,359.1,3.77,4.5509996,322,-0.448,2.982,9.208,1
95,35.22499811,-97.42359898,359.9,5.2,4.5509996,323,-0.465,3.031,9.22,1
96,35.22505882,-97.42359769,0.5,6.21,4.5509996,323,-0.469,2.886,9.237,1
97,35.22512293,-97.42359196,0.1,7.02,4.5509996,323,-0.459,2.748,9.25,1
98,35.2251859,-97.42359136,359.5,7.69,4.5509996,323,-0.457,2.752,9.286,1
99,35.22526137,-97.42358873,359.4,8.47,4.5509996,325,-0.451,2.415,9.355,1
100,35.2253418,-97.42358289,359.9,8.98,4.5509996,325,-0.457,2.356,9.38,1
101,35.22542885,-97.42358389,359.7,9.49,4.5509996,324,-0.397,2.436,9.367,1
102,35.22552529,-97.42356902,0.5,10.04,4.5509996,325,-0.395,2.395,9.355,1
103,35.22562429,-97.42357201,359.5,10.54,4.5509996,324,-0.412,2.343,9.4,1
104,35.22572751,-97.4235689,359.6,10.99,4.5509996,325,-0.408,2.309,9.417,1
105,35.22582791,-97.42356892,0.4,11.44,4.5509996,325,-0.402,2.212,9.427,1
106,35.22593639,-97.42358206,359.9,11.76,4.5509996,323,-0.423,2.255,9.415,1
107,35.22604609,-97.42357943,0,12.03,4.5509996,325,-0.423,2.132,9.44,1
108,35.22614916,-97.42358653,0.2,12.52,4.5509996,324,-0.406,2.248,9.384,1
109,35.22625846,-97.42358254,359.3,12.95,4.5509996,323,-0.398,2.379,9.377,1
110,35.22638071,-97.42358608,0.4,13.86,4.5509996,323,-0.429,2.403,9.35,1
112,35.2266369,-97.42357862,0.5,14.36,4.5509996,321,-0.402,2.071,9.435,1
113,35.22676617,-97.42358827,0.9,14.52,6.068,320,-0.514,1.985,9.465,1
114,35.22690434,-97.4235837,0.6,14.59,4.5509996,318,-0.552,1.929,9.42,1
115,35.22703605,-97.42357582,0.3,14.74,4.5509996,318,-0.525,1.88,9.484,1
116,35.22716182,-97.4235768,0.1,14.69,4.5509996,319,-0.43,1.749,9.534,1
117,35.22729296,-97.42357505,0.5,14.57,6.068,321,-0.462,1.491,9.58,1
118,35.22742177,-97.42358631,0.3,14.27,6.068,321,-0.48,1.713,9.56,1
119,35.22755371,-97.42357794,0.8,14.21,6.068,323,-0.479,1.66,9.533,1
120,35.22768884,-97.42356546,0.6,14.05,7.585,323,-0.459,1.803,9.475,1
121,35.22781635,-97.42355666,0.8,14.07,7.585,324,-0.424,1.844,9.467,1
122,35.22794861,-97.42356334,0.7,14.08,6.068,324,-0.529,1.878,9.536,1
123,35.22807529,-97.42355748,0.2,14.12,6.068,325,-0.547,1.88,9.455,1
124,35.22820351,-97.42355296,359.9,14.23,6.068,325,-0.541,2.134,9.417,1
125,35.22833555,-97.42355917,359.3,14.67,4.5509996,326,-0.547,2.149,9.45,1
126,35.22846933,-97.42356035,359.2,14.86,4.5509996,327,-0.45,2.029,9.471,1
127,35.22860832,-97.42356774,359.1,15.1,4.5509996,326,-0.385,2.017,9.435,1
129,35.22874481,-97.42357683,359.4,15.19,4.5509996,327,-0.374,1.999,9.492,1
130,35.22888677,-97.42356437,359.7,15.39,6.068,325,-0.298,1.998,9.442,1
131,35.22902795,-97.42355951,0,15.53,6.068,324,-0.341,2.039,9.448,1
132,35.22916656,-97.42355584,0.7,15.85,6.068,325,-0.386,2.007,9.465,1
133,35.22930639,-97.42354774,0.4,15.9,6.068,326,-0.37,1.915,9.506,1
134,35.22944974,-97.42354662,0.4,15.9,7.585,326,-0.393,1.892,9.506,1
135,35.22959148,-97.42353321,0.4,15.97,6.068,327,-0.357,1.91,9.479,1
136,35.22973546,-97.42353204,0.4,15.97,7.585,327,-0.383,1.889,9.453,1
137,35.22988224,-97.42352788,0.7,16.09,6.068,326,-0.4,1.643,9.593,1
138,35.23002732,-97.42352584,0.7,16.09,7.585,326,-0.453,1.542,9.539,1
139,35.23017116,-97.42351934,0.6,15.47,6.068,326,-0.397,1.668,9.569,1
140,35.23031062,-97.42351769,0.6,15.47,9.101999,326,-0.459,1.46,9.552,1
141,35.23045233,-97.42352134,0.5,14.96,6.068,325,-0.364,1.649,9.514,1
142,35.2305872,-97.42351993,0.5,14.96,9.101999,325,-0.314,1.635,9.536,1
143,35.23071706,-97.42351226,1.1,14.64,7.585,324,-0.344,1.457,9.564,1
145,35.23095973,-97.42353413,1,13.88,7.585,324,-0.442,1.366,9.646,1
146,35.23108489,-97.42353158,1,13.88,10.6189995,324,-0.397,1.327,9.57,1
147,35.23120301,-97.42352443,1.1,13.06,7.585,322,-0.411,1.304,9.476,1
148,35.23132077,-97.42352175,1.1,13.06,10.6189995,322,-0.398,1.345,9.672,1
149,35.23143621,-97.42351261,1.1,12.27,6.068,322,-0.257,1.64,9.477,1
150,35.23154678,-97.42351008,1.1,12.26,7.585,322,-0.24,2.451,9.459,1
151,35.231659,-97.42349729,1.2,12.76,7.585,322,-0.307,2.979,9.158,1
152,35.23177397,-97.42349434,1.2,12.75,9.101999,322,-0.488,2.979,9.151,1
153,35.2319296,-97.42350974,1.3,15.31,6.068,321,-0.489,2.889,9.308,1
154,35.23206761,-97.42350591,1.3,15.31,9.101999,321,-0.564,2.808,9.289,1
155,35.23223429,-97.42350928,0.7,17.41,6.068,322,-0.566,2.793,9.31,1
156,35.23239568,-97.42352766,0.4,18.48,6.068,323,-0.411,2.718,9.298,1
157,35.2325624,-97.42352717,0.6,19.14,6.068,322,-0.48,2.691,9.347,1
158,35.23273756,-97.42351944,0.2,19.96,6.068,322,-0.314,2.645,9.225,1
159,35.23292032,-97.42351767,0,20.37,6.068,323,-0.281,2.3,9.215,1
160,35.23310716,-97.42351257,0.5,20.92,7.585,324,-0.523,2.192,9.375,1
161,35.23329956,-97.42351452,0,21.37,7.585,325,-0.55,2.093,9.351,1
162,35.23349911,-97.42351418,359.8,21.71,7.585,324,-0.553,2.125,9.475,1
163,35.2336979,-97.42351201,359.4,22.02,7.585,325,-0.513,2.071,9.331,1
164,35.23389876,-97.42350728,359,22.34,7.585,325,-0.561,2.039,9.226,1
165,35.23410569,-97.42351859,358.6,22.64,7.585,325,-0.54,1.642,9.401,1
166,35.23430805,-97.42352169,358.4,22.38,7.585,326,-0.501,1.642,9.476,1
167,35.2345093,-97.42351839,358.5,22.35,7.585,326,-0.525,1.649,9.51,1
168,35.23471965,-97.42353275,358.4,22.38,7.585,327,-0.373,1.594,9.488,1
169,35.23492241,-97.42353333,358.4,22.16,7.585,327,-0.296,1.451,9.608,1
170,35.23512147,-97.42353545,359,22.01,7.585,327,-0.395,1.527,9.568,1
171,35.23531574,-97.42353806,359.1,21.87,7.585,327,-0.289,1.521,9.556,1
172,35.23551142,-97.4235465,359.2,21.7,6.068,328,-0.338,1.619,9.58,1
173,35.23570644,-97.42354541,359.4,21.69,6.068,328,-0.375,1.655,9.53,1
174,35.235902,-97.42354849,359.3,21.7,6.068,328,-0.267,1.583,9.648,1
175,35.2362937,-97.42354867,359.6,21.64,4.5509996,328,-0.377,1.734,9.564,1
176,35.23648597,-97.42355723,359.2,21.66,4.5509996,328,-0.478,1.836,9.506,1
177,35.23668543,-97.4235575,359.3,21.81,4.5509996,328,-0.429,1.872,9.631,1
178,35.23687728,-97.42355416,359.4,21.73,4.5509996,328,-0.345,1.762,9.55,1
179,35.23707816,-97.42355749,359.7,21.65,4.5509996,329,-0.331,1.693,9.627,1
180,35.23726712,-97.42355678,359.6,21.37,4.5509996,329,-0.471,1.533,9.616,1
181,35.2374582,-97.42355987,359.5,21.08,4.5509996,330,-0.356,1.618,9.638,1
182,35.23764692,-97.42356154,359.6,20.88,4.5509996,331,-0.442,1.605,9.575,1
183,35.23783827,-97.42356388,359.6,20.7,4.5509996,331,-0.372,1.587,9.532,1
184,35.23801931,-97.42355738,359.6,20.3,4.5509996,331,-0.413,1.642,9.553,1
185,35.23819798,-97.42355991,359.6,20.25,4.5509996,332,-0.433,1.748,9.526,1
186,35.23837605,-97.42358872,359.6,20.19,4.5509996,329,-0.414,1.755,9.516,1
187,35.23855469,-97.42359113,359.5,20.06,4.5509996,330,-0.447,1.763,9.544,1
188,35.23873365,-97.42358778,359.1,19.97,4.5509996,328,-0.442,1.751,9.543,1
189,35.23891503,-97.42358316,359.4,19.76,4.5509996,327,-0.356,1.847,9.493,1
190,35.23909539,-97.42358579,359.6,19.81,6.068,326,-0.364,1.702,9.487,1
191,35.23927576,-97.42358721,359.6,19.42,6.068,327,-0.376,1.794,9.529,1
192,35.23944792,-97.42358323,359.7,19.39,6.068,327,-0.428,1.799,9.51,1
193,35.23962277,-97.42358424,359.7,19.39,7.585,328,-0.404,1.805,9.487,1
194,35.23979581,-97.42357473,359.8,19.24,6.068,330,-0.434,1.779,9.524,1
195,35.23996854,-97.42357287,0.4,19.33,6.068,330,-0.428,1.857,9.5,1
196,35.24014276,-97.42357125,0.4,19.33,9.101999,330,-0.44,1.876,9.472,1
197,35.24031024,-97.42357761,359.5,19.02,6.068,330,-0.398,1.893,9.379,1
198,35.24048172,-97.42357944,359.5,19.02,9.101999,330,-0.407,1.863,9.465,1
199,35.24065524,-97.42357904,359.4,19.09,6.068,331,-0.391,1.855,9.434,1
200,35.24082415,-97.42357361,359.2,19.11,6.068,331,-0.38,1.834,9.404,1
201,35.24099014,-97.4235792,359.3,19.14,6.068,330,-0.332,1.917,9.437,1
202,35.24116387,-97.42357535,359.9,19.45,6.068,330,-0.325,2.136,9.356,1
203,35.24134202,-97.42357699,359.7,19.84,6.068,330,-0.339,2.24,9.272,1
204,35.24152083,-97.42357812,359.7,19.83,9.101999,330,-0.391,2.123,9.342,1
206,35.24170372,-97.42358165,0,20.99,6.068,329,-0.521,1.878,9.47,1
207,35.24189526,-97.42357574,359.8,21.08,6.068,329,-0.473,1.75,9.514,1
208,35.24208637,-97.42357774,359.5,21.17,7.585,329,-0.476,1.487,9.506,1
209,35.24227804,-97.42357328,359.4,21.08,7.585,329,-0.434,1.709,9.498,1
210,35.24246806,-97.42357569,359.4,21.08,7.585,329,-0.294,1.779,9.454,1
211,35.2426667,-97.42358325,359.5,21.64,6.068,329,-0.257,1.572,9.567,1
212,35.24286178,-97.4235853,359.5,21.64,9.101999,329,-0.301,1.44,9.665,1
213,35.24306154,-97.42359408,359.9,21.53,6.068,328,-0.199,1.514,9.685,1
214,35.24325563,-97.42359461,359.9,21.53,9.101999,328,-0.17,1.415,9.672,1
215,35.24343798,-97.42362017,0,21.1,7.585,328,-0.059,1.401,9.685,1
216,35.24362832,-97.42361917,0.8,20.81,7.585,328,-0.086,1.393,9.632,1
217,35.24381735,-97.42361184,1.2,20.6,7.585,328,-0.321,1.668,9.503,1
218,35.24400301,-97.42360718,1.2,20.6,9.101999,328,-0.283,1.632,9.523,1
219,35.24419097,-97.42360912,1.3,20.51,6.068,328,-0.25,1.471,9.618,1
220,35.24437576,-97.4236039,1.3,20.5,9.101999,328,-0.262,1.506,9.668,1
221,35.24455411,-97.42359577,1.5,20.18,6.068,329,-0.282,1.525,9.754,1
222,35.244736,-97.42359014,1.5,20.18,7.585,329,-0.3,1.73,9.739,1
223,35.24490488,-97.42357666,1.9,19.63,6.068,327,-0.386,1.877,9.669,1
224,35.24508175,-97.42356942,1.9,19.63,7.585,327,-0.34,1.893,9.579,1
225,35.24525857,-97.42356132,2.1,19.38,6.068,328,-0.307,2.159,9.378,1
226,35.24543326,-97.4235535,2.1,19.39,7.585,329,-0.334,1.809,9.378,1
227,35.24560072,-97.4235575,2.6,19.38,6.068,329,-0.429,1.557,9.397,1
228,35.24577527,-97.42354801,2.6,19.38,7.585,329,-0.527,1.418,9.475,1
229,35.24593963,-97.42353498,2.1,18.33,6.068,328,-0.54,1.391,9.509,1
230,35.2461048,-97.42352771,2.1,18.33,6.068,329,-0.376,0.742,9.577,1
231,35.24625939,-97.42352912,2.2,16.94,4.5509996,330,-0.32,1.987,9.313,1
232,35.24641204,-97.42352209,2.2,16.94,6.068,330,-0.209,2.663,9.18,1
233,35.24655658,-97.42350227,3,18.06,4.5509996,330,-0.833,2.764,9.166,1
234,35.2467293,-97.42350209,1,19.69,4.5509996,329,-0.891,2.796,9.166,1
235,35.24690684,-97.42349991,359.7,20.67,4.5509996,329,-0.647,2.262,9.165,1
236,35.24710439,-97.42350072,359.3,21.83,6.068,330,-0.444,1.583,9.426,1
237,35.24731143,-97.42348751,358.7,21.81,6.068,330,-0.78,1.464,9.672,1
238,35.24750802,-97.42349146,358.4,22.13,4.5509996,329,-0.722,1.712,9.684,1
239,35.24770535,-97.42350985,357.4,22.34,4.5509996,329,-0.641,1.771,9.746,1
240,35.24791062,-97.42352072,356.5,22.51,4.5509996,330,-0.67,1.784,9.783,1
241,35.24812512,-97.4235224,356,22.8,6.068,330,-0.424,1.743,9.777,1
242,35.24833603,-97.42353018,355.4,22.8,4.5509996,329,-0.097,1.527,9.786,1
243,35.24853771,-97.42354967,356.5,22.53,4.5509996,329,0.012,1.446,9.802,1
244,35.24874565,-97.4235593,357.5,21.93,4.5509996,329,-0.184,1.42,9.783,1
245,35.24893941,-97.42358436,357.9,21.32,4.5509996,327,-0.241,1.387,9.716,1
246,35.24912605,-97.42358944,358.2,20.73,4.5509996,329,-0.364,1.372,9.531,1
247,35.24948423,-97.42359724,358.6,19.54,4.5509996,330,-0.222,1.361,9.456,1
248,35.24964982,-97.42360752,358.6,19.17,4.5509996,328,-0.268,1.597,9.364,1
249,35.24983076,-97.42362283,358.8,19.25,4.5509996,328,-0.359,1.715,9.446,1
250,35.25000376,-97.42362497,358.5,19.39,4.5509996,329,-0.311,1.875,9.33,1
251,35.25018842,-97.42363208,358.9,19.77,4.5509996,328,-0.254,2.035,9.25,1
252,35.25036857,-97.42363203,359.1,20.14,6.068,328,-0.315,2.055,9.349,1
253,35.25055112,-97.42363337,359.2,20.56,6.068,327,-0.419,1.754,9.378,1
254,35.25073693,-97.42364417,359.4,20.46,6.068,328,-0.51,1.599,9.551,1
255,35.25091904,-97.4236393,359.3,20.86,6.068,327,-0.485,1.902,9.639,1
256,35.25110742,-97.42364341,359.5,20.84,4.5509996,327,-0.42,1.692,9.683,1
257,35.25128913,-97.42363949,359.7,20.6,4.5509996,328,-0.396,1.516,9.694,1
258,35.25147841,-97.42363184,359.9,20.26,4.5509996,327,-0.399,1.574,9.823,0
259,35.25165555,-97.4236249,0,19.79,4.5509996,328,-0.492,1.646,9.694,0
260,35.2518344,-97.42362663,359.9,19.7,4.5509996,328,-0.338,1.914,9.634,0
261,35.25201336,-97.42362173,0.1,19.49,4.5509996,328,-0.324,1.892,9.63,0
262,35.25218015,-97.42362186,0.1,19.01,6.068,329,-0.3,1.634,9.434,0
263,35.2523456,-97.42362017,0.7,18.18,6.068,330,-0.25,1.457,9.577,0
264,35.25250949,-97.42361786,0.7,18.18,6.068,330,-0.269,1.647,9.56,0
265,35.2526693,-97.42361171,0.8,17.31,6.068,329,-0.345,1.752,9.482,0
266,35.25282954,-97.42361933,0.9,16.86,6.068,327,-0.364,2.153,9.379,0
267,35.25298154,-97.42361646,0.9,16.86,7.585,327,-0.425,2.223,9.305,1
268,35.2531414,-97.42361227,0.6,17.1,6.068,328,-0.4,1.729,9.413,1
269,35.25329467,-97.42361447,0.7,16.64,6.068,328,-0.483,1.718,9.441,1
270,35.25343767,-97.42360571,1,16.16,6.068,328,-0.528,1.469,9.497,1
271,35.25357773,-97.42360839,359.9,15.53,6.068,328,-0.422,1.413,9.596,1
272,35.25371774,-97.42360864,359.9,15.53,7.585,328,-0.395,1.378,9.602,1
273,35.2538369,-97.42361744,0,14.38,6.068,329,-0.378,1.583,9.533,1
274,35.25395553,-97.42361074,359.7,14.15,6.068,329,-0.358,1.601,9.528,1
275,35.2540841,-97.4236119,359.8,13.6,6.068,329,-0.362,1.383,9.526,1
276,35.25420816,-97.42360505,0,13.28,6.068,329,-0.356,1.738,9.468,1
277,35.25432335,-97.42361479,359.8,13.35,6.068,329,-0.337,1.895,9.413,1
278,35.25445123,-97.42362332,359.7,13.38,6.068,329,-0.333,1.994,9.421,1
279,35.25457745,-97.42361856,359.6,13.67,6.068,329,-0.339,2.182,9.326,1
280,35.25470439,-97.42361365,359.3,14.25,6.068,330,-0.316,2.389,9.302,1
281,35.25484371,-97.42360562,359.4,14.98,6.068,330,-0.339,2.105,9.35,1
282,35.25498057,-97.42361085,359,15.37,6.068,330,-0.343,2.072,9.347,1
283,35.25512772,-97.42360969,359.5,16.22,6.068,330,-0.328,2.082,9.376,1
284,35.25527068,-97.42361368,358.6,16.48,6.068,330,-0.332,2.172,9.368,1
285,35.2554273,-97.42362115,358.1,16.98,7.585,329,-0.337,2.213,9.297,1
286,35.25558025,-97.42362722,358.1,16.97,10.6189995,329,-0.287,2.204,9.373,1
287,35.25575665,-97.42363835,358.1,18.5,7.585,330,-0.218,2.184,9.426,1
289,35.25592331,-97.42363918,358.7,19.2,7.585,331,-0.17,1.944,9.405,1
290,35.25609631,-97.42364411,358.7,19.19,10.6189995,331,-0.277,1.689,9.869,0
291,35.25627528,-97.42364172,359.9,20.07,7.585,329,-0.388,1.435,9.487,0
292,35.25646159,-97.42364397,359.9,20.06,7.585,329,-0.36,1.466,9.492,0
293,35.25664242,-97.42364421,359.9,20.06,10.6189995,326,-0.493,1.596,9.592,0
294,35.25681658,-97.42363074,359.1,20.29,7.585,327,-0.433,1.59,9.556,0
295,35.25699947,-97.42363416,359.1,20.29,9.101999,327,-0.297,1.416,9.606,0
296,35.25719891,-97.4236365,358.7,20.29,7.585,328,-0.203,1.354,9.595,0
297,35.25738176,-97.42364144,358.7,20.29,9.101999,328,-0.323,1.724,9.612,0
298,35.25758301,-97.4236482,359.6,20.82,6.068,327,-0.335,1.532,9.552,0
299,35.25777377,-97.4236697,359.5,20.86,6.068,325,-0.364,1.45,9.577,1
300,35.25796175,-97.42367178,359.5,20.85,7.585,325,-0.435,1.598,9.579,1
301,35.25815691,-97.42366414,359.3,21.15,7.585,325,-0.399,1.717,9.484,1
302,35.25835585,-97.42365861,359.5,21.73,7.585,325,0.155,2.088,9.418,1
303,35.25855169,-97.42366069,359.5,21.72,7.585,325,0.156,2.216,9.43,1
304,35.25876541,-97.42364871,2.3,23.13,7.585,324,-0.414,2.283,9.329,1
305,35.2589841,-97.42363746,1.9,24.51,6.068,323,-0.878,2.283,9.452,1
306,35.2592059,-97.42362507,0.9,25.35,6.068,323,-1.04,2.24,9.45,1
307,35.25944222,-97.42361742,0.3,26.07,7.585,321,-0.773,1.934,9.528,1
308,35.25967703,-97.42361433,0,26.36,7.585,321,-0.7,1.627,9.663,1
309,35.25991193,-97.42363289,359.7,26.4,6.068,320,-0.658,1.666,9.649,1
310,35.26014561,-97.42363182,359.6,26.63,6.068,319,-0.583,1.733,9.517,1
311,35.26038532,-97.42361782,359.6,27.05,7.585,318,-0.525,1.74,9.542,1
312,35.26063333,-97.42362231,359.8,27.26,6.068,319,-0.606,1.752,9.558,1
313,35.26087902,-97.42362318,359.8,27.25,7.585,318,-0.707,1.569,9.715,1
314,35.26112858,-97.42363987,359.6,27.61,6.068,318,-0.694,1.448,9.874,0
315,35.26137536,-97.42364167,359.5,27.36,6.068,318,-0.576,1.425,9.647,0
316,35.26161619,-97.42363953,359.7,27.12,6.068,317,-0.566,1.418,9.546,0
317,35.2618621,-97.42364361,359.9,26.88,6.068,317,-0.623,1.434,9.612,0
318,35.26210191,-97.42365177,0,26.59,6.068,317,-0.765,1.581,9.67,0
319,35.26233579,-97.42365852,359.9,26.47,6.068,316,-0.822,1.531,9.618,0
320,35.26257796,-97.423662,359.8,26.5,6.068,317,-0.713,1.509,9.469,0
321,35.26281522,-97.4236628,359.7,26.5,6.068,317,-0.784,1.296,9.477,0
322,35.2630515,-97.42366446,359.2,25.98,6.068,316,-0.536,1.257,9.481,0
323,35.26328536,-97.42367033,359,25.76,4.5509996,316,-0.341,1.29,9.68,1
324,35.26351894,-97.42367823,359.4,25.52,4.5509996,315,-0.027,1.328,9.855,0
325,35.26375248,-97.42367544,1.1,25.47,4.5509996,314,-0.283,1.532,9.811,0
326,35.26397963,-97.42366789,2,25.13,4.5509996,314,-0.8,1.825,9.653,0
327,35.26420487,-97.42366128,0.6,25.16,4.5509996,315,-0.826,1.922,9.567,0
328,35.26443414,-97.42365795,0.3,25.12,4.5509996,315,-0.631,1.9,9.549,0
329,35.26466274,-97.42365544,359.8,25.22,4.5509996,315,-0.519,1.921,9.611,0
330,35.2648918,-97.42365634,359.7,25.25,4.5509996,316,-0.622,1.897,9.67,0
331,35.26512151,-97.42366157,359.4,25.17,4.5509996,314,-0.766,1.621,9.712,0
332,35.26534138,-97.42367373,359,24.67,4.5509996,315,-0.597,1.403,9.664,0
333,35.26555733,-97.42368015,359.1,23.88,4.5509996,317,-0.334,1.31,9.512,0
334,35.26577055,-97.42367121,359.6,23.2,4.5509996,317,-0.397,1.3,9.431,1
335,35.2659769,-97.42367574,0,22.67,6.068,318,-0.636,1.3,9.423,1
336,35.26637695,-97.42367166,0,21.74,4.5509996,319,-0.645,1.475,9.388,1
337,35.26657329,-97.42366644,0.2,21.65,4.5509996,319,-0.623,1.619,9.437,1
338,35.26676182,-97.42366367,0.1,21.55,4.5509996,319,-0.698,1.631,9.411,1
339,35.26695265,-97.42366524,359.7,21.6,4.5509996,318,-0.721,1.644,9.456,1
340,35.26714535,-97.42366425,359.6,21.8,4.5509996,318,-0.853,1.664,9.574,1
341,35.26733355,-97.42367164,358.8,21.7,4.5509996,317,-0.879,1.665,9.658,1
342,35.26753423,-97.42367855,358.4,21.64,4.5509996,316,-0.993,1.661,9.646,0
343,35.26772492,-97.42368364,358.2,21.46,4.5509996,317,-0.816,1.664,9.639,0
344,35.26791773,-97.42368912,358.2,21.21,4.5509996,317,-0.449,1.707,9.669,0
345,35.26810564,-97.42369359,358.6,21.22,4.5509996,317,-0.341,1.917,9.589,0
346,35.26830176,-97.42368682,359.3,21.18,4.5509996,317,-0.266,2.092,9.529,0
347,35.26849475,-97.42370143,0.1,21.43,4.5509996,319,-0.25,2.2,9.354,0
348,35.26869263,-97.4237116,0,21.64,4.5509996,320,-0.358,2.246,9.189,0
349,35.26889599,-97.42372055,0,22.15,4.5509996,319,-0.463,2.266,9.212,0
350,35.26909573,-97.42372094,359.7,22.5,4.5509996,320,-0.538,2.152,9.309,0
351,35.26930114,-97.42372058,359.8,22.64,6.068,320,-0.37,1.967,9.259,1
352,35.26950336,-97.42371689,359.9,23.09,4.5509996,320,-0.387,1.937,9.228,1
353,35.26971623,-97.42371816,359.9,23.44,4.5509996,320,-0.401,1.945,9.279,1
354,35.26992803,-97.42371515,0.1,24.06,4.5509996,319,-0.335,1.908,9.171,1
355,35.27014372,-97.42371451,0.4,24.39,4.5509996,319,-0.258,1.655,9.291,1
356,35.27036692,-97.4237068,0,24.43,4.5509996,318,-0.406,1.364,9.506,1
357,35.2705896,-97.4237117,359.8,24.4,4.5509996,318,-0.323,1.288,9.524,1
358,35.27081008,-97.42370914,0.2,24.36,4.5509996,317,-0.371,1.275,9.509,1
359,35.2710305,-97.42371049,359.9,24.39,4.5509996,316,-0.393,1.263,9.46,1
360,35.27125835,-97.42372311,0.1,24.69,6.068,313,-0.283,1.278,9.594,1
361,35.27148096,-97.42371927,0,24.53,6.068,312,-0.331,1.3,9.648,1
362,35.27170159,-97.42372514,0.2,24.83,4.5509996,311,-0.387,1.302,9.69,1
363,35.27192865,-97.42372487,0.1,24.95,4.5509996,311,-0.435,1.287,9.694,1
364,35.27215785,-97.42371829,0.1,24.98,4.5509996,310,-0.397,1.277,9.742,1
365,35.27238567,-97.42371647,0.5,25.11,4.5509996,309,-0.45,1.3,9.841,1
366,35.27260868,-97.42372138,359.9,24.95,6.068,309,-0.502,1.335,9.794,1
367,35.27283817,-97.42371434,359.9,24.78,6.068,307,-0.415,1.37,9.858,0
368,35.27305822,-97.42370356,359.8,24.54,6.068,307,-0.333,1.36,9.797,0
370,35.27349203,-97.42370083,359.8,23.86,6.068,306,-0.302,1.373,9.764,0
371,35.27369892,-97.42369489,359.9,23.41,6.068,306,-0.107,1.336,9.639,0
372,35.27390505,-97.42369156,0.3,22.89,6.068,306,-0.169,1.339,9.622,0
373,35.27410812,-97.42368625,0.4,22.46,6.068,306,-0.218,1.301,9.416,0
374,35.27431243,-97.42367429,0.3,22.1,6.068,305,-0.377,1.295,9.592,0
375,35.27451161,-97.42367284,0.3,22.09,7.585,304,-0.432,1.389,9.713,0
377,35.27470834,-97.42366683,0.5,21.47,6.068,304,-0.384,1.424,9.316,0
378,35.27489862,-97.42366297,0.5,21.51,6.068,303,-0.358,1.885,9.63,0
379,35.27509765,-97.42366322,0.7,21.93,6.068,303,-0.206,1.684,9.577,1
380,35.27529448,-97.42366115,1,21.97,6.068,307,-0.304,1.745,9.738,1
381,35.2754882,-97.42364161,1.2,22.17,6.068,306,-0.525,1.893,9.65,1
382,35.27568485,-97.42364679,0.9,22.31,6.068,304,-0.572,2.011,9.612,1
383,35.27588976,-97.42364068,0.6,22.48,6.068,303,-0.611,1.982,9.388,1
384,35.27609242,-97.42363805,0.6,22.48,7.585,303,-0.579,2.026,9.571,1
385,35.27631806,-97.42364571,359.8,23.04,6.068,302,-0.45,2.004,9.52,1
386,35.27652869,-97.42366034,359.6,23.2,6.068,301,-0.399,1.965,9.517,1
387,35.27673781,-97.42366225,359.6,23.2,7.585,301,-0.398,1.951,9.527,1
388,35.27693952,-97.42366327,359.6,23.45,6.068,302,-0.403,1.933,9.506,1
389,35.27715092,-97.42366489,359.6,23.45,7.585,302,-0.502,1.976,9.651,1
390,35.27736449,-97.42366925,359.4,23.48,6.068,301,-0.508,1.968,9.554,1
391,35.27757618,-97.42367215,359.4,23.48,7.585,301,-0.32,2.074,9.575,1
392,35.27778055,-97.42366883,359.4,23.5,6.068,302,-0.287,2.125,9.625,1
393,35.27799236,-97.42367156,359.4,23.5,7.585,302,-0.386,2.182,9.607,1
394,35.27819414,-97.42366637,359.8,23.42,6.068,303,-0.39,2.215,9.391,1
395,35.27840523,-97.42366706,359.8,23.42,7.585,304,-0.438,2.235,9.381,1
396,35.27861925,-97.42365843,0.2,23.57,6.068,302,-0.453,2.232,9.383,1
397,35.27883171,-97.42365743,0.2,23.57,7.585,303,-0.468,2.266,9.408,1
398,35.27905639,-97.42364188,0.1,23.75,6.068,304,-0.531,2.28,9.37,1
399,35.27927052,-97.42364129,0.1,23.75,9.101999,304,-0.421,2.215,9.145,1
400,35.2794821,-97.42363155,0.2,24.02,6.068,304,-0.41,2.247,9.212,1
401,35.27969859,-97.4236308,0.2,24.02,9.101999,305,-0.426,2.236,9.156,1
402,35.27991935,-97.42362842,0.2,24.6,6.068,304,-0.427,2.243,9.134,1
403,35.280139,-97.42362464,0.4,24.69,7.585,305,-0.448,1.649,9.365,1
404,35.28036106,-97.42362681,0.2,24.73,7.585,305,-0.534,1.419,9.628,1
405,35.28058828,-97.42364608,0.1,24.04,7.585,305,-0.539,1.355,9.574,1
406,35.28081,-97.42364204,0,23.69,7.585,309,-0.445,1.626,9.565,1
407,35.28101928,-97.42364543,0.2,23.63,7.585,308,-0.465,1.8,9.468,1
408,35.28123517,-97.42364961,359.9,23.79,7.585,307,-0.523,1.893,9.457,1
409,35.28145682,-97.42365272,0,23.88,6.068,306,-0.473,1.873,9.436,1
410,35.28167489,-97.42365582,0,24.03,6.068,307,-0.56,1.859,9.495,1
411,35.28189104,-97.42366254,359.9,24.02,6.068,306,-0.544,1.844,9.432,1
412,35.28211164,-97.42366736,359.7,24.1,6.068,307,-0.416,1.834,9.503,1
413,35.28233064,-97.42366902,359.8,24.17,6.068,307,-0.298,1.799,9.489,1
414,35.28254809,-97.42366965,0.2,24.16,6.068,307,-0.474,1.811,9.482,1
415,35.28276603,-97.42367023,0.2,24.3,6.068,307,-0.564,1.821,9.515,1
416,35.28296839,-97.42367509,0.1,24.25,4.5509996,308,-0.571,1.807,9.488,1
417,35.28318025,-97.42367759,359.9,24.27,4.5509996,308,-0.557,1.799,9.49,1
418,35.28339686,-97.42367739,359.6,24.26,4.5509996,308,-0.275,1.771,9.414,1
419,35.28383081,-97.42367157,0.6,24.31,6.068,308,-0.279,1.759,9.343,1
420,35.28404679,-97.42366245,0.4,24.46,4.5509996,308,-0.435,1.733,9.292,1
421,35.28426883,-97.42366276,0.2,24.65,4.5509996,308,-0.55,1.741,9.34,1
422,35.28449254,-97.42366728,359.9,24.74,4.5509996,308,-0.51,1.7,9.447,1
423,35.28471657,-97.42366857,0.2,24.79,4.5509996,307,-0.427,1.638,9.491,1
424,35.28493509,-97.42366827,0.3,25.01,4.5509996,307,-0.442,1.622,9.577,1
425,35.28515755,-97.42366861,0.3,24.92,4.5509996,307,-0.494,1.572,9.499,1
426,35.28538065,-97.42367475,359.8,25.02,4.5509996,306,-0.704,1.531,9.575,1
427,35.28560322,-97.42367209,359.7,24.76,4.5509996,307,-0.471,1.514,9.629,1
428,35.28582532,-97.42367064,359.9,24.7,4.5509996,307,-0.441,1.485,9.495,1
429,35.28605216,-97.42366735,359.9,24.66,4.5509996,307,-0.491,1.534,9.596,1
430,35.28627051,-97.42366255,359.9,24.59,4.5509996,307,-0.393,1.588,9.745,1
431,35.28648402,-97.42366349,0.1,24.49,4.5509996,307,-0.341,1.613,9.65,1
432,35.28670537,-97.42366498,0,24.34,4.5509996,307,-0.458,1.636,9.592,1
433,35.28693162,-97.42365873,359.9,24.24,4.5509996,306,-0.436,1.694,9.686,1
434,35.28715316,-97.42366403,0.4,24.12,4.5509996,307,-0.411,1.709,9.631,1
435,35.28737252,-97.42366612,0.3,23.99,4.5509996,307,-0.4,1.756,9.617,1
436,35.28758829,-97.42366251,0.3,23.87,4.5509996,307,-0.497,1.801,9.414,1
437,35.28780578,-97.42365457,0.2,23.82,4.5509996,308,-0.555,1.845,9.516,1
438,35.28802053,-97.42365381,0.2,23.82,6.068,308,-0.504,1.857,9.492,1
439,35.28824315,-97.4236433,0,23.78,4.5509996,306,-0.565,1.875,9.471,1
440,35.28845339,-97.42364385,0.1,23.75,4.5509996,307,-0.431,1.888,9.492,1
441,35.2886675,-97.42364328,0.1,23.75,6.068,307,-0.418,1.818,9.425,1
442,35.28887822,-97.42363653,0,23.65,4.5509996,307,-0.39,1.555,9.531,1
443,35.28909152,-97.42364135,0.5,23.09,4.5509996,307,-0.259,1.328,9.664,1
444,35.28929714,-97.42363362,0.9,22.13,6.068,307,-0.379,0.584,9.772,1
445,35.28948788,-97.42363159,1,20.37,4.5509996,308,-0.478,0.288,9.883,1
446,35.28966043,-97.42363522,1,18.66,4.5509996,308,-0.525,0.179,9.904,1
447,35.2898228,-97.42363604,0.9,16.96,4.5509996,308,-0.501,-0.027,9.925,1
448,35.28996244,-97.42363597,0.6,14.88,4.5509996,309,-0.465,-0.316,9.992,0
449,35.29008198,-97.42363101,0.4,12.67,4.5509996,308,-0.474,-0.385,10.027,0
450,35.29017889,-97.42363308,359.8,10.44,4.5509996,306,-0.398,0.036,9.903,0
451,35.29026431,-97.4236354,0.1,9.33,6.068,307,-0.371,1.132,9.642,0
452,35.29033908,-97.42363366,0.5,8.7,6.068,307,-0.364,1.316,9.579,0
453,35.29041509,-97.42363802,0.1,8.14,6.068,307,-0.357,0.574,9.783,0
454,35.29048374,-97.42364669,359.5,6.53,6.068,307,-0.375,0.404,9.856,0
455,35.29052786,-97.4236424,359.6,5.04,6.068,307,-0.398,0.584,9.797,0
456,35.29055638,-97.42364354,359,3.67,6.068,308,-0.404,0.589,9.802,0
457,35.29058765,-97.42364738,358.8,2.57,6.068,307,-0.395,0.985,9.688,0
458,35.29061232,-97.4236591,358.2,1.86,6.068,307,-0.394,1.093,9.657,1
459,35.29063598,-97.42366455,358.3,1.04,6.068,306,-0.4,1.182,9.637,1
460,35.2906223,-97.42366225,0,0,7.585,306,-0.391,1.301,9.62,1
462,35.2906223,-97.42366225,0,0,7.585,306,-0.394,1.734,9.507,1
463,35.2906204,-97.42364958,0,0,7.585,307,-0.363,3.155,9.157,1
464,35.29063051,-97.42364364,358.5,1.5,7.585,308,-0.358,4.856,8.681,1
465,35.2906439,-97.42364084,358.5,1.5,9.101999,308,-0.33,4.602,8.729,1
466,35.29073957,-97.42363816,0.8,8.34,7.585,309,-0.272,4.648,8.73,1
467,35.2908366,-97.42363119,0.6,11.29,7.585,310,-0.408,4.657,8.743,1
468,35.29095049,-97.4236256,0.1,13.58,7.585,310,-0.432,4.473,8.766,1
469,35.29107973,-97.4236383,0.1,15.84,7.585,313,-0.487,4.275,8.831,1
470,35.29122248,-97.42363815,0.1,15.83,10.6189995,313,-0.399,4.042,8.907,1
471,35.29144129,-97.42364838,359.2,20.92,7.585,314,-0.366,3.852,9.009,1
472,35.29162981,-97.42365154,359.2,20.91,9.101999,314,-0.42,2.609,9.269,1
474,35.29205485,-97.42365265,359.5,23.19,9.101999,315,-0.37,2.168,9.356,1
475,35.29226674,-97.42364709,0,23.91,6.068,316,-0.499,2.109,9.487,1
476,35.292477,-97.42364334,0.5,24.22,6.068,316,-0.541,2.142,9.413,1
477,35.2926946,-97.42365441,0.3,24.35,6.068,316,-0.537,1.815,9.532,1
478,35.29291902,-97.42365562,0.4,24.43,6.068,317,-0.553,1.721,9.495,1
479,35.29313927,-97.42365354,0.4,24.43,7.585,317,-0.649,1.747,9.572,1
480,35.29335513,-97.42365044,359.8,24.3,6.068,316,-0.577,1.766,9.558,1
481,35.29357418,-97.42365142,359.8,24.3,9.101999,316,-0.439,1.78,9.554,1
482,35.2937992,-97.42366004,0,24.1,6.068,317,-0.502,1.806,9.42,1
483,35.29401422,-97.42364791,0.3,24,6.068,316,-0.562,1.862,9.509,1
484,35.29423057,-97.4236466,0.3,24,7.585,316,-0.539,1.891,9.469,1
485,35.29443707,-97.42364266,0.2,23.99,6.068,313,-0.515,1.908,9.448,1
486,35.29465431,-97.4236347,359.8,24.26,6.068,313,-0.541,1.926,9.476,1
487,35.29488275,-97.4236348,359.9,24.14,4.5509996,314,-0.404,1.905,9.434,1
488,35.29510039,-97.42363506,359.9,24.14,6.068,314,-0.441,1.902,9.512,1
489,35.2953105,-97.42362267,0.4,24.12,4.5509996,316,-0.503,1.882,9.496,1
490,35.29553888,-97.4236404,0.3,24.13,4.5509996,316,-0.528,1.878,9.483,1
491,35.29575532,-97.42364092,0.1,24.24,6.068,318,-0.501,1.878,9.437,1
492,35.29597809,-97.42363677,359.9,24.13,6.068,318,-0.449,1.874,9.44,1
493,35.29619321,-97.42363614,0.2,24.2,6.068,318,-0.374,1.859,9.452,1
494,35.29641793,-97.42362771,0.5,24.26,6.068,317,-0.418,1.85,9.345,1
495,35.2966362,-97.42362618,0.5,24.31,6.068,318,-0.5,1.81,9.262,1
496,35.29685478,-97.42362668,0.6,24.34,6.068,318,-0.52,1.811,9.304,1
497,35.2970765,-97.42363134,0.2,24.46,6.068,318,-0.559,1.797,9.45,1
498,35.29730072,-97.42363114,359.7,24.63,6.068,318,-0.437,1.735,9.577,1
499,35.29752157,-97.42363212,0,24.74,6.068,319,-0.441,1.756,9.748,1
500,35.29774559,-97.42362868,0.2,24.65,6.068,319,-0.524,1.738,9.664,1
501,35.29797973,-97.42364524,0.1,24.71,6.068,318,-0.479,1.717,9.521,1
502,35.29820429,-97.42364466,0,24.49,6.068,318,-0.441,1.746,9.479,1
503,35.29842605,-97.4236424,0.3,24.53,6.068,319,-0.494,1.783,9.563,1
504,35.2986489,-97.42362716,0.4,24.45,6.068,317,-0.506,1.823,9.624,1
505,35.29886111,-97.42363137,0.2,24.38,4.5509996,318,-0.572,1.773,9.505,1
506,35.2990776,-97.42362831,0.5,24.27,4.5509996,318,-0.549,1.842,9.645,1
507,35.29928565,-97.42359609,0.2,24.24,6.068,318,-0.528,1.839,9.47,1
508,35.29971786,-97.42360142,0.1,24,4.5509996,321,-0.567,1.856,9.424,1
509,35.29992859,-97.42359838,0.1,23.99,4.5509996,322,-0.535,1.893,9.457,1
510,35.30014489,-97.4235991,0.1,24.05,4.5509996,322,-0.53,1.917,9.465,1
511,35.30036919,-97.42361331,0.2,23.95,6.068,322,-0.49,1.946,9.492,1
512,35.30059277,-97.42361286,0.1,24.04,6.068,323,-0.447,1.955,9.371,1
513,35.30081438,-97.42360669,0.3,24.01,6.068,323,-0.416,1.993,9.434,1
514,35.30103084,-97.4236052,0.3,24.01,7.585,324,-0.43,1.955,9.335,1
515,35.30124951,-97.42360821,0.1,24.34,6.068,324,-0.426,1.941,9.369,1
516,35.301473,-97.42361033,0.1,24.46,6.068,324,-0.381,1.94,9.45,1
517,35.30168253,-97.42360179,0.1,24.49,6.068,325,-0.38,1.949,9.534,1
518,35.30190863,-97.42360478,0.1,24.66,6.068,325,-0.365,1.921,9.494,1
519,35.30213974,-97.42360978,0.2,24.7,6.068,326,-0.399,1.877,9.455,1
520,35.3023599,-97.42360331,0.3,24.68,6.068,326,-0.396,1.86,9.522,1
521,35.30259014,-97.42361114,0.1,24.77,6.068,327,-0.356,1.808,9.414,1
522,35.30281562,-97.42361345,0.1,24.75,6.068,326,-0.432,1.856,9.468,1
523,35.30303908,-97.42361372,0,24.76,6.068,327,-0.386,1.845,9.558,1
524,35.30325966,-97.42361625,0,24.74,6.068,319,-0.398,1.801,9.43,1
525,35.30347898,-97.4236094,0.1,24.71,6.068,322,-0.379,1.815,9.481,1
526,35.30370046,-97.42361175,0.1,24.78,4.5509996,324,-0.398,1.805,9.484,1
527,35.30392132,-97.42361157,0.2,24.74,4.5509996,326,-0.314,1.829,9.589,1
528,35.30414164,-97.42360892,0.8,24.75,4.5509996,327,-0.045,1.815,9.452,1
529,35.30436309,-97.42359686,1.7,24.75,4.5509996,328,-0.137,1.809,9.437,1
530,35.30458748,-97.42358902,2,24.76,6.068,328,-0.471,1.809,9.391,1
531,35.304809,-97.42358,1.2,24.78,4.5509996,329,-0.721,1.765,9.28,1
532,35.30504028,-97.42357594,0.4,24.89,4.5509996,328,-0.743,1.757,9.297,1
533,35.30526617,-97.42356791,0.1,24.97,4.5509996,329,-0.53,1.753,9.504,1
534,35.30549128,-97.42356753,0.1,24.97,6.068,328,-0.46,1.725,9.51,1
535,35.30571311,-97.42357054,359.8,24.99,4.5509996,329,-0.575,1.698,9.534,1
536,35.30594259,-97.42358871,359,24.99,6.068,327,-0.62,1.679,9.568,1
537,35.30617029,-97.42359502,358.5,24.84,6.068,327,-0.487,1.643,9.536,1
538,35.30639707,-97.42360109,358.7,24.71,4.5509996,328,-0.2,1.667,9.485,1
539,35.30661671,-97.42360131,359.2,24.63,6.068,328,-0.186,1.697,9.514,1
540,35.3068401,-97.42360352,359.9,24.62,6.068,328,-0.148,1.73,9.539,1
541,35.30706409,-97.42360617,0,24.61,6.068,328,-0.316,1.73,9.467,1
542,35.30729311,-97.42360855,0,24.71,6.068,328,-0.374,1.753,9.549,1
543,35.30750686,-97.42360012,0.1,24.52,7.585,327,-0.422,1.77,9.566,1
545,35.30772408,-97.42359245,0,24.52,6.068,326,-0.392,1.743,9.426,1
546,35.30794447,-97.42360115,0,24.65,6.068,327,-0.403,1.733,9.425,1
547,35.30815173,-97.42359469,0.3,24.66,6.068,327,-0.478,1.722,9.409,1
548,35.30838078,-97.42358937,0,24.8,6.068,327,-0.59,1.706,9.452,1
549,35.30860018,-97.42359248,359.7,24.9,6.068,327,-0.418,1.649,9.378,1
550,35.30882024,-97.42359059,359.8,24.88,6.068,327,-0.339,1.631,9.409,1
551,35.30904621,-97.42359717,359.9,24.94,6.068,327,-0.352,1.59,9.575,1
552,35.30927098,-97.42359771,359.9,24.93,7.585,327,-0.447,1.567,9.588,1
553,35.30951024,-97.42360493,359.8,25.19,6.068,325,-0.337,1.523,9.597,1
554,35.30973727,-97.42360566,359.8,25.18,7.585,325,-0.324,1.517,9.628,1
555,35.30996844,-97.4235942,0.4,25.15,6.068,324,-0.449,1.494,9.545,1
556,35.31019511,-97.42359249,0.4,25.14,7.585,324,-0.484,1.489,9.578,1
557,35.31041345,-97.42359183,0.1,25.11,6.068,325,-0.363,1.456,9.48,1
558,35.31063978,-97.42359135,0.1,25.11,9.101999,325,-0.406,1.475,9.664,1
559,35.31086048,-97.42357922,0,24.89,6.068,326,-0.502,1.47,9.632,1
560,35.3110848,-97.42357898,0.1,24.88,9.101999,326,-0.425,1.491,9.673,1
561,35.31130919,-97.42357918,359.7,24.9,6.068,326,-0.326,1.502,9.733,1
562,35.31153361,-97.42358052,359.7,24.89,9.101999,326,-0.3,1.502,9.617,1
563,35.31175564,-97.42358093,0.2,24.4,6.068,325,-0.42,1.586,9.698,1
564,35.31198095,-97.42358214,0.2,24.34,6.068,326,-0.512,1.623,9.513,1
565,35.31220035,-97.42358101,0.2,24.34,7.585,326,-0.428,1.69,9.437,1
566,35.31241177,-97.4235772,0,23.97,6.068,325,-0.377,1.74,9.401,1
567,35.31263309,-97.42358558,359.8,24.04,6.068,326,-0.42,1.732,9.407,1
568,35.31284838,-97.42359054,359.7,24.17,6.068,325,-0.449,1.738,9.408,1
569,35.31306625,-97.42359173,359.7,24.17,7.585,325,-0.422,1.748,9.521,1
570,35.31328546,-97.42359794,0.1,24.35,6.068,326,-0.421,1.712,9.572,1
571,35.31350495,-97.42359751,0.1,24.35,7.585,326,-0.447,1.686,9.556,1
572,35.31371811,-97.42359045,0,24.36,6.068,325,-0.459,1.71,9.648,1
573,35.31393769,-97.42359064,0,24.36,9.101999,325,-0.43,1.703,9.585,1
574,35.314139,-97.42358781,359.9,24.27,6.068,324,-0.365,1.706,9.508,1
575,35.31436564,-97.42359244,0,24.32,6.068,325,-0.351,1.75,9.567,1
576,35.31457353,-97.42359122,0.2,24.27,6.068,327,-0.361,1.757,9.49,1
577,35.31479261,-97.42358996,0.2,24.15,6.068,328,-0.476,1.763,9.492,1
578,35.31498762,-97.42358747,0.1,24.06,6.068,327,-0.519,1.774,9.492,1
579,35.31520696,-97.423583,359.8,24.09,6.068,327,-0.475,1.806,9.482,1
580,35.31542157,-97.42360122,359.8,24.02,6.068,327,-0.453,1.824,9.463,1
581,35.3156458,-97.42359711,359.7,24.01,6.068,327,-0.401,1.845,9.504,1
582,35.31585253,-97.42359096,359.8,24.03,6.068,326,-0.388,1.852,9.507,1
583,35.31608082,-97.42360587,359.9,24.21,6.068,326,-0.404,1.86,9.464,1
584,35.31630349,-97.4236084,0.1,24.11,6.068,326,-0.421,1.855,9.402,1
585,35.31652372,-97.4236053,0.2,24.25,6.068,326,-0.407,1.847,9.437,1
586,35.31674541,-97.42361409,0.3,24.19,6.068,324,-0.454,1.825,9.449,1
587,35.31717896,-97.42360955,0.1,24.25,7.585,326,-0.416,1.849,9.497,1
588,35.31717896,-97.42360955,0.1,24.25,7.585,326,-0.394,1.832,9.491,1
589,35.31762196,-97.42361258,0.1,24.22,6.068,325,-0.445,1.829,9.448,1
590,35.31783742,-97.42360857,0.1,24.27,6.068,325,-0.444,1.833,9.5,1
591,35.31805062,-97.42360331,0.1,24.24,6.068,326,-0.395,1.833,9.508,1
592,35.31827292,-97.4236031,0.3,24.19,6.068,327,-0.355,1.853,9.559,1
593,35.31849228,-97.42360323,0.4,24.08,6.068,327,-0.288,1.864,9.541,1
594,35.31871505,-97.42361004,1.2,23.99,6.068,327,-0.182,1.833,9.285,1
595,35.3189376,-97.42359314,1.4,23.95,4.5509996,328,-0.281,1.941,9.631,1
596,35.3191536,-97.42358338,1.2,23.94,6.068,329,-0.461,1.886,9.444,1
597,35.31937214,-97.42358674,0.7,23.98,6.068,329,-0.625,1.929,9.432,1
598,35.31959074,-97.42358822,359.8,23.98,6.068,330,-0.692,1.933,9.385,1
599,35.31980977,-97.42358518,359.6,24.05,6.068,331,-0.445,1.963,9.432,1
600,35.3200233,-97.42358685,359.5,24.02,6.068,330,-0.455,1.984,9.429,1
