time,lat,lng,bearing,spd,acc,alt,accx,accy,accz,stable,
0,35.211,-97.449,270,11.87,9,322,-2.727,11.008,-1.159,0
1,35.211,-97.449,270.2,9.8806,9,321,-1.859,10.835,-1.279,0
2,35.211,-97.449,270.3,8.8902,9,320,-1.342,10.747,-1.033,0
3,35.211,-97.449,270.3,8.3801,9,319,-0.928,10.804,-1.133,0
4,35.211,-97.449,270,8.2707,9,319,-0.668,10.837,-0.94,0
5,35.211,-97.449,268.8,8.5704,9,317,-0.463,10.867,-1.116,0
6,35.211,-97.449,270.3,8.6603,9,316,-0.243,10.865,-0.968,0
7,35.211,-97.45,269.6,9.1207,9,316,-0.558,10.309,-0.686,0
8,35.211,-97.45,270,9.5,9,316,-0.329,10.714,-0.612,0
9,35.211,-97.45,270.8,9.6138,9,315,-0.717,10.795,-1.087,0
10,35.211,-97.45,270.1,9.9605,9,313,-0.518,10.795,-0.928,0
11,35.211,-97.45,270.3,10.17,9,313,-0.391,10.838,-0.827,0
12,35.211,-97.45,270.3,10.52,9,313,-0.729,10.876,-0.885,0
13,35.211,-97.45,270.5,10.64,9,313,-0.359,10.73,-0.872,0
14,35.211,-97.45,270.3,10.85,9,313,-0.388,10.934,-0.961,0
15,35.211,-97.451,270.2,11.31,9,313,-0.315,10.909,-1.065,0
16,35.211,-97.451,270.6,11.85,9,311,-0.63,10.769,-1.451,0
17,35.211,-97.451,270.1,12.07,9,311,-0.585,10.698,-1.129,0
18,35.211,-97.451,270,12.22,9,319,-2.18,11.536,-0.056,0
19,35.211,-97.451,269.8,12.46,9,317,-0.619,10.898,-0.881,0
20,35.211,-97.451,270,12.74,9,316,-0.34,10.929,-1.242,0
21,35.211,-97.451,270,12.91,9,315,-0.518,11.183,-1.59,0
22,35.211,-97.451,270.2,13.131,9,315,-0.252,10.838,-1.085,0
23,35.211,-97.452,270.1,13.56,9,314,-1.147,11.167,-0.924,0
24,35.211,-97.452,270,13.55,9,314,-0.676,10.74,-0.891,0
25,35.211,-97.452,269.9,13.53,9,313,-0.549,10.713,-1.465,0
26,35.211,-97.452,270.4,13.41,9,313,-0.567,10.773,-1.348,0
27,35.211,-97.452,269.5,13.68,9,312,-0.783,10.892,-1.113,0
28,35.211,-97.452,270.2,14,9,320,-1.273,10.727,-1.243,0
29,35.211,-97.452,270.2,13.953,9,317,-1.098,10.849,-1.501,0
30,35.211,-97.453,270.4,13.691,9,315,-1.048,10.749,-1.121,0
31,35.211,-97.453,270.3,13.61,9,314,-1.094,10.963,-1.403,0
32,35.211,-97.453,270.5,13.25,9,313,-1.124,11.083,-1.585,0
33,35.211,-97.453,270.4,13.19,9,313,-0.767,11.057,-1.25,0
34,35.211,-97.453,270.4,13.06,9,312,-0.713,10.742,-1.264,0
35,35.211,-97.453,269.5,13.07,9,312,-0.497,10.944,-1.044,0
36,35.211,-97.454,269.6,13.34,9,312,-0.473,10.875,-1.078,0
37,35.211,-97.454,270.1,13.693,9,311,-0.991,10.639,-1.681,0
38,35.211,-97.454,269.8,13.62,9,311,-0.826,10.721,-1.073,0
39,35.211,-97.454,270.7,13.971,10,312,-0.683,10.918,-1.179,0
40,35.211,-97.454,270.7,14.18,10,313,-0.657,11.087,-1.61,0
41,35.211,-97.454,269.8,14.392,10,313,-0.759,10.904,-1.455,0
42,35.211,-97.455,270.1,14.28,10,313,-0.796,11.095,-1.43,0
43,35.211,-97.455,270,14.62,9,314,-0.549,10.247,-0.877,0
44,35.211,-97.455,270.3,14.69,9,314,-0.537,10.77,-0.959,0
45,35.211,-97.455,270.7,14.59,9,315,-0.639,10.914,-0.983,0
46,35.211,-97.455,270.1,14.41,9,315,-1.16,10.983,-1.063,0
48,35.211,-97.455,269.8,13.672,9,316,-1.112,11.037,-0.997,0
48,35.211,-97.455,269.8,13.672,9,316,-1.112,11.037,-0.997,0
49,35.211,-97.456,270.1,13.012,9,316,-0.728,11.16,-1.067,0
50,35.211,-97.456,270.5,12.77,10,316,-0.424,11.121,-1.52,0
51,35.211,-97.456,270.9,12.792,10,317,-0.257,10.634,-1.047,0
52,35.211,-97.456,271,12.84,10,318,-0.015,11.052,-1.402,0
53,35.211,-97.456,272.2,12.811,10,318,-0.011,10.595,-1.296,0
54,35.211,-97.456,271.7,13.26,11,318,0.023,10.864,-1.234,0
55,35.211,-97.456,272.7,13.321,10,318,-0.059,10.648,-1.463,0
56,35.211,-97.457,270,13.851,10,315,-0.186,10.744,-1.336,0
57,35.211,-97.457,269.6,14.31,11,315,-0.744,10.611,-1.108,0
58,35.211,-97.457,269.3,14.69,10,316,-0.955,10.806,-0.939,0
59,35.211,-97.457,269.8,14.4,10,316,-1.006,10.756,-0.756,0
60,35.211,-97.457,270.4,14.042,10,318,-0.801,10.933,-0.832,0
61,35.211,-97.457,270.9,13.82,10,317,-0.936,10.679,-0.994,0
62,35.211,-97.458,270.6,13.76,10,315,-0.814,10.866,-1.059,0
63,35.211,-97.458,270.8,13.12,10,316,-1.065,10.874,-1.256,0
64,35.211,-97.458,270.8,12.81,10,316,-0.7,10.781,-1.148,0
65,35.211,-97.458,270.3,12.72,9,318,-0.984,10.88,-1.344,0
66,35.211,-97.458,269.7,12.471,9,316,-1.121,10.842,-1.417,0
67,35.211,-97.458,267.6,12.381,10,317,-1.53,11.008,-1.167,0
68,35.211,-97.458,265.7,11.8,10,316,-2.311,10.799,-0.991,0
69,35.211,-97.458,263.1,11.05,10,316,-2.732,10.736,-1.127,0
70,35.211,-97.459,267.8,8.1103,10,317,-2.545,10.718,-0.823,0
71,35.211,-97.459,266.9,6.7805,10,316,-1.902,10.785,-0.907,0
72,35.211,-97.459,268.3,4.9608,10,316,-1.802,10.864,-1.027,0
73,35.211,-97.459,261.6,4.4109,11,315,-1.776,10.87,-1.142,0
74,35.211,-97.459,256,3.4701,11,315,-1.168,10.889,-0.629,0
75,35.211,-97.459,256,3.4701,11,315,-0.986,10.874,-0.8,0
76,35.211,-97.459,248.5,2.1161,11,315,-0.074,10.899,-0.593,0
77,35.211,-97.459,271.4,1.2902,10,315,1.767,10.918,-0.798,0
78,35.211,-97.459,271.9,3.3501,10,314,0.309,10.943,-0.903,0
79,35.211,-97.459,272.4,4.7215,10,313,-0.357,10.786,-1.462,0
80,35.211,-97.459,270.2,5.66,10,313,-0.324,11.164,-2.166,0
81,35.211,-97.459,263.7,5.6123,10,315,-0.914,10.643,-3.72,0
82,35.211,-97.459,250.7,6.3803,10,315,-0.606,10.463,-4.69,0
83,35.211,-97.459,222.9,6.6,9,314,0.188,10.624,-3.372,0
84,35.211,-97.459,216.8,6.3301,9,315,0.423,10.638,-1.284,0
85,35.211,-97.459,181,8.1802,9,316,0.407,11.065,-1.26,0
86,35.211,-97.459,180.3,8.0123,9,316,0.26,10.807,-0.864,0
87,35.211,-97.459,179.2,10.753,9,315,0.172,11.481,-1.328,0
88,35.211,-97.459,177.7,11.321,9,315,0.135,10.793,-0.985,0
89,35.21,-97.459,177.6,12.501,10,317,0.008,10.871,-0.314,0
90,35.21,-97.459,178.8,13.01,9,317,-0.083,10.845,-0.808,0
91,35.21,-97.459,180.4,13.66,9,317,-0.268,10.873,-1.285,0
92,35.21,-97.459,180.2,13.87,9,317,-0.471,10.843,-1.056,0
93,35.21,-97.459,179.2,14.051,9,317,-0.443,10.872,-0.707,0
94,35.21,-97.459,179.8,14.081,9,318,-0.711,10.941,-1.393,0
95,35.21,-97.459,180.3,14.28,9,318,-0.556,11.001,-1.24,0
97,35.21,-97.459,179.5,14.502,10,318,-0.938,10.717,-1.149,0
97,35.21,-97.459,179.5,14.502,10,318,-0.938,10.717,-1.149,0
98,35.209,-97.459,178.7,14.27,10,318,-1.003,10.753,-1.055,0
99,35.209,-97.459,179,14.02,10,319,-0.611,11.039,-0.801,0
100,35.209,-97.459,179.6,13.78,10,319,-0.613,10.77,-0.926,0
101,35.209,-97.459,179.9,13.77,10,319,-0.57,10.878,-1.361,0
102,35.209,-97.459,180.3,13.85,10,319,-0.506,10.983,-1.063,0
103,35.209,-97.459,182,13.71,10,317,-0.63,10.969,-1.313,0
104,35.209,-97.459,181.6,13.62,10,316,-0.546,10.721,-1.509,0
105,35.209,-97.459,181.4,13.811,10,314,-0.581,10.747,-0.798,0
106,35.208,-97.459,180.6,14.06,10,314,-0.669,10.967,-1.057,0
107,35.208,-97.459,179.9,14.29,10,315,-0.626,10.927,-1.015,0
108,35.208,-97.459,180.5,14.37,10,315,-0.474,10.9,-1.246,0
109,35.208,-97.459,180.5,14.091,10,314,-0.605,10.852,-1.179,0
110,35.208,-97.459,180.4,14.74,10,314,-0.479,10.825,-1.054,0
111,35.208,-97.459,180.4,14.73,10,315,-0.494,10.819,-1.378,0
112,35.208,-97.459,180.8,15.18,11,314,-0.411,10.811,-0.982,0
113,35.208,-97.459,179.9,15.541,11,315,-0.646,10.891,-1.234,0
114,35.207,-97.459,179.7,15.33,11,315,-0.598,10.979,-1.272,0
115,35.207,-97.459,179.5,15.21,11,315,-0.574,10.601,-1.396,0
116,35.207,-97.459,180.5,15.08,11,316,-0.799,11.023,-1.432,0
117,35.207,-97.459,180.1,15.05,11,315,-0.61,11.042,-1.033,0
118,35.207,-97.459,181.9,14.8,10,314,-0.682,11.16,-0.921,0
119,35.207,-97.459,181,14.72,10,314,-0.533,11.025,-1.295,0
120,35.207,-97.459,180.8,14.94,10,314,-0.459,10.708,-1.166,0
121,35.206,-97.459,180.6,14.851,10,316,-0.311,10.938,-0.847,0
122,35.206,-97.459,180.1,15.21,11,316,-0.276,11.05,-1.323,0
123,35.206,-97.459,177.9,15.55,11,316,-0.944,10.74,-1.08,0
124,35.206,-97.459,178.6,15.28,11,315,-1.028,10.748,-1.095,0
125,35.206,-97.459,179.1,15.31,10,316,-0.91,10.972,-1.031,0
126,35.206,-97.459,178.8,15.241,10,315,-0.991,10.988,-1.052,0
127,35.206,-97.459,178,15.27,10,316,-1.966,10.769,-0.832,0
128,35.205,-97.459,180,14.98,11,315,-1.551,10.4,-0.875,0
129,35.205,-97.459,180.7,14.63,11,315,-2.427,10.944,-1.395,0
130,35.205,-97.459,178.2,12.811,12,317,-2.256,11.051,-1.285,0
131,35.205,-97.459,178.2,11.93,11,318,-2.362,11.024,-1.266,0
132,35.205,-97.459,178.1,11.35,11,317,-2.403,10.877,-1.298,0
133,35.205,-97.459,182.1,8.8903,11,316,-1.875,10.788,-0.592,0
134,35.205,-97.459,184.3,7.27,11,317,-1.88,10.751,-0.694,0
135,35.205,-97.459,188,7.62,11,316,-1.985,10.759,-0.852,0
136,35.205,-97.459,184,4.9702,10,315,-1.972,10.751,-0.695,0
137,35.205,-97.459,184.4,3.7501,9,314,-2.367,10.77,-0.93,0
138,35.205,-97.459,183.7,2.2608,10,314,-2.2,10.87,-1.249,0
139,35.205,-97.459,183.7,1.3601,10,314,-1.388,10.856,-0.523,0
140,35.205,-97.459,183.7,1.3601,10,314,-1.279,10.856,-0.946,0
141,35.205,-97.459,183.7,1.3601,10,314,-1.439,10.844,-1.045,0
142,35.205,-97.459,0,0.13,9,315,-0.949,10.85,-1.212,0
143,35.205,-97.459,0,0.13,9,315,-0.831,10.857,-1.006,0
144,35.205,-97.459,0,0,9,316,-0.846,10.868,-1.178,0
145,35.205,-97.459,0,0,9,316,-0.836,10.842,-1.136,0
146,35.205,-97.459,0,0,9,316,-0.827,10.861,-1.148,0
148,35.205,-97.459,0,0,9,317,-0.339,10.862,-1.041,0
148,35.205,-97.459,0,0,9,317,-0.339,10.862,-1.041,0
149,35.205,-97.459,0,0,9,317,0.148,10.914,-1.186,0
150,35.205,-97.459,184.9,1.7201,9,318,1.038,10.778,-1.057,0
151,35.205,-97.459,190,3.0008,9,318,0.98,10.873,-1.399,0
152,35.205,-97.459,188.2,4.47,9,319,0.835,10.688,-1.266,0
153,35.204,-97.459,183.3,6.2101,9,320,0.761,10.874,-0.844,0
154,35.204,-97.459,183.1,7.03,10,320,-0.134,10.748,-0.621,0
155,35.204,-97.459,180.5,7.67,10,319,-0.224,11.244,-1.27,0
156,35.204,-97.459,179,8.06,10,318,-0.453,11.005,-0.934,0
157,35.204,-97.459,179.2,8.2302,9,318,-0.828,10.978,-1.034,0
158,35.204,-97.459,180.3,7.97,4,318,-1.564,10.132,1.303,0
159,35.204,-97.459,191.2,7.0601,3,317,-1.518,9.851,5.4,0
160,35.204,-97.459,202,6.88,4,317,-1.392,9.578,6.09,0
161,35.204,-97.459,254.3,6.9909,3,318,-0.214,10.232,3.879,0
162,35.204,-97.459,265.5,7.6101,3,318,0.142,10.312,2.318,0
163,35.204,-97.459,269.8,8.49,3,318,0.188,10.52,2.341,0
164,35.204,-97.459,269.8,9.44,3,318,0.142,10.564,2.283,0
165,35.204,-97.46,270.3,10.38,3,318,0.116,10.398,2.116,0
166,35.204,-97.46,270,11.27,3,319,-0.18,10.562,2.337,0
167,35.204,-97.46,269.8,11.94,3,318,-0.316,10.353,2.34,0
168,35.204,-97.46,269.9,12.49,3,318,-0.263,10.353,2.24,0
169,35.204,-97.46,270.2,13.04,3,318,-0.244,10.465,2.29,0
170,35.204,-97.46,269.8,13.48,3,318,-0.895,10.607,2.094,0
171,35.204,-97.46,269.7,13.57,3,318,-0.878,10.379,2.323,0
172,35.204,-97.461,269.9,13.26,3,318,-0.839,10.543,2.176,0
173,35.204,-97.461,269.9,13.23,3,318,-0.759,10.717,2.302,0
174,35.204,-97.461,269.9,13.05,3,317,-0.719,10.755,2.237,0
175,35.204,-97.461,270,13.15,3,317,-0.99,10.633,1.996,0
176,35.204,-97.461,270.1,13.05,3,317,-0.574,10.452,1.957,0
177,35.204,-97.461,270.3,12.94,3,317,-0.645,10.392,2.271,0
178,35.204,-97.461,270.3,13.14,3,318,-0.668,10.491,2.012,0
179,35.204,-97.462,270.3,13.27,3,317,-0.738,10.653,2.221,0
180,35.204,-97.462,270.3,13.42,3,317,-0.609,10.809,2.266,0
181,35.204,-97.462,270,13.47,3,317,-0.584,10.451,2.128,0
182,35.204,-97.462,269.8,13.47,3,317,-0.731,10.516,2.161,0
183,35.204,-97.462,269.9,13.33,3,317,-0.75,10.543,2.314,0
184,35.204,-97.462,269.9,13.35,3,316,-0.799,10.357,2.079,0
185,35.204,-97.462,270,13.31,3,316,-0.751,10.427,2.022,0
186,35.204,-97.463,270.2,13.44,3,315,-0.769,10.492,2.193,0
187,35.204,-97.463,270.4,13.42,3,315,-0.785,10.619,2.249,0
188,35.204,-97.463,270.5,13.45,3,314,-0.814,10.489,2.212,0
189,35.204,-97.463,270.4,13.45,3,314,-0.801,10.393,2.061,0
190,35.204,-97.463,270.1,13.43,3,314,-0.991,10.446,2.083,0
191,35.204,-97.464,270,13.38,3,314,-0.742,10.26,2.038,0
192,35.204,-97.464,270,13.24,3,313,-1.099,10.352,2.195,0
193,35.204,-97.464,269.9,12.72,3,313,-1.608,10.378,1.99,0
194,35.204,-97.464,270,11.81,3,313,-2.1,10.468,2.066,0
195,35.204,-97.464,270,10.4,3,314,-1.893,10.513,2.065,0
196,35.204,-97.464,270.2,9.48,3,314,-1.043,10.595,2.133,0
197,35.204,-97.464,270.2,9.5003,3,315,-0.16,10.191,2.086,0
198,35.204,-97.464,270.1,10.38,3,315,-0.029,10.556,2.346,0
200,35.204,-97.464,270.2,11.15,3,316,0.225,10.538,2.265,0
200,35.204,-97.464,270.2,11.15,3,316,0.225,10.538,2.265,0
201,35.204,-97.465,270.2,12.04,3,316,0.176,10.584,2.218,0
202,35.204,-97.465,270,12.89,3,316,-0.017,10.583,2.028,0
203,35.204,-97.465,269.8,13.75,3,315,-0.306,10.344,2.066,0
204,35.204,-97.465,269.6,14.25,3,315,-0.901,10.439,2.15,0
205,35.204,-97.465,269.8,14.01,3,315,-1.208,10.465,2.386,0
206,35.204,-97.465,269.9,13.7,3,315,-0.77,10.697,2.277,0
207,35.204,-97.466,269.7,13.71,3,316,-0.727,10.5,2.194,0
208,35.204,-97.466,269.9,13.71,3,316,-0.975,10.539,2.133,0
209,35.204,-97.466,269.8,13.55,3,316,-1.04,10.456,1.954,0
210,35.204,-97.466,270,13.15,3,317,-1.032,10.558,2.191,0
211,35.204,-97.466,270,12.71,3,316,-1.128,10.56,2.263,0
212,35.204,-97.466,269.9,12.26,3,317,-1.152,10.446,2.11,0
213,35.204,-97.466,269.9,11.84,3,317,-1.41,10.157,2.293,0
214,35.204,-97.466,270,11.41,3,318,-1.229,10.378,1.977,0
215,35.204,-97.467,270.3,11.03,3,317,-1.173,10.505,2.166,0
216,35.204,-97.467,270.2,10.6,3,317,-1.292,10.634,2.045,0
217,35.204,-97.467,270.3,10.15,3,317,-1.311,10.402,2.014,0
218,35.204,-97.467,270.3,9.61,3,317,-1.292,10.627,2.026,0
219,35.204,-97.467,270.2,9.1,3,316,-1.11,10.572,2.222,0
220,35.204,-97.467,269.8,8.6501,3,316,-0.936,10.625,2.162,0
221,35.204,-97.467,269.8,8.4401,3,316,-0.855,10.258,2.235,0
222,35.204,-97.467,269.8,8.37,3,316,-1.558,10.352,2.211,0
223,35.204,-97.467,270.1,7.8301,3,317,-2.066,10.249,2.184,0
224,35.204,-97.467,270.4,6.5701,9,316,-1.679,10.371,2.015,0
225,35.204,-97.468,270.4,5.56,9,316,-1.96,10.519,2.08,0
226,35.204,-97.468,270.6,4.5,9,317,-2.078,10.528,2.064,0
227,35.204,-97.468,270.8,3.18,9,317,-1.601,10.49,2.024,0
228,35.204,-97.468,270.5,2.21,9,317,-2.082,10.491,2.055,0
229,35.204,-97.468,270.5,1.27,9,317,-1.679,10.464,2.064,0
230,35.204,-97.468,270.5,1.27,9,317,-0.926,10.518,2.061,0
231,35.204,-97.468,270.5,1.27,9,317,-0.781,10.506,2.073,0
232,35.204,-97.468,270.5,1.27,9,317,-0.757,10.498,2.077,0
233,35.204,-97.468,270.5,1.27,9,317,-0.756,10.492,2.082,0
234,35.204,-97.468,270.5,1.27,9,317,-0.757,10.496,2.074,0
235,35.204,-97.468,270.5,1.27,9,317,-0.752,10.495,2.077,0
236,35.204,-97.468,270.5,1.27,9,317,-0.752,10.527,2.054,0
237,35.204,-97.468,270.5,1.27,9,317,-0.755,10.513,2.069,0
238,35.204,-97.468,270.5,1.27,9,317,-0.755,10.5,2.076,0
239,35.204,-97.468,270.5,1.27,9,317,-0.753,10.506,2.072,0
240,35.204,-97.468,270.5,1.27,9,317,-0.76,10.509,2.068,0
241,35.204,-97.468,270.5,1.27,9,317,-0.761,10.517,2.068,0
242,35.204,-97.468,270.5,1.27,9,317,-0.76,10.504,2.082,0
243,35.204,-97.468,270.5,1.27,9,317,-0.761,10.523,2.06,0
244,35.204,-97.468,270.5,1.27,9,317,-0.761,10.517,2.079,0
245,35.204,-97.468,270.5,1.27,9,317,-0.756,10.507,2.066,0
246,35.204,-97.468,270.5,1.27,9,317,-0.756,10.528,2.071,0
247,35.204,-97.468,270.5,1.27,9,317,-0.763,10.504,2.078,0
248,35.204,-97.468,270.5,1.27,9,317,-0.765,10.523,2.061,0
249,35.204,-97.468,270.5,1.27,9,317,-0.752,10.522,2.062,0
250,35.204,-97.468,270.5,1.27,9,317,-0.748,10.489,2.084,0
251,35.204,-97.468,270.5,1.27,9,317,-0.758,10.535,2.071,0
252,35.204,-97.468,270.5,1.27,9,317,-0.753,10.502,2.085,0
253,35.204,-97.468,270.5,1.27,9,317,-0.754,10.497,2.071,0
254,35.204,-97.468,270.5,1.27,9,317,-0.757,10.514,2.069,0
255,35.204,-97.468,270.5,1.27,9,317,-0.756,10.502,2.084,0
256,35.204,-97.468,270.5,1.27,9,317,-0.754,10.524,2.059,0
257,35.204,-97.468,270.5,1.27,9,317,-0.754,10.49,2.071,0
258,35.204,-97.468,270.5,1.27,9,317,-0.757,10.506,2.062,0
259,35.204,-97.468,270.5,1.27,9,317,-0.752,10.5,2.078,0
260,35.204,-97.468,270.5,1.27,9,317,-0.755,10.529,2.066,0
261,35.204,-97.468,270.5,1.27,9,317,-0.754,10.504,2.077,0
262,35.204,-97.468,270.5,1.27,9,317,-0.763,10.518,2.066,0
263,35.204,-97.468,270.5,1.27,9,317,-0.753,10.496,2.084,0
264,35.204,-97.468,270.5,1.27,9,317,-0.751,10.521,2.058,0
266,35.204,-97.468,270.5,1.27,9,317,-0.752,10.497,2.082,0
266,35.204,-97.468,270.5,1.27,9,317,-0.752,10.497,2.082,0
267,35.204,-97.468,270.5,1.27,9,317,-0.765,10.5,2.077,0
268,35.204,-97.468,270.5,1.27,9,317,-0.759,10.509,2.072,0
269,35.204,-97.468,270.5,1.27,9,317,-0.763,10.506,2.06,0
270,35.204,-97.468,270.5,1.27,9,317,-0.756,10.522,2.067,0
271,35.204,-97.468,270.5,1.27,9,317,-0.755,10.498,2.071,0
272,35.204,-97.468,270.5,1.27,9,317,-0.753,10.511,2.069,0
273,35.204,-97.468,270.5,1.27,9,317,-0.756,10.522,2.068,0
274,35.204,-97.468,270.5,1.27,9,317,-0.751,10.513,2.075,0
275,35.204,-97.468,270.5,1.27,9,317,-0.76,10.516,2.081,0
276,35.204,-97.468,270.5,1.27,9,317,-0.752,10.512,2.063,0
277,35.204,-97.468,270.5,1.27,9,317,-0.76,10.52,2.075,0
278,35.204,-97.468,270.5,1.27,9,317,-0.757,10.491,2.08,0
279,35.204,-97.468,270.5,1.27,9,317,-0.763,10.514,2.067,0
280,35.204,-97.468,270.5,1.27,9,317,-0.754,10.499,2.079,0
281,35.204,-97.468,270.5,1.27,9,317,-0.753,10.512,2.071,0
282,35.204,-97.468,270.5,1.27,9,317,-0.754,10.49,2.079,0
283,35.204,-97.468,270.5,1.27,9,317,-0.744,10.519,2.087,0
284,35.204,-97.468,270.5,1.27,9,317,-0.767,10.504,2.069,0
285,35.204,-97.468,270.5,1.27,9,317,-0.764,10.498,2.074,0
286,35.204,-97.468,270.5,1.27,9,317,-0.761,10.492,2.084,0
287,35.204,-97.468,270.5,1.27,9,317,-0.763,10.521,2.075,0
288,35.204,-97.468,270.5,1.27,9,317,-0.759,10.488,2.089,0
289,35.204,-97.468,270.5,1.27,9,317,-0.757,10.52,2.065,0
290,35.204,-97.468,270.5,1.27,9,317,-0.754,10.505,2.074,0
291,35.204,-97.468,270.5,1.27,9,317,-0.756,10.504,2.083,0
292,35.204,-97.468,270.5,1.27,9,317,-0.76,10.499,2.076,0
293,35.204,-97.468,270.5,1.27,9,317,-0.751,10.508,2.086,0
294,35.204,-97.468,270.5,1.27,9,317,-0.758,10.517,2.071,0
295,35.204,-97.468,270.5,1.27,9,317,1.156,10.519,2.151,0
296,35.204,-97.468,270.5,1.27,9,317,1.986,10.454,2.178,0
297,35.204,-97.468,270.4,3.8122,9,317,1.743,10.396,2.006,0
298,35.204,-97.468,269.8,6.1914,9,317,0.653,11.101,2.356,0
299,35.204,-97.468,269.9,8.14,9,318,0.087,10.741,2.17,0
300,35.204,-97.468,269.8,8.9807,9,318,0.024,10.448,2.185,0
301,35.204,-97.468,269.6,9.6303,9,319,0.022,10.435,2.048,0
302,35.204,-97.468,269.7,10.39,9,319,-0.085,10.645,2.274,0
303,35.204,-97.468,269.9,11.13,9,319,0.007,10.514,2.416,0
304,35.204,-97.468,269.9,11.81,9,319,0.01,10.534,2.238,0
305,35.204,-97.469,269.9,12.53,9,319,-0.07,10.481,2.183,0
306,35.204,-97.469,270,13.18,9,320,-0.059,10.574,2.043,0
307,35.204,-97.469,270.1,13.9,9,320,0.011,10.766,2.277,0
308,35.204,-97.469,270,14.64,9,320,-0.189,10.558,1.99,0
309,35.204,-97.469,270,15.34,9,320,-0.48,10.629,2.143,0
310,35.204,-97.469,270,15.71,9,319,-0.419,10.364,2.105,0
311,35.204,-97.47,270.1,16.07,9,319,-0.9,10.442,2.043,0
312,35.204,-97.47,270.1,16.07,9,318,-0.72,10.636,1.979,0
313,35.204,-97.47,270.1,15.93,9,318,-0.856,10.585,2.076,0
314,35.204,-97.47,269.8,16,9,318,-0.775,10.47,2.196,0
315,35.204,-97.47,269.6,15.91,9,319,-0.801,10.192,2.123,0
316,35.204,-97.47,269.8,15.85,9,319,-0.729,10.316,2.095,0
317,35.204,-97.471,270.1,15.78,9,318,-0.464,10.543,1.881,0
318,35.204,-97.471,270.3,15.77,9,318,-0.731,10.53,1.929,0
319,35.204,-97.471,270.2,15.75,9,318,-0.75,10.396,2.001,0
320,35.204,-97.471,270.1,15.76,9,318,-0.759,10.541,2.178,0
321,35.204,-97.471,270.2,15.75,9,318,-0.796,10.577,2.066,0
322,35.204,-97.472,270.2,15.7,9,318,-0.83,10.688,2.132,0
323,35.204,-97.472,270.2,15.59,9,318,-0.829,10.666,2.208,0
324,35.204,-97.472,270,15.51,9,317,-0.768,10.546,2.155,0
325,35.204,-97.472,270,15.46,9,318,-0.681,10.487,2.014,0
326,35.204,-97.472,270,15.43,9,318,-0.748,10.483,1.997,0
327,35.204,-97.472,270,15.43,9,318,-0.7,10.446,1.942,0
328,35.204,-97.473,270,15.42,9,319,-0.761,10.477,2.206,0
329,35.204,-97.473,269.9,15.52,9,318,-0.728,10.489,2.271,0
330,35.204,-97.473,269.9,15.57,9,318,-0.744,10.513,2.077,0
331,35.204,-97.473,269.8,15.64,9,318,-0.894,10.54,1.853,0
332,35.204,-97.473,269.8,15.67,9,319,-0.819,10.73,1.885,0
334,35.204,-97.474,269.6,15.68,9,319,-0.686,10.631,2.055,0
334,35.204,-97.474,269.6,15.68,9,319,-0.686,10.631,2.055,0
335,35.204,-97.474,269.8,15.62,9,319,-0.792,10.477,2.229,0
336,35.204,-97.474,270.1,15.56,9,319,-0.477,10.054,2.362,0
337,35.204,-97.474,270,15.53,9,318,-0.773,10.583,2.393,0
338,35.204,-97.474,270.1,15.47,9,318,-0.716,10.527,2.256,0
339,35.204,-97.474,270,15.43,9,319,-0.74,10.498,2.075,0
340,35.204,-97.475,269.8,15.4,9,319,-0.73,10.446,2.032,0
341,35.204,-97.475,269.9,15.41,9,319,-0.68,10.359,2.119,0
342,35.204,-97.475,269.8,15.37,9,319,-0.78,10.484,2.394,0
343,35.204,-97.475,269.9,15.47,9,319,-0.658,10.471,2.273,0
344,35.204,-97.475,270.1,15.57,9,319,-0.659,10.195,2.172,0
345,35.204,-97.475,270.3,15.69,9,319,-0.896,10.682,2.497,0
346,35.204,-97.476,270.4,15.69,9,319,-0.81,10.769,2.303,0
347,35.204,-97.476,270.5,15.6,9,319,-0.949,10.459,2.186,0
348,35.204,-97.476,270.7,15.52,9,320,-0.78,10.266,2.499,0
349,35.204,-97.476,271.3,15.48,9,319,-0.758,10.147,2.538,0
350,35.204,-97.476,272.1,15.44,9,320,-0.815,10.417,1.904,0
351,35.204,-97.476,272,15.4,9,320,-1.028,11.166,1.931,0
352,35.204,-97.477,270.9,15.37,9,320,-1.041,10.552,1.952,0
353,35.204,-97.477,270.1,15.37,3,321,-1.035,10.49,2.405,0
354,35.204,-97.477,269.7,15.36,3,321,-0.73,10.574,2.535,0
355,35.204,-97.477,269.8,15.321,3,321,-0.752,10.613,2.247,0
356,35.204,-97.477,270,15.3,3,321,-0.789,10.588,2.257,0
357,35.204,-97.477,270.2,15.23,3,322,-0.649,10.464,2.261,0
358,35.204,-97.478,270.3,15.131,3,322,-0.671,10.563,2.044,0
359,35.204,-97.478,270.2,15.041,3,322,-0.722,10.497,2.431,0
360,35.204,-97.478,270.4,15.01,3,322,-0.627,10.454,2.188,0
361,35.204,-97.478,270.1,14.991,3,323,-0.553,10.636,2.461,0
362,35.204,-97.478,269.5,15.021,3,323,-0.601,10.484,2.355,0
363,35.204,-97.478,269.2,15.042,3,323,-0.942,10.447,2.713,0
364,35.204,-97.479,270.2,14.911,3,323,-0.91,10.005,3.541,0
365,35.204,-97.479,275,14.51,3,323,-0.538,9.453,4.96,0
366,35.204,-97.479,284,14.743,3,322,-0.988,9.281,5.872,0
367,35.204,-97.479,289.3,15.932,3,322,-1.213,9.143,6.756,0
368,35.204,-97.479,295.4,15.74,4,321,-0.798,9.223,6.689,0
369,35.204,-97.479,330.7,14.811,3,321,-0.301,9.845,3.711,0
370,35.204,-97.479,339.2,15.43,3,320,0.158,10.02,2.806,0
371,35.205,-97.479,341.2,16.463,3,320,0.19,10.268,2.497,0
372,35.205,-97.479,341.7,17.707,3,319,0.155,10.558,2.403,0
373,35.205,-97.479,342.1,18.966,3,318,0.004,10.503,2.074,0
374,35.205,-97.48,341.7,20.177,3,317,-0.09,10.58,2.197,0
375,35.205,-97.48,341.2,21.286,3,316,-0.072,10.518,2.365,0
376,35.205,-97.48,341.2,22.356,3,316,-0.11,10.677,2.213,0
377,35.206,-97.48,341.3,23.273,3,315,-0.122,10.67,2.257,0
378,35.206,-97.48,341.3,24.121,3,315,-0.201,10.845,2.325,0
379,35.206,-97.48,340.8,24.84,3,315,-0.12,10.567,2.304,0
380,35.206,-97.48,340,25.49,3,314,-0.05,10.059,2.101,0
381,35.207,-97.48,339.6,26.08,3,314,-0.185,10.43,2.466,0
382,35.207,-97.48,339.2,26.66,3,314,-0.199,10.539,2.532,0
383,35.207,-97.48,338.7,27.04,3,314,0.016,10.569,2.53,0
384,35.207,-97.48,337.6,27.62,3,314,-0.481,10.549,2.535,0
385,35.207,-97.481,336.7,27.94,3,314,-0.582,10.426,2.532,0
386,35.208,-97.481,334.7,28.181,3,314,-0.528,10.539,2.287,0
387,35.208,-97.481,334.7,28.181,3,314,-0.516,10.468,2.261,0
388,35.208,-97.481,332.6,28.41,3,314,-0.468,10.667,2.176,0
389,35.209,-97.481,330.8,28.721,3,315,-0.292,10.407,2.574,0
390,35.209,-97.481,330.3,29.03,3,315,-0.299,10.187,2.917,0
391,35.209,-97.482,330.9,29.421,3,316,-0.265,10.194,2.921,0
392,35.209,-97.482,331.5,29.581,3,317,-0.326,10.454,2.818,0
393,35.21,-97.482,331.6,29.931,3,317,-0.35,10.566,2.078,0
394,35.21,-97.482,331.3,30.16,3,317,-0.386,10.516,2.006,0
395,35.21,-97.482,331,30.451,3,317,-0.333,10.331,2.314,0
396,35.21,-97.482,331.1,30.81,3,318,-0.46,10.431,2.515,0
397,35.21,-97.483,331.2,31.21,3,318,-0.381,10.564,2.257,0
398,35.211,-97.483,331.7,31.47,3,319,-0.857,10.346,2.47,0
399,35.211,-97.483,332.1,31.37,3,319,-0.804,10.344,2.323,0
400,35.211,-97.483,332,31.36,3,320,-0.651,10.414,2.214,0
402,35.212,-97.483,332.1,31.331,3,320,-0.624,10.63,1.959,0
402,35.212,-97.483,332.1,31.331,3,320,-0.624,10.63,1.959,0
403,35.212,-97.483,331.3,31.441,3,320,-0.55,10.449,1.882,0
404,35.212,-97.484,330.4,31.67,3,320,-0.547,10.359,2.281,0
405,35.212,-97.484,330.3,31.82,3,320,-0.603,10.381,2.564,0
406,35.213,-97.484,331,31.88,3,320,-0.966,10.365,2.729,0
407,35.213,-97.484,332.2,31.64,3,321,-1.161,10.341,2.419,0
408,35.213,-97.484,332.9,31.25,3,321,-1.239,10.509,2.316,0
409,35.213,-97.484,333.4,30.78,3,321,-1.21,10.314,2.269,0
410,35.214,-97.484,334.1,30.3,3,321,-1.112,9.96,3.882,0
411,35.214,-97.485,337.4,29.96,3,322,-0.855,10.009,3.355,0
412,35.214,-97.485,339.9,29.9,3,322,-0.811,10.327,3.234,0
413,35.214,-97.485,341.4,29.96,3,321,-0.593,10.207,3.107,0
414,35.215,-97.485,343,30.13,3,321,-0.567,10.239,2.91,0
415,35.215,-97.485,344.7,30.321,3,323,-0.637,10.403,2.908,0
416,35.215,-97.485,346.1,30.511,3,323,-0.642,10.156,2.962,0
417,35.215,-97.485,347.8,30.68,3,324,-0.762,10.408,2.949,0
418,35.216,-97.485,349.4,30.8,3,323,-0.728,10.235,2.843,0
419,35.216,-97.485,350.5,30.86,3,323,-0.734,10.196,2.898,0
420,35.216,-97.485,352,30.94,3,323,-0.778,10.346,3.077,0
421,35.216,-97.485,353.3,31.06,3,323,-0.745,10.285,2.794,0
422,35.217,-97.485,354.4,31.05,3,323,-0.838,10.411,2.998,0
423,35.217,-97.485,356,30.94,3,322,-0.787,10.094,3.065,0
424,35.217,-97.485,357.8,30.91,3,322,-0.779,10.22,2.975,0
425,35.218,-97.485,359.6,30.811,3,323,-0.672,10.361,2.402,0
426,35.218,-97.485,0.2,30.84,3,322,-0.667,10.443,2.267,0
427,35.218,-97.485,0,30.88,3,323,-0.706,10.204,2.443,0
428,35.218,-97.485,359.9,30.88,5,323,-0.684,10.329,2.884,0
429,35.219,-97.485,359.9,30.88,7,323,-0.672,10.491,2.609,0
430,35.219,-97.485,359.9,30.88,7,323,-0.73,10.255,2.46,0
431,35.219,-97.485,1.4,31.462,12,323,-0.81,10.288,2.523,0
432,35.219,-97.485,0.1,30.931,9,323,-0.819,10.423,2.873,0
433,35.22,-97.485,359.8,30.94,9,322,-0.767,10.318,2.686,0
434,35.22,-97.485,0,30.95,9,323,-0.693,10.516,2.674,0
435,35.22,-97.485,359.9,30.97,8,320,-0.777,10.34,2.492,0
436,35.221,-97.485,359.6,30.95,8,321,-0.766,10.358,2.865,0
437,35.221,-97.485,359.6,30.94,7,321,-0.768,10.244,2.985,0
438,35.221,-97.485,359.6,31.02,7,321,-0.679,10.231,2.722,0
439,35.221,-97.485,359.9,31.11,7,322,-0.704,10.27,2.748,0
440,35.222,-97.485,0.1,31.05,7,322,-0.686,10.226,2.621,0
441,35.222,-97.485,0.3,30.991,6,323,-0.734,10.241,2.547,0
442,35.222,-97.485,0.3,30.98,6,323,-0.669,10.28,2.64,0
443,35.223,-97.485,0.1,31.091,6,323,-0.732,10.343,2.645,0
444,35.223,-97.485,359.9,31.09,5,323,-0.734,10.412,2.633,0
445,35.223,-97.485,359.6,31.04,6,323,-0.741,10.245,2.652,0
446,35.223,-97.485,359.8,31.03,5,324,-0.744,10.15,2.501,0
447,35.224,-97.485,359.6,31.17,5,323,-0.731,10.149,2.753,0
448,35.224,-97.485,359.8,31.23,5,323,-0.802,10.378,2.798,0
449,35.224,-97.485,0.2,31.161,5,325,-0.83,10.289,2.778,0
450,35.225,-97.485,0.2,31.15,5,324,-0.665,10.376,2.66,0
451,35.225,-97.485,0,31.071,5,326,-0.757,10.289,2.513,0
452,35.225,-97.485,359.6,31.17,4,327,-0.686,10.269,2.787,0
453,35.226,-97.485,359.5,30.5,4,327,-0.709,10.156,2.849,0
454,35.226,-97.485,0,31.13,4,327,-0.761,10.222,2.833,0
455,35.226,-97.485,0.1,31.21,4,327,-0.74,10.206,2.714,0
456,35.226,-97.485,0,31.29,4,326,-0.751,10.358,2.616,0
457,35.227,-97.485,359.7,31.35,4,324,-0.758,10.323,2.812,0
458,35.227,-97.485,359.8,31.3,4,325,-0.752,10.209,2.903,0
459,35.227,-97.485,0,31.3,5,326,-0.795,10.28,2.85,0
460,35.228,-97.485,0.3,31.24,5,326,-0.827,10.314,2.659,0
461,35.228,-97.485,0,31.27,5,327,-0.784,10.436,2.646,0
462,35.228,-97.485,359.8,31.23,5,325,-0.693,10.152,3.02,0
463,35.228,-97.485,359.7,31.29,5,325,-0.764,10.207,2.876,0
465,35.229,-97.485,359.9,31.3,5,325,-0.773,10.241,2.861,0
465,35.229,-97.485,359.9,31.3,5,325,-0.773,10.241,2.861,0
466,35.229,-97.485,0,31.291,5,326,-0.754,10.122,3.144,0
467,35.229,-97.485,0,31.301,5,326,-0.789,10.349,2.842,0
468,35.23,-97.485,0.1,31.26,5,327,-0.759,10.243,2.683,0
469,35.23,-97.485,0,31.511,5,327,-0.775,10.184,2.698,0
470,35.23,-97.485,0,31.331,5,327,-0.773,10.235,2.6,0
471,35.23,-97.485,0,31.22,5,326,-0.752,10.213,2.696,0
472,35.231,-97.485,359.9,31.21,5,327,-0.773,10.316,2.711,0
473,35.231,-97.485,0,31.15,5,327,-0.704,10.406,2.714,0
474,35.231,-97.485,359.8,31.32,5,328,-0.79,10.353,2.756,0
475,35.232,-97.485,359.7,31.35,5,327,-0.785,10.237,2.862,0
476,35.232,-97.485,359.8,31.35,5,327,-0.847,10.195,2.986,0
477,35.232,-97.485,0,31.41,5,325,-0.773,10.358,2.773,0
478,35.232,-97.485,0,31.451,5,326,-0.811,10.209,2.701,0
479,35.233,-97.485,359.8,31.32,4,326,-0.736,10.427,2.575,0
480,35.233,-97.485,0.1,31.43,5,325,-0.746,10.264,2.775,0
481,35.233,-97.485,0.7,30.99,5,324,-0.759,10.281,2.792,0
482,35.233,-97.485,0.2,31.15,10,324,-0.711,10.379,2.679,0
483,35.234,-97.485,359.9,31.26,10,324,-0.724,10.294,2.515,0
484,35.234,-97.485,359.9,31.32,10,325,-0.748,10.281,2.596,0
485,35.234,-97.485,359.9,31.34,10,325,-0.72,9.985,2.742,0
486,35.235,-97.485,0,31.33,10,326,-0.792,10.383,2.843,0
487,35.235,-97.485,359.8,31.381,10,325,-0.761,10.204,3.058,0
488,35.235,-97.485,0,31.37,10,323,-0.727,10.365,2.777,0
489,35.235,-97.485,0.1,31.24,10,324,-0.724,10.268,2.835,0
490,35.236,-97.485,359.5,31.5,11,321,-0.726,10.167,2.831,0
491,35.236,-97.485,0.1,31.36,10,322,-0.79,10.214,2.791,0
492,35.236,-97.485,0.2,31.43,10,322,-0.757,10.223,2.525,0
493,35.237,-97.485,0.1,31.45,10,322,-0.788,10.538,2.562,0
494,35.237,-97.485,359.9,31.51,10,322,-0.835,10.269,2.616,0
495,35.237,-97.485,359.6,31.4,10,321,-0.859,10.296,2.644,0
496,35.237,-97.485,359.8,31.4,10,322,-0.798,10.12,2.853,0
497,35.238,-97.485,359.8,31.31,10,322,-0.818,10.341,2.684,0
498,35.238,-97.485,0.1,31.11,10,321,-0.872,10.272,3.019,0
499,35.238,-97.485,0,31.21,10,321,-0.773,10.417,2.848,0
500,35.239,-97.485,0,31.25,10,321,-0.837,10.45,2.549,0
501,35.239,-97.485,359.5,31.34,10,319,-0.833,10.329,2.779,0
502,35.239,-97.485,359.5,31.371,10,320,-0.767,10.17,2.904,0
503,35.239,-97.485,0.4,31.262,10,321,-0.816,10.269,2.494,0
504,35.24,-97.485,0.3,31.33,10,321,-0.782,10.05,3.054,0
505,35.24,-97.485,359.9,31.34,10,321,-0.818,10.283,2.68,0
506,35.24,-97.485,359.8,31.3,10,320,-0.828,10.242,2.907,0
507,35.241,-97.485,359.7,31.2,10,320,-0.832,10.288,2.958,0
508,35.241,-97.485,0,31.27,10,321,-0.82,10.295,2.61,0
509,35.241,-97.485,0.3,31.2,10,321,-0.767,10.313,2.717,0
510,35.241,-97.485,0.2,31.241,10,321,-0.823,10.386,2.664,0
511,35.242,-97.485,0.3,31.201,10,321,-0.859,10.239,2.904,0
512,35.242,-97.485,0.2,31.16,10,321,-0.857,10.299,3.118,0
513,35.242,-97.485,0.3,31.282,10,323,-0.753,10.386,2.799,0
514,35.243,-97.485,0.6,31.171,11,323,-0.851,10.168,3.023,0
515,35.243,-97.485,0.3,31.13,11,323,-0.815,10.637,2.629,0
516,35.243,-97.485,0.7,30.92,11,323,-0.82,10.241,2.671,0
517,35.244,-97.485,0.4,31.07,11,322,-0.865,10.434,2.845,0
518,35.244,-97.485,0.1,31.27,11,321,-0.837,10.3,2.721,0
519,35.244,-97.485,0,31.241,12,321,-0.8,10.271,2.72,0
520,35.244,-97.485,0.4,30.98,12,323,-0.777,10.234,2.706,0
521,35.245,-97.485,0.4,31.061,11,322,-0.772,10.396,2.637,0
522,35.245,-97.485,359.8,31.19,11,322,-0.858,10.232,2.507,0
523,35.245,-97.485,359.8,31.06,11,322,-0.836,10.285,2.717,0
524,35.246,-97.485,359.9,31.08,11,323,-0.755,10.156,2.846,0
525,35.246,-97.485,359.9,31.24,11,322,-0.778,10.275,2.677,0
526,35.246,-97.485,0,31.15,12,322,-0.829,10.394,2.685,0
527,35.246,-97.485,359.9,31.12,12,323,-0.816,10.376,2.767,0
528,35.247,-97.485,0,31.051,12,324,-0.843,10.359,2.736,0
530,35.247,-97.485,0.1,31.08,11,324,-0.796,10.21,2.819,0
530,35.247,-97.485,0.1,31.08,11,324,-0.796,10.21,2.819,0
531,35.247,-97.485,0.1,31.22,11,324,-0.791,10.383,2.571,0
532,35.248,-97.485,0,31.07,11,325,-0.767,10.431,2.565,0
533,35.248,-97.485,0.5,31.421,11,325,-0.738,10.341,2.756,0
534,35.248,-97.485,1,31.31,11,324,-0.768,10.247,2.444,0
535,35.248,-97.485,359.7,31.2,11,325,-0.754,10.417,2.572,0
536,35.249,-97.485,359.8,31.03,10,326,-0.69,10.331,2.691,0
537,35.249,-97.485,359.9,31.1,10,326,-0.72,10.435,2.696,0
538,35.249,-97.485,0,31.111,10,323,-0.742,10.382,2.547,0
539,35.25,-97.485,359.6,31.11,10,324,-0.722,10.273,2.706,0
540,35.25,-97.485,359.7,31.111,10,324,-0.788,10.232,2.577,0
541,35.25,-97.485,359.7,31.05,10,324,-0.795,10.245,2.704,0
542,35.25,-97.485,359.7,31.07,10,324,-0.848,10.394,2.808,0
543,35.251,-97.485,359.7,30.99,11,325,-0.761,10.322,2.753,0
544,35.251,-97.485,0.2,30.79,11,326,-0.726,10.379,2.535,0
545,35.251,-97.485,359.9,30.88,10,326,-0.759,10.32,2.565,0
546,35.251,-97.485,359.7,30.92,10,327,-0.711,10.271,2.681,0
547,35.252,-97.485,359.6,31.111,10,326,-0.76,10.239,2.872,0
548,35.252,-97.485,0.1,31.03,10,327,-0.753,10.337,2.612,0
549,35.252,-97.485,0.1,31.05,10,326,-0.721,10.432,2.716,0
550,35.253,-97.485,0,30.92,10,325,-0.686,10.43,2.619,0
551,35.253,-97.485,359.7,31.03,10,324,-0.731,10.454,2.637,0
552,35.253,-97.485,0,30.96,10,323,-0.746,10.273,2.516,0
553,35.253,-97.485,359.9,31,11,324,-0.759,10.291,2.633,0
554,35.254,-97.485,359.8,31.04,11,324,-0.763,10.404,2.692,0
555,35.254,-97.485,359.8,31.06,11,325,-0.727,10.454,2.853,0
556,35.254,-97.485,0,31.031,11,324,-0.732,10.179,2.956,0
557,35.255,-97.485,0.1,30.961,11,325,-0.743,10.285,2.908,0
558,35.255,-97.485,0.3,30.841,11,325,-0.718,10.255,2.672,0
559,35.255,-97.485,359.8,31,11,326,-0.705,10.267,2.792,0
560,35.255,-97.485,0.1,30.91,11,327,-0.771,10.443,2.725,0
561,35.256,-97.485,0.1,30.93,11,326,-0.741,10.315,2.79,0
562,35.256,-97.485,359.9,31.17,11,325,-0.695,10.305,2.733,0
563,35.256,-97.485,0,31.1,11,326,-0.738,10.301,2.774,0
564,35.257,-97.485,359.7,31.31,11,325,-0.783,10.41,2.743,0
565,35.257,-97.485,359.8,31.25,11,325,-0.839,10.287,2.71,0
566,35.257,-97.485,359.6,31.371,11,324,-0.8,10.243,2.832,0
567,35.257,-97.485,359.5,31.37,11,324,-0.754,10.362,3.059,0
568,35.258,-97.485,359.6,31.31,11,325,-0.787,10.317,2.93,0
569,35.258,-97.485,1.2,30.74,11,326,-0.873,10.257,2.678,0
570,35.258,-97.485,0.5,30.98,11,326,-0.807,10.367,2.6,0
571,35.259,-97.485,0.8,30.97,12,326,-0.821,10.381,2.525,0
572,35.259,-97.485,0.5,31.101,12,326,-0.839,10.339,2.68,0
573,35.259,-97.485,0.6,31.031,12,326,-0.876,10.286,2.719,0
574,35.259,-97.485,0.8,30.88,11,327,-0.884,10.362,2.57,0
575,35.26,-97.485,359.6,31.311,11,326,-0.84,10.337,2.628,0
576,35.26,-97.485,359.4,31.35,10,327,-0.815,10.498,2.708,0
577,35.26,-97.485,359.8,31.19,10,326,-0.753,10.327,2.698,0
578,35.261,-97.485,359.9,30.93,11,325,-0.827,10.388,2.772,0
579,35.261,-97.485,0.1,31.15,11,325,-0.754,10.395,2.805,0
580,35.261,-97.485,358.8,31.66,10,324,-0.848,10.391,2.734,0
581,35.262,-97.485,359.3,31.501,11,325,-0.822,10.255,2.832,0
582,35.262,-97.485,0.4,30.89,11,326,-0.776,10.145,2.9,0
583,35.262,-97.485,359.4,31.571,11,326,-0.83,10.287,3.055,0
584,35.262,-97.485,0.1,31.25,11,325,-0.776,10.167,2.74,0
585,35.263,-97.485,0.8,30.9,10,332,-0.735,10.352,2.765,0
586,35.263,-97.485,0.3,31.01,11,330,-0.791,10.284,2.775,0
587,35.263,-97.485,0,31.13,11,328,-0.818,10.204,3.086,0
588,35.264,-97.485,0,31.28,12,327,-0.85,10.31,2.459,0
589,35.264,-97.485,0.3,31.18,11,326,-0.787,10.294,2.572,0
590,35.264,-97.485,359.6,31.351,11,325,-0.755,10.383,2.901,0
591,35.264,-97.485,359.8,31.23,10,324,-0.812,10.314,2.611,0
592,35.265,-97.485,0.6,30.951,11,324,-0.789,10.38,2.654,0
594,35.265,-97.485,0.1,31.09,10,324,-0.789,10.372,2.852,0
594,35.265,-97.485,0.1,31.09,10,324,-0.789,10.372,2.852,0
595,35.265,-97.485,0.3,31.08,11,324,-0.737,10.375,2.984,0
596,35.266,-97.485,0.7,30.92,11,323,-0.761,10.355,2.76,0
597,35.266,-97.485,359.8,31.3,11,323,-0.826,10.174,2.699,0
598,35.266,-97.485,0.2,31.141,11,329,-0.778,10.412,2.619,0
599,35.266,-97.485,358.9,31.641,11,327,-0.771,10.257,2.612,0
600,35.267,-97.485,358.8,31.712,11,327,-0.797,10.308,2.594,0
601,35.267,-97.486,358.9,31.681,11,326,-0.809,10.309,2.767,0
602,35.267,-97.485,359.5,31.43,10,324,-0.864,10.315,2.491,0
603,35.268,-97.486,359.1,31.47,10,326,-0.802,10.287,2.746,0
604,35.268,-97.485,359.7,31.23,10,326,-0.817,10.36,2.578,0
605,35.268,-97.485,359.9,31.15,11,327,-0.796,10.248,2.78,0
606,35.268,-97.486,359.7,31.2,10,325,-0.824,10.315,2.949,0
607,35.269,-97.485,0,31.101,11,326,-0.864,10.257,2.768,0
608,35.269,-97.486,359.3,31.381,11,332,-0.808,10.266,2.668,0
609,35.269,-97.485,359.7,31.23,11,329,-0.827,10.223,2.995,0
610,35.27,-97.486,358.5,31.812,12,329,-0.809,10.344,2.843,0
611,35.27,-97.485,0.4,31.161,12,327,-0.779,10.258,2.736,0
612,35.27,-97.486,359.3,31.53,11,325,-0.805,10.441,2.701,0
613,35.27,-97.485,0.6,31.02,11,323,-0.854,10.341,2.597,0
614,35.271,-97.485,1,30.89,11,322,-0.848,10.312,2.565,0
615,35.271,-97.485,0.2,31.29,10,323,-0.881,10.388,2.744,0
616,35.271,-97.485,0.6,31.19,11,324,-0.891,10.425,2.857,0
617,35.271,-97.485,1,31.091,11,325,-0.903,10.332,2.813,0
618,35.272,-97.485,1.6,30.88,11,324,-0.929,10.345,2.938,0
619,35.272,-97.485,1,31.091,11,324,-0.976,10.402,2.805,0
620,35.272,-97.485,0.6,31.151,11,324,-0.92,10.343,2.663,0
621,35.273,-97.485,1.5,30.77,11,322,-0.89,10.35,2.807,0
622,35.273,-97.485,359,31.61,11,320,-0.86,10.305,2.763,0
623,35.273,-97.485,359.7,31.28,11,321,-0.904,10.458,2.565,0
624,35.273,-97.485,359.4,31.45,11,321,-0.856,10.284,2.903,0
625,35.274,-97.485,359.2,31.57,12,323,-0.88,10.257,2.887,0
626,35.274,-97.485,0,31.36,12,321,-0.871,10.257,2.57,0
627,35.274,-97.485,359.7,31.53,12,322,-0.886,10.399,2.728,0
628,35.275,-97.486,359.3,31.69,11,322,-0.901,10.292,2.856,0
629,35.275,-97.486,359.3,31.61,10,323,-0.98,10.421,2.777,0
630,35.275,-97.486,359.5,31.51,11,327,-0.938,10.41,2.863,0
631,35.275,-97.486,359.8,31.43,11,325,-0.968,10.471,2.76,0
632,35.276,-97.485,1.2,30.85,10,325,-0.961,10.561,2.881,0
633,35.276,-97.485,0.4,31.05,11,325,-0.914,10.523,2.667,0
634,35.276,-97.485,0.3,30.971,11,325,-0.866,10.52,2.709,0
635,35.277,-97.485,0.1,31.071,10,325,-0.879,10.281,3.21,0
636,35.277,-97.486,0.7,31.01,10,325,-0.753,10.221,3.209,0
637,35.277,-97.485,3,30.643,10,326,-0.795,10.08,3.977,0
638,35.277,-97.485,5.7,30.541,10,326,-0.828,9.619,4.264,0
639,35.278,-97.485,10.4,30.303,10,325,-0.789,9.9,4.229,0
640,35.278,-97.485,14.6,30.181,9,325,-0.738,10.04,3.114,0
641,35.278,-97.485,17.3,30.121,9,326,-0.734,10.273,2.772,0
642,35.279,-97.485,19.2,30.19,9,326,-0.638,10.476,2.564,0
643,35.279,-97.485,18.8,30.41,9,327,-0.538,10.58,2.263,0
644,35.279,-97.485,18.5,30.48,9,326,-0.532,10.502,2.422,0
645,35.279,-97.485,18.3,30.63,9,324,-0.535,10.373,2.421,0
646,35.28,-97.485,18.5,31.33,9,324,-0.645,10.399,2.743,0
647,35.28,-97.484,18.7,31.67,10,324,-0.66,10.87,1.528,0
648,35.28,-97.484,14,30.86,9,325,-0.637,10.901,1.38,0
649,35.281,-97.484,10.9,30.96,9,325,-0.644,10.79,1.711,0
650,35.281,-97.484,9.4,30.632,9,326,-0.68,10.765,1.476,0
651,35.281,-97.484,5.4,30.98,4,325,-0.741,10.681,1.616,0
652,35.281,-97.484,5.9,31.36,5,325,-0.673,10.82,1.499,0
653,35.282,-97.484,0.5,31.011,4,326,-0.598,10.844,1.166,0
654,35.282,-97.484,358.6,31.222,5,327,-0.656,10.74,1.688,0
655,35.282,-97.484,353.8,31.11,4,326,-0.616,10.782,1.632,0
656,35.283,-97.484,351.7,31.1,4,327,-0.67,10.767,1.504,0
657,35.283,-97.484,349.1,31.04,3,328,-0.698,10.821,1.467,0
659,35.283,-97.484,346,31.042,3,328,-0.675,10.844,1.645,0
659,35.283,-97.484,346,31.042,3,328,-0.675,10.844,1.645,0
660,35.283,-97.485,344.1,30.952,3,328,-0.644,10.535,2.067,0
661,35.284,-97.485,342.7,31.151,3,329,-0.609,10.244,2.811,0
662,35.284,-97.485,343,31.12,3,329,-0.692,10.266,2.843,0
663,35.284,-97.485,343.5,31.13,3,329,-0.69,10.341,2.669,0
664,35.284,-97.485,343.5,31.12,3,329,-0.695,10.232,2.501,0
665,35.285,-97.485,343.4,31.13,3,328,-0.756,10.352,2.465,0
666,35.285,-97.485,343.1,31.19,3,328,-0.746,10.39,2.78,0
667,35.285,-97.485,343.1,31.28,3,329,-0.729,10.251,2.571,0
668,35.285,-97.485,343.7,31.29,3,328,-0.768,10.469,2.559,0
669,35.286,-97.485,343.3,31.31,3,327,-0.798,10.35,2.487,0
670,35.286,-97.486,343.2,31.231,3,327,-0.809,10.412,2.58,0
671,35.286,-97.486,343,31.25,3,328,-0.774,10.424,2.744,0
672,35.287,-97.486,343.1,31.171,3,328,-0.824,10.376,2.454,0
673,35.287,-97.486,343.1,31.08,3,328,-0.79,10.489,2.617,0
674,35.287,-97.486,342.9,31.08,3,328,-0.731,10.366,2.763,0
675,35.287,-97.486,343.2,30.99,3,328,-0.702,10.338,2.434,0
676,35.288,-97.486,343.4,31,3,328,-0.713,10.368,2.502,0
677,35.288,-97.486,343.6,30.961,3,328,-0.711,10.392,2.624,0
678,35.288,-97.486,343.5,30.99,3,327,-0.745,10.435,2.437,0
679,35.288,-97.486,343.5,31.001,3,328,-0.733,10.441,2.252,0
680,35.289,-97.487,343.3,31,3,328,-0.771,10.42,2.34,0
681,35.289,-97.487,343,31.02,3,327,-0.788,10.368,2.439,0
682,35.289,-97.487,342.8,31.02,3,327,-0.821,10.351,2.602,0
683,35.29,-97.487,342.9,30.95,4,326,-0.811,10.337,2.616,0
684,35.29,-97.487,343.1,30.9,4,325,-0.753,10.444,2.497,0
685,35.29,-97.487,343.3,30.89,4,325,-0.787,10.569,2.377,0
686,35.29,-97.487,343.2,30.91,4,323,-0.695,10.374,2.304,0
687,35.291,-97.487,343.1,30.86,4,323,-0.713,10.508,2.681,0
688,35.291,-97.487,343.1,30.87,4,322,-0.657,10.521,2.609,0
689,35.291,-97.487,343,30.86,4,321,-0.792,10.417,3.031,0
690,35.291,-97.488,343.5,30.88,3,321,-0.726,10.296,2.565,0
691,35.292,-97.488,343.7,30.921,3,322,-0.693,10.402,2.2,0
692,35.292,-97.488,343.5,30.94,3,322,-0.744,10.535,2.153,0
693,35.292,-97.488,343.3,31,3,322,-0.804,10.432,2.655,0
694,35.292,-97.488,343.4,31.07,3,322,-0.749,10.467,2.373,0
695,35.293,-97.488,343.6,31.15,3,323,-0.811,10.461,2.368,0
696,35.293,-97.488,343.6,31.19,4,323,-0.82,10.453,2.303,0
697,35.293,-97.488,343.6,31.23,4,322,-0.851,10.522,2.402,0
698,35.294,-97.488,343.6,31.32,4,322,-0.823,10.397,2.491,0
699,35.294,-97.488,343.5,31.37,4,323,-0.866,10.495,2.237,0
700,35.294,-97.489,343.5,31.44,3,322,-0.818,10.473,2.384,0
701,35.294,-97.489,343.4,31.5,3,322,-0.866,10.486,2.384,0
702,35.295,-97.489,343.3,31.49,3,322,-0.936,10.479,2.392,0
703,35.295,-97.489,343.5,31.49,3,322,-0.945,10.375,2.384,0
704,35.295,-97.489,343.5,31.42,4,324,-0.955,10.425,2.472,0
705,35.295,-97.489,343.6,31.38,4,324,-0.946,10.302,2.322,0
706,35.296,-97.489,344,31.35,3,323,-0.95,10.485,2.704,0
707,35.296,-97.489,344.4,31.29,3,322,-0.952,10.517,2.921,0
708,35.296,-97.489,345.1,31.25,3,322,-0.9,10.516,2.832,0
709,35.297,-97.489,346.9,31.09,3,322,-0.887,10.232,2.72,0
710,35.297,-97.49,347.8,30.95,3,323,-0.956,10.44,2.9,0
711,35.297,-97.49,349.4,30.721,3,324,-0.803,10.403,2.867,0
712,35.298,-97.49,350.6,30.601,3,325,-0.814,10.5,2.721,0
713,35.298,-97.49,351.5,30.451,3,326,-0.75,10.321,2.742,0
714,35.298,-97.49,352.1,30.421,3,326,-0.644,10.287,2.687,0
715,35.298,-97.49,353.2,30.421,3,327,-0.556,10.295,2.699,0
716,35.299,-97.49,354.1,30.41,3,328,-0.573,10.413,2.867,0
717,35.299,-97.49,355.1,30.47,3,328,-0.598,10.148,3.019,0
718,35.299,-97.49,356.8,30.472,3,329,-0.639,10.388,2.849,0
719,35.3,-97.49,357.7,30.441,3,330,-0.579,10.456,2.692,0
720,35.3,-97.49,358.7,30.501,3,331,-0.57,10.417,2.55,0
721,35.3,-97.49,359.3,30.551,3,331,-0.536,10.33,2.443,0
722,35.3,-97.49,359.6,30.64,3,331,-0.586,10.441,2.459,0
724,35.301,-97.49,359.7,30.71,3,331,-0.621,10.387,2.15,0
724,35.301,-97.49,359.7,30.71,3,331,-0.621,10.387,2.15,0
725,35.301,-97.49,359.7,30.75,3,331,-0.611,10.267,2.341,0
726,35.301,-97.49,359.6,30.851,3,329,-0.596,10.38,2.616,0
727,35.301,-97.49,0.1,30.92,3,329,-0.693,10.388,2.323,0
728,35.302,-97.49,0.1,30.96,3,330,-0.668,10.519,2.196,0
729,35.302,-97.49,359.9,31.03,3,329,-0.626,10.499,2.392,0
730,35.302,-97.49,0.1,31.14,3,329,-0.642,10.65,2.319,0
731,35.303,-97.49,0,31.19,3,327,-0.778,10.592,2.2,0
732,35.303,-97.49,359.9,31.201,3,328,-0.743,10.346,2.467,0
733,35.303,-97.49,0.1,31.27,3,329,-0.702,10.139,2.658,0
734,35.303,-97.49,0.6,31.33,3,327,-0.625,10.164,2.662,0
735,35.304,-97.49,0.5,31.631,3,326,-0.829,10.249,2.386,0
736,35.304,-97.49,1.4,31.43,3,325,-0.812,10.474,2.113,0
737,35.304,-97.49,1.1,31.47,3,325,-0.779,10.642,1.954,0
738,35.305,-97.49,0.6,31.45,3,326,-0.805,10.549,2.326,0
739,35.305,-97.49,0,31.47,3,326,-0.778,10.522,2.269,0
740,35.305,-97.49,359.9,31.3,3,326,-0.852,10.595,2.037,0
741,35.305,-97.49,359.6,31.471,4,326,-0.85,10.354,2.119,0
742,35.306,-97.49,359.4,31.372,5,327,-0.807,10.582,1.821,0
743,35.306,-97.49,359.1,31.31,5,327,-0.846,10.582,2.101,0
744,35.306,-97.49,358.2,31.311,5,327,-0.844,10.353,2.505,0
745,35.307,-97.49,358.7,31.25,5,327,-0.82,10.403,2.768,0
746,35.307,-97.49,359.5,31.22,5,327,-0.807,10.451,2.448,0
747,35.307,-97.49,0,31.16,5,327,-0.888,10.544,2.4,0
748,35.307,-97.49,0,31.12,5,326,-0.821,10.396,2.442,0
749,35.308,-97.49,0,31.08,4,326,-0.871,10.537,2.389,0
750,35.308,-97.49,359.8,31.041,4,327,-0.836,10.656,2.482,0
751,35.308,-97.49,359.8,31.033,5,328,-0.842,10.462,2.552,0
752,35.309,-97.49,0,31.01,4,327,-0.818,10.406,2.273,0
753,35.309,-97.49,0.1,30.931,4,326,-0.885,10.449,2.244,0
754,35.309,-97.49,359.9,30.91,4,324,-0.828,10.54,2.312,0
755,35.309,-97.49,0,30.83,4,323,-0.799,10.327,2.302,0
756,35.31,-97.49,359.8,30.82,4,323,-0.799,10.536,2.644,0
757,35.31,-97.49,0,30.8,4,323,-0.792,10.449,2.266,0
758,35.31,-97.49,359.8,30.75,3,323,-0.726,10.526,2.451,0
759,35.31,-97.49,359.9,30.681,3,324,-0.719,10.395,2.379,0
760,35.311,-97.49,0,30.663,4,324,-0.801,10.566,2.394,0
761,35.311,-97.49,359.8,30.661,3,324,-0.713,10.389,2.43,0
762,35.311,-97.49,0,30.611,3,324,-0.809,10.447,2.244,0
763,35.312,-97.49,359.8,30.53,3,325,-0.896,10.383,2.475,0
764,35.312,-97.49,359.9,30.43,3,326,-0.822,10.498,2.396,0
765,35.312,-97.49,0,30.36,3,327,-0.766,10.408,2.232,0
766,35.312,-97.49,359.8,30.25,3,324,-0.725,10.42,2.4,0
767,35.313,-97.49,359.9,30.23,3,321,-0.657,10.301,2.435,0
768,35.313,-97.49,0,30.231,3,322,-0.594,10.349,2.207,0
769,35.313,-97.49,0,30.44,3,320,-0.556,10.554,2.57,0
770,35.314,-97.49,0,30.51,4,320,-0.621,10.329,2.507,0
771,35.314,-97.49,359.8,30.56,4,319,-0.639,10.484,2.607,0
772,35.314,-97.49,0.1,30.59,4,319,-0.58,10.519,2.17,0
773,35.315,-97.49,0.2,30.66,4,320,-0.611,10.462,2.174,0
774,35.315,-97.49,0,30.69,4,321,-0.64,10.468,2.43,0
775,35.315,-97.49,0,30.701,4,322,-0.612,10.614,2.353,0
776,35.315,-97.49,359.7,30.881,9,325,-0.68,10.426,2.308,0
777,35.316,-97.49,0.1,30.8,9,325,-0.715,10.624,2.228,0
778,35.316,-97.49,0,30.781,9,324,-0.665,10.537,2.215,0
779,35.316,-97.49,359.9,30.78,9,324,-0.72,10.497,2.341,0
780,35.317,-97.49,359.8,30.78,9,323,-0.674,10.489,2.172,0
781,35.317,-97.49,0,30.78,9,323,-0.679,10.422,2.251,0
783,35.317,-97.49,359.9,30.88,9,323,-0.693,10.483,2.432,0
783,35.317,-97.49,359.9,30.88,9,323,-0.693,10.483,2.432,0
784,35.317,-97.49,359.9,30.81,9,323,-0.646,10.502,2.39,0
785,35.318,-97.49,0,30.83,9,328,-0.642,10.449,2.103,0
786,35.318,-97.49,0.1,30.821,9,326,-0.69,10.523,2.207,0
787,35.318,-97.49,359.8,30.78,9,326,-0.65,10.498,2.385,0
788,35.318,-97.49,359.8,30.771,9,325,-0.654,10.336,2.371,0
789,35.319,-97.49,0,30.79,9,326,-0.682,10.454,2.301,0
790,35.319,-97.49,359.8,30.85,9,326,-0.613,10.317,2.394,0
791,35.319,-97.49,0.3,30.86,9,323,-0.676,10.418,2.103,0
792,35.32,-97.49,359.9,30.89,9,323,-0.616,10.366,2.151,0
793,35.32,-97.49,359.8,30.94,9,322,-0.649,10.395,2.373,0
794,35.32,-97.49,0.4,29.95,10,323,-0.64,10.555,2.576,0
795,35.32,-97.49,359.9,30.001,10,328,-0.729,10.504,2.469,0
796,35.321,-97.49,359.7,30.59,10,327,-0.729,10.58,2.342,0
797,35.321,-97.49,0.1,31.18,10,325,-0.791,10.448,2.076,0
798,35.321,-97.49,359.8,31.2,10,323,-0.788,10.406,2.133,0
799,35.322,-97.49,359.9,31.18,10,323,-0.775,10.36,2.571,0
800,35.322,-97.49,359.9,31.27,10,320,-0.789,10.295,2.452,0
801,35.322,-97.49,359.9,31.28,9,320,-0.787,10.387,2.245,0
802,35.322,-97.49,359.8,31.25,9,320,-0.775,10.482,2.388,0
803,35.323,-97.49,359.8,31.26,9,322,-0.77,10.489,2.332,0
804,35.323,-97.49,359.9,31.26,9,321,-0.813,10.484,2.384,0
805,35.323,-97.49,0,31.24,9,322,-0.738,10.353,2.401,0
806,35.324,-97.49,0.1,31.21,9,319,-0.737,10.434,2.245,0
807,35.324,-97.49,0.1,31.16,9,320,-0.731,10.403,2.322,0
808,35.324,-97.49,359.8,31.17,9,317,-0.648,10.583,2.1,0
809,35.324,-97.49,359.7,31.17,9,316,-0.693,10.428,2.301,0
810,35.325,-97.49,359.7,31.17,9,317,-0.747,10.424,2.313,0
811,35.325,-97.49,359.3,31.26,9,318,-0.697,10.579,2.33,0
812,35.325,-97.49,359.8,31.071,9,319,-0.777,10.417,2.091,0
813,35.325,-97.49,359.8,31.04,10,320,-0.774,10.397,2.483,0
814,35.326,-97.49,0.1,30.482,10,321,-0.733,10.229,2.631,0
815,35.326,-97.49,0,30.922,10,322,-0.682,10.534,2.521,0
816,35.326,-97.49,0.2,30.98,10,321,-0.61,10.48,2.103,0
817,35.327,-97.49,0,31,10,321,-0.741,10.614,2.286,0
818,35.327,-97.49,0,31.05,10,322,-0.679,10.401,2.471,0
819,35.327,-97.49,359.8,31.08,10,318,-0.781,10.592,2.471,0
820,35.327,-97.49,359.7,31.08,10,317,-0.702,10.372,2.474,0
821,35.328,-97.49,0,31.09,10,314,-0.699,10.436,2.695,0
822,35.328,-97.49,0.3,31.11,10,312,-0.592,10.574,2.436,0
823,35.328,-97.49,0.1,31.091,10,312,-0.663,10.389,2.124,0
824,35.329,-97.49,0,31.14,10,313,-0.607,10.514,2.204,0
825,35.329,-97.49,0,31.19,9,313,-0.768,10.489,2.233,0
826,35.329,-97.49,0,31.13,9,315,-0.872,10.313,2.579,0
827,35.329,-97.49,0.2,31.06,10,315,-0.875,10.271,2.411,0
828,35.33,-97.49,0,31.09,9,317,-0.755,10.309,2.457,0
829,35.33,-97.49,0,31.03,9,318,-0.627,10.318,2.203,0
830,35.331,-97.49,359.7,31.1,9,320,-0.745,10.48,2.269,0
831,35.331,-97.49,359.8,31.041,9,320,-0.768,10.739,2.217,0
832,35.331,-97.49,359.9,31.01,10,322,-0.757,10.687,2.548,0
833,35.331,-97.49,359.8,30.95,9,324,-0.758,10.37,2.374,0
834,35.332,-97.49,359.9,30.91,10,321,-0.746,10.323,2.61,0
835,35.332,-97.49,359.8,30.83,9,322,-0.753,10.544,2.304,0
836,35.332,-97.49,359.7,30.76,10,319,-0.835,10.43,2.603,0
837,35.332,-97.49,359.8,30.72,9,333,-0.78,10.296,2.36,0
838,35.333,-97.49,359.5,30.691,9,330,-0.725,10.372,2.227,0
839,35.333,-97.49,359.3,30.42,9,327,-0.607,10.629,2.121,0
840,35.333,-97.49,357,30.84,9,325,-0.687,10.697,2.059,0
841,35.334,-97.49,355.5,30.88,9,325,-0.641,10.623,2.294,0
842,35.334,-97.49,354.5,30.71,9,326,-0.63,10.775,2.121,0
844,35.334,-97.49,353.8,30.86,10,328,-0.638,10.668,1.942,0
844,35.334,-97.49,353.8,30.86,10,328,-0.638,10.668,1.942,0
845,35.334,-97.49,353.4,31.11,10,328,-0.682,10.447,1.538,0
846,35.335,-97.49,349.1,30.98,10,329,-0.682,10.392,2.11,0
847,35.335,-97.49,347.9,30.97,10,330,-0.701,10.452,2.117,0
848,35.335,-97.49,347,31.001,10,330,-0.656,10.417,2.373,0
849,35.335,-97.49,346,31.011,5,332,-0.763,10.612,1.986,0
850,35.336,-97.49,344.7,31.041,5,333,-0.728,10.603,2.253,0
851,35.336,-97.491,343.4,31.022,4,335,-0.725,10.712,2.243,0
852,35.336,-97.491,342.1,30.981,4,336,-0.672,10.669,2.503,0
853,35.337,-97.491,341.2,30.97,4,336,-0.677,10.469,2.446,0
854,35.337,-97.491,341,30.9,4,335,-0.627,10.566,2.537,0
855,35.337,-97.491,341.1,30.72,4,335,-0.615,10.585,2.418,0
856,35.337,-97.491,341.1,30.57,4,334,-0.541,10.204,2.199,0
857,35.338,-97.491,341.4,30.431,4,334,-0.448,10.366,2.219,0
858,35.338,-97.491,341.6,30.411,4,335,-0.457,10.499,2.27,0
859,35.338,-97.492,341.6,30.501,4,335,-0.611,10.186,2.692,0
860,35.338,-97.492,341.5,30.652,4,337,-0.357,10.577,1.991,0
861,35.339,-97.492,341.2,30.801,4,337,-0.574,10.186,2.436,0
862,35.339,-97.492,340.6,30.64,4,337,-0.552,10.414,2.339,0
863,35.339,-97.492,341.3,31.08,4,336,-0.574,10.416,2.431,0
864,35.339,-97.492,341.6,31.24,4,337,-0.676,10.572,2.045,0
865,35.34,-97.492,341.8,31.35,4,338,-0.712,10.515,1.92,0
866,35.34,-97.492,341.5,31.36,4,339,-0.714,10.593,2.12,0
867,35.34,-97.492,341.5,31.361,3,340,-0.819,10.441,1.985,0
868,35.341,-97.493,341.3,31.39,3,340,-0.755,10.58,2.335,0
869,35.341,-97.493,341.6,31.36,3,341,-0.714,10.578,2.181,0
870,35.341,-97.493,341.4,31.37,3,341,-0.717,10.515,2.142,0
871,35.341,-97.493,341.3,31.34,3,340,-0.834,10.577,2.022,0
872,35.342,-97.493,341.4,31.36,3,341,-0.726,10.266,2.302,0
873,35.342,-97.493,341.5,31.4,3,341,-0.77,10.488,2.103,0
874,35.342,-97.493,341.6,31.38,3,341,-0.768,10.572,2.219,0
875,35.342,-97.493,341.4,31.38,3,341,-0.82,10.499,2.545,0
876,35.343,-97.493,341.4,31.44,3,342,-0.771,9.918,2.253,0
877,35.343,-97.494,341.6,31.46,3,340,-1.055,10.177,2.119,0
878,35.343,-97.494,341.6,31.45,3,340,-0.864,10.015,1.986,0
879,35.343,-97.494,341.8,31.45,3,339,-0.845,10.284,3.456,0
880,35.344,-97.494,342.3,31.44,3,339,-0.918,10.195,2.928,0
881,35.344,-97.494,343.4,31.49,3,339,-0.893,10.261,2.672,0
882,35.344,-97.494,344.3,31.53,3,339,-0.894,10.53,2.857,0
883,35.345,-97.494,345.5,31.58,3,340,-1.009,10.275,2.921,0
884,35.345,-97.494,346.3,31.6,3,340,-1.04,10.291,3.235,0
885,35.345,-97.494,347.4,31.592,3,341,-1.04,10.565,3.258,0
886,35.345,-97.494,348.6,31.5,3,341,-0.984,10.67,2.862,0
887,35.346,-97.494,349.8,31.35,3,342,-0.941,10.385,2.76,0
888,35.346,-97.494,350.8,31.12,3,342,-0.907,10.465,2.79,0
889,35.346,-97.494,351.7,30.91,3,342,-0.839,10.221,2.895,0
890,35.347,-97.495,352.6,30.75,3,343,-0.737,10.133,3.051,0
891,35.347,-97.495,353.6,30.72,3,343,-0.728,10.294,2.844,0
892,35.347,-97.495,354.6,30.67,3,343,-0.661,10.42,2.789,0
893,35.347,-97.495,355.6,30.601,3,344,-0.697,10.368,2.809,0
894,35.348,-97.495,356.6,30.6,3,344,-0.666,10.484,2.903,0
895,35.348,-97.495,357.5,30.591,3,345,-0.723,10.493,2.625,0
896,35.348,-97.495,358.7,30.57,3,345,-0.685,10.385,2.596,0
897,35.349,-97.495,359.1,30.46,3,345,-0.625,10.654,2.534,0
898,35.349,-97.495,0.1,30.7,3,345,-0.464,10.406,1.854,0
899,35.349,-97.495,359.8,30.691,3,345,-0.645,10.254,2.314,0
900,35.35,-97.495,359.8,30.701,3,346,-0.604,10.193,2.423,0
901,35.35,-97.495,359.9,30.711,3,346,-0.683,10.379,2.615,0
902,35.35,-97.495,359.7,30.77,3,346,-0.785,10.318,2.396,0
903,35.35,-97.495,359.6,30.791,3,344,-0.732,10.482,2.182,0
904,35.351,-97.495,359.8,30.811,4,346,-0.781,10.563,1.99,0
905,35.351,-97.495,359.6,30.81,4,346,-0.528,10.708,2.101,0
906,35.351,-97.495,359.5,30.82,4,345,-0.664,10.507,2.396,0
907,35.351,-97.495,359.6,30.84,4,344,-0.693,10.508,2.401,0
908,35.352,-97.495,359.7,30.85,4,344,-0.747,10.649,2.393,0
909,35.352,-97.495,359.8,30.821,4,345,-0.711,10.566,2.514,0
911,35.352,-97.495,359.9,30.822,4,346,-0.73,10.466,2.258,0
911,35.352,-97.495,359.9,30.822,4,346,-0.73,10.466,2.258,0
912,35.353,-97.495,0,30.861,4,346,-0.723,10.749,1.89,0
913,35.353,-97.495,359.7,30.901,3,346,-0.657,10.359,2.292,0
914,35.353,-97.495,359.5,30.88,3,344,-0.801,10.63,2.297,0
915,35.353,-97.495,359.5,30.89,3,344,-0.741,10.424,2.112,0
916,35.354,-97.495,359.4,30.9,3,342,-0.67,10.615,2.073,0
917,35.354,-97.495,359.6,30.96,4,338,-0.655,10.533,2.118,0
918,35.354,-97.495,359.5,30.9,4,335,-0.739,10.284,2.468,0
919,35.355,-97.495,359.4,30.86,4,334,-0.577,10.431,2.142,0
920,35.355,-97.495,359.6,30.852,4,336,-0.692,10.802,1.877,0
921,35.355,-97.495,359.9,30.861,4,335,-0.76,10.596,2.33,0
922,35.355,-97.495,359.8,30.831,4,336,-0.662,10.743,2.388,0
923,35.356,-97.495,359.8,30.831,4,338,-0.639,10.554,2.228,0
924,35.356,-97.495,359.7,30.83,4,338,-0.732,10.505,2.202,0
925,35.356,-97.495,359.6,30.9,4,338,-0.706,10.418,2.363,0
926,35.357,-97.495,359.3,30.91,3,338,-0.75,10.621,2.445,0
927,35.357,-97.495,359.4,30.911,3,338,-0.658,10.418,2.238,0
928,35.357,-97.495,359.5,30.901,4,336,-0.816,10.63,2.313,0
929,35.357,-97.495,359.5,30.9,4,334,-0.64,10.291,2.41,0
930,35.358,-97.495,359.3,30.89,3,334,-0.67,10.485,2.543,0
931,35.358,-97.495,359.2,30.9,3,332,-0.713,10.381,2.416,0
932,35.358,-97.495,359.4,30.91,4,334,-0.665,10.538,2.273,0
933,35.358,-97.495,359.3,30.9,4,335,-0.775,10.761,2.508,0
934,35.359,-97.495,359.3,30.95,3,334,-0.689,10.444,2.061,0
935,35.359,-97.495,359.2,30.941,3,336,-0.758,10.454,2.245,0
936,35.359,-97.495,359.3,30.921,3,337,-0.646,10.704,2.096,0
937,35.36,-97.495,359.3,30.941,3,338,-0.719,10.652,2.11,0
938,35.36,-97.495,359.1,30.911,3,337,-0.702,10.45,2.299,0
939,35.36,-97.495,358.9,30.882,3,337,-0.778,10.268,2.588,0
940,35.36,-97.495,359.1,30.831,3,337,-0.686,10.425,2.417,0
941,35.361,-97.495,359.3,30.8,4,336,-0.756,10.945,2.7,0
942,35.361,-97.495,359.4,30.7,3,337,-0.692,10.618,2.317,0
943,35.361,-97.495,359.4,30.641,3,338,-0.715,10.486,2.21,0
944,35.362,-97.495,359.4,30.553,3,339,-0.659,10.411,2.681,0
945,35.362,-97.495,359.4,30.444,3,338,-0.534,10.093,2.321,0
946,35.362,-97.495,359.3,30.423,3,339,-0.533,10.227,2.556,0
947,35.362,-97.495,359.4,30.451,3,339,-0.335,10.323,2.132,0
948,35.363,-97.495,359.4,30.512,3,339,-0.441,9.969,2.172,0
949,35.363,-97.495,359.4,30.661,3,340,-0.547,9.888,2.545,0
950,35.363,-97.495,359.5,30.86,3,341,-0.514,9.984,2.06,0
951,35.363,-97.495,359.4,30.98,3,342,-0.502,10.096,1.805,0
952,35.364,-97.495,359.3,31.22,3,342,-0.801,10.622,2.498,0
953,35.364,-97.495,359.3,31.39,3,342,-1.108,10.276,1.886,0
954,35.364,-97.495,359.3,31.561,4,344,-0.729,10.301,1.986,0
955,35.365,-97.495,359.3,31.753,4,346,-0.815,10.475,2.136,0
956,35.365,-97.495,359,31.871,4,348,-0.861,10.588,2.15,0
957,35.365,-97.495,359,31.83,9,348,-0.95,10.666,1.982,0
958,35.365,-97.495,359,31.73,9,349,-1.003,10.663,2.511,0
959,35.366,-97.495,359.3,31.59,9,350,-0.907,10.466,2.624,0
960,35.366,-97.495,359.4,31.4,9,351,-0.817,10.302,2.321,0
961,35.367,-97.495,359.5,30.98,9,351,-0.801,10.587,2.363,0
962,35.367,-97.495,359.3,30.79,9,351,-0.814,10.697,2.336,0
963,35.367,-97.495,359.3,30.621,9,351,-0.637,10.464,2.447,0
964,35.367,-97.495,359.4,30.541,9,352,-0.653,10.642,1.894,0
965,35.368,-97.495,359.5,30.471,9,352,-0.716,10.608,2.496,0
966,35.368,-97.495,359.6,30.411,9,350,-0.576,10.656,2.123,0
967,35.368,-97.495,359.5,30.4,9,351,-0.693,10.654,2.001,0
968,35.369,-97.495,359.2,30.43,9,351,-0.629,10.515,2.166,0
969,35.369,-97.495,359.2,30.47,9,358,-0.486,10.327,2.53,0
970,35.369,-97.495,359.4,30.551,9,358,-0.513,10.61,2.127,0
971,35.369,-97.495,359.2,30.641,9,357,-0.579,10.489,1.995,0
973,35.37,-97.495,359.3,30.682,9,358,-0.575,10.397,2.243,0
973,35.37,-97.495,359.3,30.682,9,358,-0.575,10.397,2.243,0
974,35.37,-97.495,359.4,30.761,9,357,-0.697,10.415,2.33,0
975,35.37,-97.495,359.2,30.88,9,356,-0.581,10.551,2.343,0
976,35.37,-97.495,359.2,30.92,9,357,-0.632,10.539,2.108,0
977,35.371,-97.495,359.1,31.01,9,355,-0.744,10.598,2.346,0
978,35.371,-97.495,359.3,31.1,9,359,-0.829,10.751,2.071,0
979,35.371,-97.495,359.2,31.17,9,358,-0.613,10.217,2.488,0
980,35.372,-97.495,359.2,31.19,9,358,-0.795,10.288,2.447,0
981,35.372,-97.495,359.3,31.151,9,358,-0.738,10.402,2.268,0
982,35.372,-97.495,359.2,31.2,9,358,-0.629,10.439,2.266,0
983,35.372,-97.495,359.2,31.182,9,358,-0.747,10.588,2.531,0
984,35.373,-97.495,359.4,31.191,9,359,-0.67,10.722,1.776,0
985,35.373,-97.495,359.4,31.24,9,360,-0.68,10.514,2.229,0
986,35.373,-97.495,359.1,30.95,9,359,-0.778,10.525,2.265,0
987,35.374,-97.495,359.4,31.3,9,360,-0.83,10.654,2.431,0
988,35.374,-97.495,359.4,31.33,9,361,-0.751,10.542,2.158,0
989,35.374,-97.495,359.3,31.33,9,359,-0.713,10.69,2.114,0
990,35.374,-97.495,359.5,31.331,9,360,-0.704,10.524,2.049,0
991,35.375,-97.495,359.6,31.36,9,360,-0.651,10.577,2.153,0
992,35.375,-97.495,359.8,31.382,9,361,-0.6,10.654,2.074,0
993,35.375,-97.495,359.9,31.341,9,361,-0.771,10.846,2.041,0
994,35.376,-97.495,359.9,31.21,10,362,-0.637,10.492,2.29,0
995,35.376,-97.495,359.8,31.05,10,363,-0.686,10.569,2.03,0
996,35.376,-97.495,359.7,30.93,10,365,-0.543,10.408,1.997,0
997,35.376,-97.495,359.7,30.84,10,361,-0.636,10.308,2.238,0
998,35.377,-97.495,359.7,30.83,10,362,-0.697,10.847,2.575,0
999,35.377,-97.495,359.8,30.861,10,363,-0.047,10.18,1.769,0
1000,35.377,-97.495,359.9,30.93,10,363,-0.554,10.607,2.318,0
1001,35.377,-97.495,359.9,30.961,10,364,-0.677,10.573,2.489,0
1002,35.378,-97.495,359.9,31.07,10,364,-0.697,10.69,2.011,0
1003,35.378,-97.495,359.8,31.17,10,366,-0.883,10.647,2.121,0
1004,35.378,-97.495,359.7,31.33,10,364,-0.703,10.428,2.125,0
1005,35.379,-97.495,359.6,31.471,10,364,-0.837,10.119,2.578,0
1006,35.379,-97.495,359.5,31.611,10,364,-0.802,10.637,2.303,0
1007,35.379,-97.495,359.6,31.732,10,364,-0.875,10.565,1.963,0
1008,35.379,-97.495,359.9,31.833,9,364,-0.95,10.657,2.447,0
1009,35.38,-97.495,359.9,31.841,9,364,-0.89,10.599,2.698,0
1010,35.38,-97.495,359.8,31.841,9,364,-0.961,10.5,2.132,0
1011,35.38,-97.495,359.8,31.7,9,365,-1.071,10.467,2.324,0
1012,35.381,-97.495,359.8,31.57,9,365,-0.967,10.522,2.397,0
1013,35.381,-97.495,359.7,31.45,9,365,-1.006,10.316,2.522,0
1014,35.381,-97.495,359.7,31.35,9,365,-0.909,10.435,1.726,0
1015,35.381,-97.495,359.8,31.271,9,366,-0.957,10.372,2.224,0
1016,35.382,-97.495,0.1,31.071,9,366,-0.996,10.363,2.269,0
1017,35.382,-97.495,359.7,31.333,9,365,-0.868,10.154,2.617,0
1018,35.382,-97.495,359.8,31.455,9,365,-0.977,10.146,2.423,0
1019,35.383,-97.495,359.9,31.527,9,365,-0.964,10.388,2.332,0
1020,35.383,-97.495,359.7,31.806,9,364,-1.014,10.514,2.061,0
1021,35.383,-97.495,359.6,31.523,9,363,-1.112,10.474,2.236,0
1022,35.384,-97.495,359.8,32.059,9,362,-1.087,10.484,2.477,0
1023,35.384,-97.495,359.8,32.178,9,359,-1.15,10.607,2.771,0
1024,35.384,-97.495,0.1,32.165,9,357,-1.168,10.737,2.679,0
1025,35.385,-97.495,359.3,31.7,9,357,-1.068,10.557,2.599,0
1026,35.385,-97.495,1.1,31.5,9,364,-1.113,10.741,2.313,0
1027,35.385,-97.495,359.8,31.68,9,363,-1.169,10.708,2.053,0
1028,35.385,-97.495,359.5,31.32,9,362,-1.231,10.421,2.437,0
1029,35.386,-97.495,359.8,30.891,9,361,-0.989,10.435,2.713,0
1030,35.386,-97.495,359.9,30.821,9,360,-0.956,10.279,2.544,0
1031,35.386,-97.495,0,30.681,9,360,-0.936,10.228,2.175,0
1032,35.387,-97.495,359.8,30.59,9,359,-0.823,10.232,2.437,0
1033,35.387,-97.495,359.8,30.57,9,359,-0.785,10.322,2.158,0
1034,35.387,-97.495,0,30.56,9,359,-0.831,10.316,2.24,0
1035,35.387,-97.495,359.7,30.63,9,359,-0.804,10.532,2.328,0
1037,35.388,-97.495,359.7,30.711,9,363,-0.682,10.423,2.347,0
1037,35.388,-97.495,359.7,30.711,9,363,-0.682,10.423,2.347,0
1038,35.388,-97.495,359.7,30.771,9,361,-0.748,10.295,2.553,0
1039,35.388,-97.495,359.8,30.83,9,361,-0.787,10.493,2.253,0
1040,35.388,-97.495,359.8,30.88,9,360,-0.789,10.374,2.561,0
1041,35.389,-97.495,359.8,30.95,9,360,-0.73,10.357,2.298,0
1042,35.389,-97.495,359.7,30.94,9,359,-0.826,10.36,2.379,0
1043,35.389,-97.495,359.6,31.01,9,359,-0.782,10.474,2.623,0
1044,35.39,-97.495,359.9,31,9,359,-0.88,10.451,2.399,0
1045,35.39,-97.495,0.2,30.97,9,359,-0.841,10.509,2,0
1046,35.39,-97.495,359.8,31.03,9,359,-0.898,10.5,2.234,0
1047,35.39,-97.495,359.7,31.02,9,359,-0.846,10.472,2.68,0
1048,35.391,-97.495,359.9,31.05,9,359,-0.882,10.673,2.143,0
1049,35.391,-97.495,359.8,31.05,9,358,-0.821,10.37,2.295,0
