time,lat,lng,bearing,spd,acc,alt,accx,accy,accz,stable,
0,35.396,-97.495,359.9,26.9,9,363,-2.504,-0.636,9.049,1
1,35.397,-97.495,0,26.6,9,362,-2.661,-0.822,8.97,1
2,35.397,-97.495,0,26.481,9,362,-2.796,-0.925,9.328,1
3,35.397,-97.495,359.8,26.471,9,362,-2.917,-0.84,8.863,1
4,35.397,-97.495,0,26.561,9,362,-3.021,-0.959,8.933,1
5,35.398,-97.495,0.1,26.942,9,362,-3.199,-1.141,8.972,1
6,35.398,-97.495,0,27.663,9,362,-3.377,-1.167,9.493,0
7,35.398,-97.495,0,28.333,9,361,-3.078,-1.158,9.097,0
8,35.398,-97.495,359.9,28.923,9,361,-2.943,-1.038,9.246,0
9,35.399,-97.495,359.8,29.211,9,361,-3.101,-1.079,9.23,0
10,35.399,-97.495,359.9,29.58,9,360,-3.137,-1.143,9.328,0
11,35.399,-97.495,0.1,29.92,9,360,-3.058,-0.985,9.101,0
12,35.399,-97.495,0,29.9,9,360,-3.185,-0.971,9.084,0
13,35.4,-97.495,359.9,29.87,9,360,-2.905,-0.92,8.818,0
14,35.4,-97.495,359.8,29.923,9,361,-2.851,-0.95,9.091,0
15,35.4,-97.495,359.9,29.604,3,362,-2.915,-0.966,9.15,0
16,35.401,-97.495,359.9,29.354,3,364,-3.216,-0.859,8.813,0
17,35.401,-97.495,0,29.263,3,364,-3.106,-0.853,9.046,0
18,35.401,-97.495,0.2,29.253,3,365,-3.234,-0.788,9.055,0
19,35.401,-97.495,0.7,29.221,3,364,-3.094,-0.292,8.893,1
20,35.402,-97.495,1.4,29.161,3,365,-3.123,-0.329,9.066,1
21,35.402,-97.495,2.6,28.97,3,365,-3.275,-0.521,9.215,1
22,35.402,-97.495,3.6,29.03,3,366,-3.103,-0.538,9.215,1
23,35.402,-97.495,4.7,28.87,3,366,-3.372,-0.369,8.977,1
24,35.403,-97.495,5.3,28.89,4,366,-3.02,-0.634,8.868,1
25,35.403,-97.495,6.8,29.02,3,366,-3.868,-0.228,8.955,1
26,35.403,-97.495,7.6,29.261,3,365,-3.001,-0.598,8.844,1
27,35.403,-97.495,8.4,29.37,3,364,-3.18,-0.596,8.9,1
28,35.404,-97.495,10.3,29.63,3,364,-3.077,-0.62,9.404,1
29,35.404,-97.495,11.2,29.69,3,363,-3.208,-0.652,9.328,0
30,35.404,-97.495,12.1,29.791,3,363,-3.335,-0.575,9.389,0
31,35.405,-97.494,13.4,29.7,3,363,-3.026,-0.229,9.074,0
32,35.405,-97.494,14.7,29.351,3,363,-3.187,-0.473,9.211,0
33,35.405,-97.494,15.6,29.162,3,364,-2.926,-0.522,9.16,0
34,35.406,-97.494,16.3,28.832,3,364,-2.943,-0.589,9.214,0
35,35.406,-97.494,17,28.601,3,365,-3.102,-0.712,9.28,0
36,35.406,-97.494,17.4,28.471,3,365,-2.698,-0.97,8.713,0
37,35.406,-97.494,17.5,28.441,3,365,-3.233,-0.822,8.978,0
38,35.406,-97.494,17.6,28.36,3,364,-2.796,-1.126,8.592,1
39,35.407,-97.494,17.4,28.3,3,364,-2.574,-1.102,8.104,1
40,35.407,-97.494,17.3,28.26,3,364,-2.916,-0.878,8.999,1
41,35.407,-97.494,17.4,28.24,3,365,-2.847,-0.843,9.169,1
43,35.407,-97.493,17.6,28.33,3,365,-3.119,-0.922,8.759,1
44,35.408,-97.493,17.6,28.5,3,363,-3.061,-0.905,9.02,1
45,35.408,-97.493,17.5,28.65,3,362,-3.006,-1.038,9.173,1
46,35.408,-97.493,17.5,28.78,3,363,-2.857,-0.912,8.692,1
47,35.408,-97.493,17.6,28.91,3,362,-2.611,-1.068,9.079,0
48,35.409,-97.493,18.8,29.001,3,361,-2.222,-1.133,8.546,0
49,35.409,-97.493,17.5,28.79,3,361,-2.513,-0.726,9.211,0
50,35.409,-97.493,17.5,28.55,3,361,-3.174,-0.371,9.335,0
51,35.409,-97.493,17.7,28.33,3,361,-3.079,-0.649,8.683,0
52,35.41,-97.493,17.7,28.31,3,361,-2.75,-0.873,9.033,0
53,35.41,-97.492,17.3,28.31,3,361,-2.747,-0.729,8.804,0
54,35.41,-97.492,17.5,28.471,3,360,-2.673,-0.846,8.857,0
55,35.41,-97.492,17.6,28.571,3,360,-2.724,-1.003,9.202,0
56,35.411,-97.492,17.5,28.702,3,359,-2.82,-0.908,8.885,0
57,35.411,-97.492,17.5,28.933,3,358,-3.054,-0.906,9.038,0
58,35.411,-97.492,17.3,29.242,3,358,-3.205,-0.855,8.936,1
59,35.411,-97.492,17.4,29.611,3,357,-2.922,-0.732,8.786,1
60,35.412,-97.492,17.5,29.902,3,357,-2.732,-0.805,9.125,1
61,35.412,-97.492,17.6,29.843,3,356,-2.8,-0.756,9.232,1
62,35.412,-97.492,17.7,29.692,3,355,-2.441,-0.805,9.186,1
63,35.412,-97.492,17.6,29.682,3,355,-2.717,-0.894,9.111,1
64,35.413,-97.491,17.4,29.681,3,354,-2.903,-0.94,9.106,1
65,35.413,-97.491,17.6,29.931,3,354,-2.875,-1.066,9.14,1
66,35.413,-97.491,17.5,30.213,3,354,-2.801,-0.948,9.241,1
67,35.413,-97.491,17.3,30.401,3,353,-2.98,-0.985,9.462,1
68,35.414,-97.491,17.4,30.53,3,353,-3.162,-0.902,9.384,0
69,35.414,-97.491,17.6,30.64,3,352,-3.246,-0.919,9.137,0
70,35.414,-97.491,17.4,30.41,3,352,-3.109,-1.171,9.582,0
71,35.415,-97.491,17.5,30.45,3,352,-3.023,-1.248,9.478,0
72,35.415,-97.491,17.3,30.791,3,352,-2.954,-1.036,9.827,0
73,35.415,-97.491,17.4,30.592,3,353,-2.814,-0.829,9.149,0
74,35.415,-97.49,17.4,30.421,3,353,-2.888,-0.925,8.993,0
75,35.416,-97.49,17.5,30.002,3,354,-2.872,-0.959,9.034,0
76,35.416,-97.49,17.4,29.861,3,354,-3.207,-1.072,8.984,0
77,35.416,-97.49,17.5,29.931,3,355,-2.785,-1.097,8.63,0
78,35.416,-97.49,17.5,30.081,3,355,-3.162,-0.807,8.94,0
79,35.417,-97.49,17.4,30.11,3,354,-3.279,-0.906,8.721,0
80,35.417,-97.49,17.5,30.27,3,355,-2.824,-0.882,8.946,1
81,35.417,-97.49,17.5,30.41,3,355,-2.888,-0.867,9.027,1
82,35.417,-97.49,17.6,30.45,3,355,-2.813,-0.698,8.995,1
83,35.418,-97.49,17.6,30.521,3,356,-2.613,-0.668,9.341,1
84,35.418,-97.489,17.6,30.291,3,356,-2.003,0.448,9.714,0
85,35.418,-97.489,17.6,29.44,3,356,-1.953,0.458,9.714,0
86,35.418,-97.489,19.2,27.49,3,355,-2.571,-0.676,9.521,0
87,35.419,-97.489,19.8,26.19,3,356,-2.55,-1.003,9.039,0
88,35.419,-97.489,19.3,25.891,3,356,-2.513,-0.87,9.587,0
89,35.419,-97.489,18.7,25.501,3,357,-1.316,0.378,9.501,0
90,35.419,-97.489,19,21.432,3,358,-1.259,0.581,9.59,0
91,35.42,-97.489,19.4,18.311,3,358,-1.144,0.666,9.781,0
92,35.42,-97.489,20,16.391,3,358,-1.135,0.565,9.793,0
93,35.42,-97.489,20.6,14.421,3,359,-2.289,-0.339,9.237,0
94,35.42,-97.489,20.7,13.831,3,359,-2.506,-0.617,9.066,0
95,35.42,-97.488,20.9,13.45,3,359,-2.656,-0.588,9.136,0
96,35.42,-97.488,21.4,13.07,3,359,-2.703,-0.613,9.313,0
97,35.42,-97.488,21.5,12.72,3,359,-2.59,-0.732,9.092,0
98,35.42,-97.488,21.8,12.37,3,360,-2.8,-0.902,8.922,0
99,35.42,-97.488,22,12.31,3,361,-2.865,-0.841,9.172,1
100,35.421,-97.488,22.4,12.09,3,360,-2.649,-0.309,8.927,1
101,35.421,-97.488,22.5,11.79,3,361,-2.966,-0.83,9.008,1
102,35.421,-97.488,22.7,11.96,3,360,-3.088,-0.935,8.801,1
103,35.421,-97.488,22.6,12.21,3,361,-2.671,-0.677,9.141,1
105,35.421,-97.488,22.5,11.98,3,360,-2.711,-0.769,9.119,1
106,35.421,-97.488,22.4,11.77,3,360,-2.524,-0.827,9.173,1
107,35.421,-97.488,22.3,11.72,3,359,-3.212,-1.016,9.105,1
108,35.421,-97.488,22.3,12.22,3,360,-3.512,-1.372,8.638,1
109,35.421,-97.488,22,13.11,3,360,-3.384,-1.315,8.884,1
110,35.421,-97.488,21.9,13.87,3,359,-2.909,-0.841,9.155,1
111,35.422,-97.488,21.9,13.89,3,360,-2.564,-0.684,9.137,1
112,35.422,-97.488,22.2,13.7,3,359,-2.666,-0.664,9.187,1
113,35.422,-97.488,22.3,13.5,3,359,-2.617,-0.56,9.332,1
114,35.422,-97.488,22.3,13.361,3,359,-3.136,-1.112,8.855,1
115,35.422,-97.487,22.2,13.821,3,358,-2.783,-0.799,9.096,1
116,35.422,-97.487,22.3,13.891,3,358,-2.823,-0.918,9.013,1
117,35.422,-97.487,22.3,14.021,3,358,-3.121,-1.104,9.731,0
118,35.422,-97.487,22.3,14.341,3,358,-3.121,-1.021,8.929,0
119,35.423,-97.487,22.3,14.861,3,358,-3.221,-0.991,9.01,0
120,35.423,-97.487,22.2,15.511,3,358,-3.289,-0.981,8.81,0
121,35.423,-97.487,22.1,16.091,3,357,-3.164,-0.641,9.092,0
122,35.423,-97.487,22.1,16.241,3,357,-3.005,-0.47,9.08,0
123,35.423,-97.487,21.9,16.141,3,356,-2.994,-0.511,8.907,0
124,35.423,-97.487,21.5,16.202,3,356,-3.197,-0.682,9.136,0
125,35.423,-97.487,21.2,16.47,3,356,-3.895,-0.485,9.233,0
126,35.423,-97.487,20.1,16.971,3,355,-3.145,-0.627,8.887,0
127,35.424,-97.487,19.1,17.391,3,355,-3.25,-0.736,8.956,0
128,35.424,-97.487,18.1,17.851,3,355,-3.217,-0.456,9.181,0
129,35.424,-97.487,17.4,18.262,3,354,-3.097,-0.637,9.179,0
130,35.424,-97.487,16.9,18.462,3,354,-3.21,-0.778,8.77,0
131,35.424,-97.486,16,18.912,3,353,-3.074,-0.797,9.049,0
132,35.424,-97.486,14.8,19.392,3,353,-2.893,-0.329,9.267,0
133,35.425,-97.486,14,19.421,3,353,-3.027,-0.48,9.161,1
134,35.425,-97.486,13.3,19.312,3,352,-2.911,-0.4,9.56,0
135,35.425,-97.486,12.1,19.182,3,351,-2.619,-0.29,9.428,0
136,35.425,-97.486,11.2,18.983,3,352,-2.488,-0.056,8.986,0
137,35.425,-97.486,10.1,18.65,3,352,-2.666,-0.361,9.253,0
138,35.425,-97.486,9.1,18.44,3,352,-2.846,-0.627,9.427,0
139,35.426,-97.486,8.2,18.301,3,351,-3.02,-0.691,9.049,0
140,35.426,-97.486,7.5,18.64,3,351,-3.029,-0.598,9.14,0
141,35.426,-97.486,6.3,18.78,3,351,-2.817,-0.535,8.956,0
142,35.426,-97.486,5.5,18.83,3,351,-2.541,-0.486,9.269,1
143,35.426,-97.486,4.4,18.861,3,350,-1.733,0.272,9.616,1
144,35.426,-97.486,3.3,17.881,3,350,-1.99,0.277,9.561,1
145,35.427,-97.486,2.5,16.311,3,351,-2.736,-0.296,9.083,1
146,35.427,-97.486,1.8,15.801,3,350,-2.822,-0.274,8.993,1
147,35.427,-97.486,1.3,15.682,3,349,-2.659,-0.293,9.199,1
148,35.427,-97.486,0.8,15.571,3,349,-2.273,0.077,9.467,1
149,35.427,-97.486,0.5,14.771,3,349,-2.628,-0.377,9.191,1
150,35.427,-97.486,359.9,14.41,3,350,-2.8,-0.398,9.334,1
151,35.427,-97.486,0.1,14.091,3,350,-2.813,-0.378,9.201,1
152,35.428,-97.486,0,14.001,3,350,-2.988,-0.806,9.044,1
153,35.428,-97.486,0.1,14.41,3,350,-2.971,-0.878,8.994,1
154,35.428,-97.486,0,14.71,3,350,-2.817,-0.76,8.789,1
155,35.428,-97.486,0.4,14.8,3,350,-2.724,-0.806,9.231,1
156,35.428,-97.486,359.3,15.05,4,349,-2.772,-0.852,9.279,1
157,35.428,-97.486,0,14.76,3,349,-2.938,-1.011,8.899,1
158,35.428,-97.486,357.1,14.93,3,349,-2.931,-1.052,8.912,1
159,35.429,-97.486,0,15.15,3,349,-3.033,-1.087,8.962,1
160,35.429,-97.486,359.9,15.48,3,349,-2.927,-0.909,9.102,1
161,35.429,-97.486,0.1,15.57,3,350,-2.897,-0.973,8.876,1
162,35.429,-97.486,0.5,15.501,3,351,-3.008,-1.084,9.019,1
163,35.429,-97.486,0,16.17,3,350,-3.253,-1.128,8.988,1
164,35.429,-97.486,0,16.86,3,350,-3.17,-1.197,8.779,1
165,35.43,-97.486,359.9,17.57,3,349,-3.239,-1.135,8.891,1
167,35.43,-97.486,359.7,17.96,3,349,-2.946,-0.97,9.039,1
168,35.43,-97.486,359.8,18.03,3,350,-3.005,-1.035,9.315,1
169,35.43,-97.486,359.1,18.211,3,350,-2.999,-1.106,8.79,1
170,35.43,-97.486,0.1,18.48,3,349,-2.915,-0.935,8.504,1
171,35.43,-97.486,359.9,18.73,3,349,-2.985,-1.127,8.884,1
172,35.431,-97.486,359.8,19.011,3,350,-3.082,-1.041,8.913,1
173,35.431,-97.486,359.9,19.221,3,350,-3.055,-0.958,8.868,1
174,35.431,-97.486,359.9,19.471,3,350,-3.038,-1.054,8.802,1
175,35.431,-97.486,359.9,19.541,3,350,-2.757,-0.802,8.97,1
176,35.431,-97.486,359.8,19.29,3,350,-1.913,-0.179,9.478,1
177,35.431,-97.486,359.8,18.01,3,349,-1.544,0.233,9.65,1
178,35.432,-97.486,0.1,16.13,3,350,-2.083,-0.23,9.348,1
179,35.432,-97.486,0.1,15.09,3,350,-2.429,-0.614,9.128,1
180,35.432,-97.486,1,14.562,3,350,-2.725,-0.728,9.233,1
181,35.432,-97.486,0.1,14.46,3,350,-2.483,-0.363,8.575,0
182,35.432,-97.486,359.9,14.15,3,350,-2.462,-0.568,9.001,0
183,35.432,-97.486,359.5,14.14,3,350,-2.703,-0.602,9.115,0
184,35.432,-97.486,0,13.88,3,349,-3.171,-0.964,9.034,0
185,35.432,-97.486,359.8,14.25,3,351,-3.619,-1.412,8.738,0
186,35.433,-97.486,359.8,15.24,3,351,-3.632,-1.186,8.714,0
187,35.433,-97.486,359.9,16.18,3,351,-3.424,-1.023,8.559,0
188,35.433,-97.486,0.1,17.021,3,351,-3.07,-0.987,8.96,0
189,35.433,-97.486,0.2,17.202,3,350,-2.947,-0.825,9.205,1
190,35.433,-97.486,0.1,17.532,3,349,-2.852,-0.74,9.178,1
191,35.433,-97.486,0,17.741,3,349,-2.738,-0.798,9.288,1
192,35.433,-97.486,359.9,17.691,3,349,-2.704,-0.671,8.783,1
193,35.434,-97.486,0,17.761,3,348,-2.548,-0.726,9.051,1
194,35.434,-97.486,359.7,17.91,3,348,-2.695,-0.697,9.491,1
195,35.434,-97.486,359.8,17.691,3,347,-2.871,-0.839,9.321,1
196,35.434,-97.486,359.5,17.932,3,345,-2.858,-0.785,9.247,1
197,35.434,-97.486,359.8,17.952,3,345,-2.902,-0.835,8.972,1
198,35.434,-97.486,0.2,18.002,3,345,-3.009,-0.945,9.146,1
199,35.435,-97.486,0.1,18.561,3,345,-2.95,-1.019,9.044,1
200,35.435,-97.486,0,18.88,3,345,-2.902,-0.895,9.086,1
201,35.435,-97.486,359.9,18.98,3,345,-2.709,-0.725,9.165,1
202,35.435,-97.486,359.7,18.92,3,345,-1.191,0.396,9.801,1
203,35.435,-97.486,357,17.922,4,346,-0.817,0.778,10.038,0
204,35.435,-97.486,359.2,15.02,4,346,-1.584,0.311,9.637,0
205,35.436,-97.486,0.3,12.716,9,347,-2.259,-0.425,9.313,0
206,35.436,-97.486,0.3,11.11,9,348,-2.519,-0.685,9.057,0
207,35.436,-97.486,359.4,10.67,9,348,-2.582,-0.567,9.079,0
208,35.436,-97.486,359.9,10.31,9,348,-2.496,-0.439,9.157,0
209,35.436,-97.486,359.9,9.8104,9,346,-2.723,-0.839,9.244,0
210,35.436,-97.486,359.9,9.4503,9,346,-2.957,-0.891,9.121,0
211,35.436,-97.486,359.7,9.3701,9,346,-2.89,-0.938,8.907,1
212,35.436,-97.486,359.6,9.37,9,345,-3.178,-1.126,8.829,1
213,35.436,-97.486,355.1,8.6707,9,345,-3.428,-1.324,8.944,1
214,35.436,-97.486,0,10.2,9,345,-3.557,-1.251,8.865,1
215,35.436,-97.486,0,10.87,9,344,-3.629,-1.461,8.949,1
216,35.436,-97.486,0,11.739,9,345,-3.415,-1.316,8.727,1
217,35.437,-97.486,359.8,13.14,9,346,-3.456,-1.324,8.714,1
218,35.437,-97.486,359.8,13.14,9,346,-3.539,-1.159,8.999,1
219,35.437,-97.486,359.8,14.441,9,346,-3.262,-1.028,9.012,1
220,35.437,-97.486,0,14.691,9,347,-3.087,-0.995,9.242,1
221,35.437,-97.486,0.1,14.69,9,347,-3.059,-1.081,8.894,1
222,35.437,-97.486,359.9,14.94,9,347,-3.234,-0.953,9.31,1
223,35.438,-97.486,0,15.11,9,347,-3.307,-1.226,9.195,1
224,35.438,-97.486,0.1,15.64,9,347,-3.397,-1.151,8.994,1
225,35.438,-97.486,0.3,16.25,9,347,-3.261,-1.253,8.919,1
226,35.438,-97.486,0.2,16.85,9,347,-3.167,-1.132,8.631,1
227,35.438,-97.486,0.1,17.46,9,347,-3.166,-1.178,8.812,1
228,35.438,-97.486,0.2,17.86,9,347,-3.154,-1.169,8.648,1
229,35.438,-97.486,0,18.321,9,347,-3.084,-1.2,8.926,1
230,35.439,-97.486,359.7,18.63,9,346,-2.954,-1.134,9.25,1
232,35.439,-97.486,359.6,18.74,9,347,-3.042,-0.879,9.251,1
233,35.439,-97.486,0,18.94,9,347,-3.008,-0.85,8.962,1
234,35.439,-97.486,5.2,18.85,9,347,-3.004,-0.87,8.786,1
235,35.439,-97.486,1.9,18.851,9,346,-2.954,-1.084,9.104,1
236,35.439,-97.486,0.1,19.32,9,347,-3.102,-1.121,9.149,0
237,35.44,-97.486,0,19.45,9,347,-2.704,-0.825,9.134,0
238,35.44,-97.486,0,19.411,9,348,-2.936,-1.005,9.173,0
239,35.44,-97.486,0,19.43,9,347,-3.064,-1.055,9.154,0
240,35.44,-97.486,359.8,19.59,9,347,-2.944,-1.046,8.861,0
241,35.44,-97.486,359.6,19.8,9,346,-3.097,-1.07,9.181,0
242,35.441,-97.486,0.3,20.041,9,346,-3.228,-1.118,8.983,0
243,35.441,-97.486,359.7,20.46,9,346,-3.402,-1.186,9.092,0
244,35.441,-97.486,359.7,21.05,9,346,-3.325,-0.924,9.067,1
245,35.441,-97.486,359.9,21.4,9,346,-3.183,-0.807,8.713,1
246,35.441,-97.486,0.2,21.67,9,346,-2.951,-0.828,8.935,1
247,35.442,-97.486,0.4,21.72,9,346,-2.878,-0.534,8.756,1
248,35.442,-97.486,0.5,21.72,9,346,-2.805,-0.949,9.096,1
249,35.442,-97.486,0.2,21.58,9,345,-2.867,-0.959,9.136,1
250,35.442,-97.486,0,21.79,9,345,-2.718,-0.668,9.073,1
251,35.442,-97.486,359.8,21.921,9,346,-2.96,-0.898,8.799,1
252,35.442,-97.486,359.8,22.231,9,346,-2.904,-0.996,9.326,1
253,35.443,-97.486,359.7,22.42,9,345,-3.023,-1.018,9.015,0
254,35.443,-97.486,0,22.741,9,344,-2.922,-0.892,9.288,0
255,35.443,-97.486,0,23.041,9,344,-2.592,-0.748,8.727,0
256,35.443,-97.486,359.9,23.271,9,344,-2.799,-0.866,8.695,0
257,35.444,-97.486,0.2,22.971,9,343,-2.857,-0.725,9.385,0
258,35.444,-97.486,359.8,23.481,9,343,-2.796,-0.735,9.268,0
259,35.444,-97.486,359.6,23.691,9,343,-2.942,-0.396,8.978,0
260,35.444,-97.486,359.7,23.54,9,343,-2.759,-0.64,9.135,1
261,35.444,-97.486,359.2,23.582,9,342,-2.984,-0.59,9.312,1
262,35.445,-97.486,358.5,23.481,9,341,-2.78,-0.593,9.025,1
263,35.445,-97.486,357.9,23.36,9,341,-2.652,-0.594,8.98,1
264,35.445,-97.486,358.7,24.67,9,340,-2.646,-0.704,9.054,1
265,35.445,-97.486,356.5,24.07,9,339,-2.893,-0.504,9.381,0
266,35.445,-97.486,355.4,23.54,9,338,-2.697,-0.61,9.362,0
267,35.446,-97.486,354.6,22.72,9,337,-2.747,-0.462,9.19,0
268,35.446,-97.486,353.8,22.52,9,336,-2.785,-0.732,9.413,0
269,35.446,-97.486,353.2,22.34,9,335,-2.73,-0.627,8.769,0
270,35.446,-97.486,352.3,22.14,9,335,-2.771,-0.788,9.227,0
271,35.446,-97.486,351.3,21.91,9,335,-2.647,-0.498,9.021,0
272,35.447,-97.486,350.7,21.7,9,334,-2.709,-0.376,8.892,0
273,35.447,-97.486,349.9,21.45,9,333,-2.759,-0.345,9.145,0
274,35.447,-97.486,349.4,21.18,9,332,-2.854,-0.435,9.144,0
275,35.447,-97.486,348.8,20.99,9,332,-2.837,-0.729,9.296,0
276,35.447,-97.486,348.2,20.83,9,332,-2.814,-0.592,9.289,0
277,35.448,-97.487,346.9,20.66,9,331,-2.915,-0.408,8.854,1
278,35.448,-97.487,346.7,20.46,9,331,-2.942,-0.47,9.219,1
279,35.448,-97.487,346.4,20.45,9,331,-2.791,-0.559,9.202,1
280,35.448,-97.487,344.8,20.321,3,331,-2.945,-0.765,9.358,1
281,35.448,-97.487,344,20.28,3,330,-2.818,-0.545,9.227,1
282,35.449,-97.487,343.5,20.16,3,331,-2.886,-0.579,9.095,1
283,35.449,-97.487,342.8,20.091,3,330,-2.799,-0.615,9.161,1
284,35.449,-97.487,342.1,20.01,3,330,-2.924,-0.764,9.298,1
285,35.449,-97.487,341.3,20.111,3,330,-3.061,-0.653,8.888,1
286,35.449,-97.487,340.7,19.964,3,329,-3.088,-0.623,9.279,1
287,35.449,-97.487,340.3,20.33,3,329,-3.028,-0.706,9.352,0
288,35.45,-97.487,339.8,20.39,3,328,-3.083,-0.871,9.402,0
289,35.45,-97.487,339.6,20.62,3,329,-3.18,-0.853,8.959,0
290,35.45,-97.487,338.1,20.03,4,329,-3.255,-0.77,9.153,0
291,35.45,-97.488,338.2,20.741,4,329,-3.546,-0.903,9.103,0
292,35.45,-97.488,339.5,21.7,3,329,-3.547,-1.085,9.175,0
293,35.451,-97.488,339.7,22.161,3,329,-3.305,-1.442,8.878,0
294,35.451,-97.488,339.3,22.66,3,329,-3.284,-1.348,9.028,1
295,35.451,-97.488,339,23.111,3,329,-3.469,-1.185,9.126,1
297,35.451,-97.488,339.1,23.572,3,329,-3.305,-1.033,8.796,1
298,35.451,-97.488,339.2,23.982,3,330,-2.782,-0.795,8.697,1
299,35.452,-97.488,339.5,23.792,3,329,-2.739,-0.715,9.238,1
300,35.452,-97.488,339.7,23.302,3,329,-2.678,-0.679,9.27,1
301,35.452,-97.488,339.9,22.832,3,330,-2.601,-0.552,9.232,1
302,35.452,-97.488,340.2,22.332,3,330,-2.608,-0.414,9.577,0
303,35.452,-97.489,340.7,21.631,3,330,-2.373,-0.199,9.535,0
304,35.452,-97.489,341.2,20.622,3,331,-2.667,-0.735,9.182,0
305,35.453,-97.489,341.2,20.042,3,331,-2.736,-0.717,9.246,0
306,35.453,-97.489,341.1,19.613,3,332,-2.727,-0.851,9.318,0
307,35.453,-97.489,341.2,19.243,3,332,-2.744,-0.877,9.144,0
308,35.453,-97.489,341.2,18.852,3,332,-2.738,-0.783,8.947,0
309,35.453,-97.489,341.1,18.522,3,332,-2.749,-0.804,9.095,0
310,35.453,-97.489,341,18.231,3,332,-2.651,-0.829,9.024,0
311,35.454,-97.489,340.9,17.91,3,333,-2.872,-0.904,9.126,1
312,35.454,-97.489,340.8,17.82,3,333,-2.76,-0.727,9.006,0
313,35.454,-97.489,341,17.83,3,333,-2.792,-0.589,8.662,0
314,35.454,-97.489,341.1,17.59,3,333,-2.602,-0.696,8.146,0
315,35.454,-97.489,341.3,17.35,3,333,-2.631,-0.893,8.84,0
316,35.454,-97.489,341.3,17.16,3,333,-2.645,-0.956,9.039,0
317,35.455,-97.489,341,17.07,3,333,-3.051,-1.167,8.771,0
318,35.455,-97.49,340.7,17.411,3,333,-3.394,-1.176,9.158,0
319,35.455,-97.49,340.9,18.051,3,332,-3.214,-1.22,8.655,1
320,35.455,-97.49,340.9,18.852,3,332,-3.213,-1.178,8.818,1
321,35.455,-97.49,340.8,19.584,3,331,-3.262,-1.187,8.999,1
322,35.455,-97.49,340.6,20.332,3,331,-3.028,-0.969,9.607,0
323,35.455,-97.49,340.6,20.602,3,330,-2.816,-0.84,9.455,0
324,35.456,-97.49,340.7,20.542,3,330,-2.511,-0.825,8.872,0
325,35.456,-97.49,340.8,20.513,3,329,-2.876,-0.945,8.993,0
326,35.456,-97.49,340.3,20.712,3,329,-2.884,-0.762,9.071,0
327,35.456,-97.49,340.6,20.982,3,328,-2.947,-1.072,9.301,0
328,35.456,-97.49,340.9,21.172,3,328,-2.792,-0.939,9.152,0
329,35.457,-97.49,340.8,21.361,3,328,-2.713,-1.034,9.199,0
330,35.457,-97.49,340.7,21.411,3,328,-2.914,-0.824,9.445,1
331,35.457,-97.49,340.4,21.4,3,327,-2.835,-0.755,9.096,1
332,35.457,-97.491,340.4,21.5,3,327,-2.993,-0.836,8.969,1
333,35.457,-97.491,340.5,21.63,3,327,-3.377,-0.934,8.859,1
334,35.457,-97.491,340.7,21.98,3,328,-3.506,-1.075,9.394,0
335,35.458,-97.491,340.9,22.53,3,328,-3.606,-1.195,9.372,0
336,35.458,-97.491,341,23.131,3,328,-3.529,-1.087,8.82,0
337,35.458,-97.491,340.9,23.621,3,328,-3.357,-0.916,8.692,0
338,35.458,-97.491,341,24.09,3,328,-2.629,-0.687,9.246,0
339,35.458,-97.491,341,24.15,3,328,-3.126,-0.872,9.69,0
340,35.459,-97.491,340.8,23.96,3,328,-3.465,-0.482,9.462,0
341,35.459,-97.491,340.8,23.98,3,328,-3.004,-0.728,9.17,0
342,35.459,-97.491,341.3,24.21,3,328,-3.046,-0.62,8.926,0
343,35.459,-97.492,341.3,24.361,3,328,-3.507,-0.725,9.286,0
344,35.46,-97.492,340.9,24.431,3,328,-2.82,-1.202,9.335,0
345,35.46,-97.492,341.8,24.121,3,328,-2.709,-0.977,8.724,0
346,35.46,-97.492,341.6,23.94,3,328,-2.7,-1.163,9.106,0
347,35.46,-97.492,341.1,23.94,3,328,-2.929,-0.801,9.191,0
348,35.461,-97.492,340.7,23.801,3,328,-3.214,-0.873,8.899,0
349,35.461,-97.492,340.6,24.13,3,328,-3.594,-0.744,8.747,0
350,35.461,-97.492,340.7,24.61,3,328,-3.662,-0.852,8.757,0
351,35.461,-97.492,340.6,25.27,3,328,-3.592,-0.793,8.879,1
352,35.461,-97.492,339.9,25.841,3,328,-3.35,-1.427,8.946,0
353,35.462,-97.493,337.3,26.283,3,329,-3.371,-1.6,9.728,0
354,35.462,-97.493,333.6,26.68,3,329,-2.16,-2.009,8.962,0
355,35.462,-97.493,331.1,26.953,3,329,-2.241,-2.025,9.054,0
356,35.462,-97.493,329.4,26.66,3,330,-2.592,-2.037,9.156,0
357,35.462,-97.493,323,27.17,4,329,-2.29,-1.908,9.047,0
359,35.463,-97.493,317.6,27.42,3,329,-2.289,-2.029,8.92,0
360,35.463,-97.494,313.4,27.581,3,329,-2.751,-1.994,9.133,0
361,35.463,-97.494,310.5,28.543,4,329,-2.829,-2.122,9.249,0
362,35.463,-97.494,305.5,28.312,3,331,-2.567,-2.244,9.047,0
363,35.463,-97.494,300.5,28.79,3,331,-2.677,-2.136,9.336,0
364,35.463,-97.495,297,29.04,3,331,-3.163,-0.613,8.719,0
365,35.463,-97.495,295.6,28.83,3,333,-2.577,-0.557,8.454,0
366,35.464,-97.495,295.3,28.54,3,334,-3.163,-0.185,9.096,0
367,35.464,-97.495,295.7,28.22,3,334,-3.133,-0.296,8.959,0
368,35.464,-97.496,296.1,28.03,3,334,-2.681,-0.683,9.178,0
369,35.464,-97.496,296.1,27.7,3,334,-2.92,-0.738,9.795,0
370,35.464,-97.496,296.2,27.26,3,334,-2.57,-0.669,9.298,0
371,35.464,-97.497,296.2,26.82,3,335,-2.439,-0.877,8.984,0
372,35.464,-97.497,296.1,26.4,3,335,-2.484,-0.618,9.28,0
373,35.464,-97.497,296.3,25.98,3,335,-2.111,-0.278,9.481,0
374,35.464,-97.497,296.8,25.28,3,336,-3.05,-0.051,9.429,0
375,35.464,-97.498,298.9,24.79,3,336,-3.145,-0.226,9.141,0
376,35.465,-97.498,301.1,24.76,3,336,-3.6,-0.173,9.31,0
377,35.465,-97.498,303.5,24.85,3,336,-3.793,-0.38,8.928,0
378,35.465,-97.498,306,25.111,3,336,-3.583,-0.826,8.5,0
379,35.465,-97.498,307.4,25.532,3,337,-3.417,-0.602,9.245,0
380,35.465,-97.499,308.3,25.721,3,337,-3.227,-0.569,9.474,0
381,35.465,-97.499,310.3,25.841,3,338,-3.456,-0.255,9.736,0
382,35.465,-97.499,312.1,25.74,3,338,-2.53,-0.179,8.973,0
383,35.466,-97.499,313.9,25.35,3,338,-3.035,-0.129,9.471,0
384,35.466,-97.5,315.7,25.06,3,338,-3.159,-0.502,9.201,0
385,35.466,-97.5,317.7,24.79,3,338,-2.766,-0.469,9.098,0
386,35.466,-97.5,319.3,24.541,3,339,-2.786,-0.337,9.257,0
387,35.466,-97.5,321.1,24.23,3,338,-2.586,-0.174,8.868,0
388,35.466,-97.5,323,23.95,3,338,-2.97,-0.629,8.974,0
389,35.467,-97.5,324.4,23.621,3,339,-2.988,-1.072,9.597,0
390,35.467,-97.501,324.4,23.54,3,339,-3.124,-1.157,9.457,0
391,35.467,-97.501,324.3,23.571,3,340,-3.29,-1.111,9.28,0
392,35.467,-97.501,324.4,23.644,3,340,-3.183,-1.103,9.244,0
393,35.467,-97.501,324.6,23.862,3,342,-3.112,-1.074,9.06,0
394,35.467,-97.501,324.5,24.014,3,343,-3.301,-1.036,9.16,0
395,35.468,-97.501,324.4,24.117,3,345,-3.026,-1.072,8.106,0
396,35.468,-97.501,324.5,24.255,3,344,-2.538,-1.174,8.016,0
397,35.468,-97.502,324.4,24.435,3,346,-2.799,-1.136,8.938,0
398,35.468,-97.502,323.9,24.605,3,346,-3.186,-1.233,8.388,0
399,35.468,-97.502,323.6,24.875,3,347,-3.115,-1.355,8.868,0
400,35.469,-97.502,323.3,25.044,3,348,-3.1,-1.26,8.777,0
401,35.469,-97.502,323,25.344,3,349,-2.944,-1.358,9.298,0
402,35.469,-97.502,322.9,25.621,3,349,-3.056,-1.348,8.796,1
403,35.469,-97.503,322.6,25.942,3,349,-2.958,-1.36,8.58,1
404,35.469,-97.503,322.1,26.272,3,350,-2.971,-1.299,8.932,1
405,35.47,-97.503,321.7,26.561,3,350,-3.064,-1.186,8.717,1
406,35.47,-97.503,321.5,26.861,3,350,-3.6,-1.41,10.315,0
407,35.47,-97.503,321.2,27.161,3,351,-3.018,-1.234,9.158,0
408,35.47,-97.504,321,27.5,3,351,-3.21,-1.125,8.97,0
409,35.47,-97.504,320.6,27.89,3,351,-3.241,-1.104,9.005,0
410,35.471,-97.504,320.5,28.68,3,351,-3.192,-1.133,8.774,0
411,35.471,-97.504,320.4,29.03,3,351,-2.897,-1.273,8.787,0
412,35.471,-97.504,320.4,29.03,3,351,-3.142,-0.943,8.681,0
413,35.471,-97.505,320.4,29.84,3,351,-3.166,-1.032,8.848,0
414,35.472,-97.505,320.6,30.11,3,351,-2.892,-0.768,9.61,0
415,35.472,-97.505,320.7,30.03,3,351,-2.547,-0.66,9.307,0
416,35.472,-97.505,320.6,29.79,3,351,-2.609,-0.473,9.102,0
417,35.472,-97.506,320.7,29.59,3,351,-2.713,-0.685,8.858,0
418,35.472,-97.506,320.4,29.27,3,351,-2.682,-0.602,9.092,0
419,35.473,-97.506,320.5,29.07,3,350,-2.591,-0.737,9.073,0
420,35.473,-97.506,319.9,28.6,3,350,-2.39,-0.771,8.7,0
421,35.473,-97.506,320,28.88,3,350,-2.575,-0.678,9.341,0
422,35.473,-97.507,320.3,29.132,3,348,-2.805,-0.777,9.07,1
423,35.473,-97.507,320.7,29.052,3,348,-2.703,-0.648,9.054,1
424,35.474,-97.507,320.6,28.991,3,347,-2.571,-0.479,9.144,1
425,35.474,-97.507,321.8,29.37,3,348,-2.585,-0.45,9.255,1
426,35.474,-97.507,322,29.37,3,347,-2.699,-0.47,9.486,1
428,35.474,-97.508,321.7,28.771,3,346,-3.134,-0.2,9.388,1
429,35.474,-97.508,323.2,28.75,3,346,-3.588,-0.245,9.416,0
430,35.475,-97.508,322.8,29.03,3,343,-3.756,-0.214,9.425,0
431,35.475,-97.508,327.4,29.182,3,344,-3.356,-0.276,9.103,0
432,35.475,-97.508,329.6,28.941,3,345,-3.285,-0.11,8.844,0
433,35.475,-97.508,332,29.12,3,341,-3.25,-0.278,9.091,0
434,35.475,-97.509,333.6,29.07,3,341,-3.378,-0.286,8.7,0
435,35.476,-97.509,335.4,29.24,3,341,-3.491,-0.308,8.793,0
436,35.476,-97.509,337.3,29.501,3,340,-3.62,-0.154,9.116,0
437,35.476,-97.509,339.5,29.811,3,340,-3.295,-0.187,9.107,0
438,35.476,-97.509,341.4,29.961,3,339,-3.347,0.057,9.197,1
439,35.477,-97.509,343.7,29.891,3,338,-3.232,-0.034,9.046,1
440,35.477,-97.509,345.8,29.851,3,338,-3.261,-0.269,9.472,0
441,35.477,-97.509,347.4,29.851,3,338,-3.204,-0.316,9.29,0
442,35.478,-97.509,349.1,29.9,3,337,-3.41,-0.01,9.239,0
443,35.478,-97.509,351.1,29.95,3,336,-3.425,0.088,9.233,0
444,35.478,-97.509,353.1,30.56,3,335,-3.459,-0.261,9.236,0
445,35.478,-97.509,353.5,30.002,3,335,-3.189,-0.491,9.061,0
446,35.479,-97.509,356.4,29.35,3,336,-2.926,-0.444,8.91,0
447,35.479,-97.509,357,29.142,3,336,-2.576,-0.476,9.068,0
448,35.479,-97.51,356.9,28.631,3,336,-2.655,-0.895,9.514,0
449,35.479,-97.51,356.7,28.411,3,337,-2.799,-0.826,9.419,0
450,35.48,-97.51,356.8,28.151,3,338,-2.782,-0.809,9.477,0
451,35.48,-97.51,356.5,27.38,3,337,-2.65,-0.721,9.239,0
452,35.48,-97.51,356.3,28.28,3,337,-2.459,-1.008,9.264,0
453,35.48,-97.51,355.3,28.36,3,337,-2.504,-1.061,9.397,0
454,35.481,-97.51,354.1,28.42,3,336,-2.829,-0.953,9.338,0
455,35.481,-97.51,353.5,28.47,3,337,-2.956,-0.935,9.115,0
456,35.481,-97.51,353,28.58,3,336,-3.108,-0.796,9.262,1
457,35.481,-97.51,352.6,28.64,3,336,-2.846,-0.829,9.431,1
458,35.482,-97.51,351.9,28.761,3,336,-2.827,-0.843,9.343,1
459,35.482,-97.51,351.2,28.54,3,336,-2.639,-0.747,9.28,1
460,35.482,-97.51,350.6,28.4,3,336,-2.846,-1.097,9.315,1
461,35.482,-97.51,349.6,27.77,3,336,-2.971,-0.994,9.292,1
462,35.483,-97.51,348.8,28.322,3,337,-2.977,-1.037,9.313,1
463,35.483,-97.51,348.1,28.072,3,338,-2.905,-0.811,9.103,1
464,35.483,-97.51,347.4,27.945,3,338,-2.992,-0.812,8.945,1
465,35.483,-97.51,347,27.647,3,339,-3.049,-0.837,9.342,1
466,35.484,-97.51,346.6,27.447,3,340,-3.01,-0.742,8.957,1
467,35.484,-97.51,346.5,27.245,3,339,-2.996,-0.689,8.687,1
468,35.484,-97.51,345.6,27.926,3,340,-3.445,-0.41,8.784,1
469,35.484,-97.511,347.4,26.916,3,341,-3.166,-0.522,8.909,0
470,35.485,-97.511,348.4,26.874,3,342,-3.21,-0.477,9.078,0
471,35.485,-97.511,349.3,26.716,3,343,-3.128,-0.694,8.756,0
472,35.485,-97.511,350.1,26.694,3,343,-3.337,-0.641,8.424,0
473,35.485,-97.511,350.8,26.467,3,344,-3.609,-0.634,9.461,0
474,35.486,-97.511,352.2,26.355,3,344,-3.655,-0.396,9.522,0
475,35.486,-97.511,353.2,26.246,3,344,-3.029,-0.615,9.442,0
476,35.486,-97.511,353.8,25.996,3,345,-2.954,-0.63,9.28,0
477,35.486,-97.511,354.6,25.705,3,346,-3.482,-0.625,9.342,0
478,35.486,-97.511,355.1,25.335,3,347,-3.063,-0.587,8.84,0
479,35.487,-97.511,356,25.106,3,348,-3.295,-0.81,8.587,0
480,35.487,-97.511,358.1,25.181,3,349,-2.915,-0.791,8.501,0
481,35.487,-97.511,358.6,25.41,3,350,-3.343,-0.731,8.757,0
482,35.488,-97.511,359.2,25.66,3,351,-3.127,-0.627,8.326,0
483,35.488,-97.511,0,26.01,3,351,-3.243,-0.82,8.85,0
484,35.488,-97.511,0.6,26.06,3,351,-2.773,-0.66,9.001,0
485,35.488,-97.511,0.3,26.07,3,351,-2.952,-0.618,9.116,1
486,35.489,-97.511,0.9,26.5,3,351,-3.144,-0.779,8.987,1
487,35.489,-97.511,0.8,26.38,4,352,-2.776,-0.782,8.701,1
488,35.489,-97.511,0.1,26.45,4,348,-3.094,-0.792,9.212,1
489,35.489,-97.511,359.5,26.64,4,349,-2.771,-1.06,9.016,1
490,35.489,-97.511,357.5,27.08,3,349,-2.55,-1.522,8.95,1
491,35.49,-97.511,355,27.3,3,349,-2.65,-1.223,7.471,1
492,35.49,-97.511,353.4,27.58,3,350,-3.043,-1.326,9.148,0
493,35.49,-97.511,351.8,28.031,3,350,-3.025,-1.674,8.917,0
494,35.49,-97.511,349.9,28.8,3,350,-3.123,-1.252,8.34,0
496,35.491,-97.511,348.4,29.41,3,350,-2.825,-1.502,8.456,0
497,35.491,-97.511,346.7,29.96,3,351,-3.044,-1.55,9.469,0
498,35.491,-97.511,345.1,30.51,3,351,-2.741,-1.471,8.688,0
499,35.492,-97.511,343.3,31.04,3,351,-2.485,-1.398,8.58,0
500,35.492,-97.512,341.3,31.27,3,351,-2.504,-1.051,8.873,0
501,35.492,-97.512,339.3,31.131,3,350,-2.637,-1.021,9.511,0
502,35.492,-97.512,337.8,30.88,3,351,-2.586,-1.058,9.369,0
503,35.493,-97.512,336,30.86,3,351,-2.498,-0.671,9.282,0
504,35.493,-97.512,335.2,30.56,3,352,-2.855,-0.615,9.719,0
505,35.493,-97.512,334.6,30.33,3,352,-2.544,-0.758,9.345,0
506,35.493,-97.512,334.6,30.061,3,352,-2.824,-0.521,9.123,0
507,35.494,-97.512,335.4,29.761,3,350,-2.879,0.254,8.369,0
508,35.494,-97.513,335.9,29.721,3,350,-2.962,-0.111,9.205,0
509,35.494,-97.513,337.6,29.622,3,349,-2.653,-0.442,9.068,0
510,35.494,-97.513,338.7,29.751,3,350,-2.99,-0.348,9.072,0
511,35.495,-97.513,338.7,29.451,3,349,-2.982,-0.232,9.322,0
512,35.495,-97.513,340,29.33,3,348,-3.205,-0.008,9.427,0
513,35.495,-97.513,342.2,29.306,3,347,-2.965,-0.271,9.857,0
514,35.495,-97.513,343.8,29.266,3,344,-2.829,0.022,8.892,0
515,35.496,-97.513,345.4,29.237,3,342,-3.019,0.066,8.985,0
516,35.496,-97.513,347.2,29.196,3,342,-2.955,-0.04,9.016,0
517,35.496,-97.513,349,29.177,3,340,-3.035,0.017,9.267,0
518,35.496,-97.514,350.5,29.146,3,339,-2.855,0.036,8.98,0
519,35.497,-97.514,351.8,29.252,3,339,-3.01,0.116,8.923,0
520,35.497,-97.514,353.5,29.107,3,338,-3.092,0.382,9.319,0
521,35.497,-97.514,355.3,28.966,3,336,-2.181,0.499,9.491,0
522,35.497,-97.514,356.8,27.932,3,335,-2.704,-0.09,9.39,0
523,35.498,-97.514,357.7,27.251,3,335,-2.46,-0.709,8.983,0
524,35.498,-97.514,357.9,27.213,3,335,-2.578,-0.827,9.392,0
525,35.498,-97.514,357.9,27.185,3,334,-2.776,-0.733,9.383,0
526,35.498,-97.514,357.8,27.156,3,331,-2.574,-0.774,9.186,0
527,35.499,-97.514,357.8,27.174,3,330,-2.808,-0.804,9.008,1
528,35.499,-97.514,358,27.251,3,329,-3.025,-0.893,8.903,1
529,35.499,-97.514,358.2,27.531,3,328,-2.903,-1.015,8.944,1
530,35.499,-97.514,358.1,27.73,3,328,-2.847,-0.893,8.772,1
531,35.5,-97.514,358.1,27.91,3,329,-3.071,-1.088,8.95,1
532,35.5,-97.514,358,28.14,3,328,-3.042,-1.155,8.761,1
533,35.5,-97.514,358.1,28.43,3,329,-2.956,-1.067,8.775,1
534,35.5,-97.514,358.2,28.851,3,328,-2.914,-1.096,8.974,1
535,35.501,-97.514,358.1,29.18,3,327,-2.895,-0.973,9.197,1
536,35.501,-97.514,357.9,29.42,3,327,-2.604,-0.698,9.051,1
537,35.501,-97.514,358,29.23,3,327,-2.763,-0.675,9.44,1
538,35.501,-97.514,358.1,29.02,3,327,-2.599,-0.798,9.299,1
539,35.502,-97.514,358.4,28.58,3,326,-2.66,-0.748,9.4,1
540,35.502,-97.514,358.2,28.38,3,325,-2.549,-0.894,9.22,1
541,35.502,-97.514,358.1,28.09,3,325,-2.536,-0.691,9.058,1
542,35.502,-97.514,358.1,27.67,3,325,-2.763,-0.794,9.333,1
543,35.503,-97.514,357.8,27.64,3,325,-2.76,-0.757,9.464,1
544,35.503,-97.514,357.9,27.27,3,325,-2.679,-0.652,9.05,1
545,35.503,-97.514,357.9,27,3,325,-2.734,-0.772,9.051,1
546,35.503,-97.514,358.1,26.64,3,325,-2.719,-0.767,9.272,1
547,35.504,-97.514,358.3,26.001,3,325,-2.87,-0.708,9.265,0
548,35.504,-97.514,358.6,25.9,3,326,-2.864,-0.994,9.128,0
549,35.504,-97.514,358.4,25.96,3,326,-2.742,-0.841,8.859,0
550,35.505,-97.514,357.8,25.98,3,326,-2.899,-0.866,9.226,0
551,35.505,-97.514,357.1,25.84,3,327,-3.078,-0.551,9.485,0
552,35.505,-97.514,356.9,25.76,3,327,-2.914,-0.553,9.138,0
553,35.505,-97.514,356.4,25.67,3,327,-2.662,-0.474,9.227,0
554,35.505,-97.514,355.4,25.36,3,327,-2.883,-0.901,9.069,0
555,35.506,-97.514,354.2,25.33,3,327,-2.713,-0.864,8.78,1
556,35.506,-97.514,353.1,25.31,3,328,-2.854,-0.878,9.085,1
557,35.506,-97.514,352.3,25.3,3,328,-3.035,-0.599,8.882,1
558,35.506,-97.514,352.1,25.46,3,328,-2.94,-0.728,9.077,1
559,35.507,-97.514,352.4,25.421,3,328,-2.793,-0.619,9.276,1
560,35.507,-97.514,352.3,25.17,3,329,-2.546,-0.792,9.061,1
562,35.507,-97.514,352,24.83,3,328,-2.744,-0.947,8.99,1
563,35.507,-97.514,351.9,24.67,3,328,-2.729,-0.717,9.187,1
564,35.508,-97.514,352.2,24.46,3,328,-2.673,-0.618,9.034,1
565,35.508,-97.514,352.3,24.24,3,328,-2.908,-0.836,9.024,1
566,35.508,-97.514,352.4,24.1,3,328,-2.457,-0.705,8.841,1
567,35.508,-97.514,352.1,23.95,3,328,-2.497,-0.952,8.652,1
568,35.508,-97.514,352.1,23.7,3,327,-2.595,-0.56,8.731,1
569,35.509,-97.515,352.1,23.461,3,327,-2.695,-0.774,9.15,1
570,35.509,-97.515,352,23.18,3,325,-2.523,-0.705,9.091,1
571,35.509,-97.515,351.8,22.96,3,325,-2.876,-0.761,9.153,1
572,35.509,-97.515,351.9,23.171,3,325,-3.289,-1.14,8.814,1
573,35.509,-97.515,352.1,23.862,3,325,-3.337,-1.322,8.885,1
574,35.51,-97.515,352,24.681,3,325,-3.444,-1.262,8.91,1
575,35.51,-97.515,352.1,25.453,3,324,-3.154,-1.106,9.014,1
576,35.51,-97.515,352.1,26.093,3,324,-2.695,-0.773,9.017,1
577,35.51,-97.515,351.9,26.212,3,322,-2.556,-0.95,8.93,1
578,35.511,-97.515,351.8,26.342,3,322,-2.9,-0.423,9.129,1
579,35.511,-97.515,351.6,26.343,3,321,-2.876,-0.483,9.473,1
580,35.511,-97.515,351.6,26.342,3,320,-3.316,-0.457,9.005,1
581,35.511,-97.515,351.7,26.541,3,320,-3.16,-0.976,9.336,1
582,35.512,-97.515,350.6,26.921,3,319,-2.437,-1.007,9.211,0
583,35.512,-97.515,348.6,27.152,3,319,-2.293,-0.833,9.044,0
584,35.512,-97.515,347.2,27.1,3,320,-2.614,-0.708,9.211,0
585,35.512,-97.515,346.8,26.98,3,320,-3.059,-0.553,9.154,0
586,35.512,-97.515,346.4,26.202,4,319,-3.532,-0.644,8.805,0
587,35.513,-97.515,345,26.99,4,319,-3.299,-0.657,9.189,0
588,35.513,-97.515,345.8,27.511,4,319,-3.09,-0.903,8.873,0
589,35.513,-97.516,346.3,27.91,3,319,-2.653,-0.91,9.146,1
590,35.513,-97.516,346.6,28.06,3,319,-2.325,-1.072,8.901,1
591,35.514,-97.516,346.1,27.75,3,318,-2.608,-0.84,9.449,1
592,35.514,-97.516,345.5,27.44,3,317,-2.624,-0.726,9.401,1
593,35.514,-97.516,345,27.14,3,317,-2.629,-1.095,9.169,1
594,35.514,-97.516,345.2,26.99,3,317,-2.783,-0.788,9.126,1
595,35.515,-97.516,345.2,27.084,3,316,-2.646,-0.913,9.39,0
596,35.515,-97.516,345,27.12,3,316,-3.119,-0.999,9.251,0
597,35.515,-97.516,345,27.15,3,315,-3.164,-1.167,8.877,0
598,35.515,-97.516,345.2,27.56,3,315,-3.094,-1.353,8.589,0
599,35.516,-97.516,345.1,28.12,3,315,-3.114,-1.31,8.498,0
600,35.516,-97.516,345.1,28.63,3,315,-2.758,-0.908,9.268,0
601,35.516,-97.516,345,28.82,3,315,-2.437,-0.76,9.204,0
602,35.516,-97.517,345.1,28.58,3,314,-2.34,-0.67,9.156,0
603,35.517,-97.517,345.2,28.14,3,314,-1.896,-0.343,9.18,1
604,35.517,-97.517,345.7,27.94,3,315,-1.787,-0.415,8.943,1
605,35.517,-97.517,345.4,26.631,3,314,-2.393,-0.694,8.796,1
606,35.517,-97.517,344.6,26.061,3,313,-2.385,0.452,9.561,1
607,35.517,-97.517,344.4,25.69,3,313,-2.034,0.181,9.697,1
608,35.518,-97.517,347.1,24.352,3,312,-2.502,-1.032,9.426,0
609,35.518,-97.517,347.5,23.671,3,312,-2.58,-0.817,9.079,0
610,35.518,-97.517,348.8,23.591,3,312,-2.909,-0.417,8.941,0
611,35.519,-97.517,351,23.631,3,311,-3.263,-0.574,8.961,0
612,35.519,-97.517,352.9,23.981,3,311,-3.736,-1.616,8.689,0
613,35.519,-97.517,353.5,25.332,3,310,-3.664,-1.708,8.96,0
614,35.519,-97.517,355,25.945,3,309,-2.984,-0.53,8.259,0
615,35.519,-97.517,356.9,26.09,3,309,-2.99,0.467,8.931,0
616,35.52,-97.517,0.1,25.241,3,309,-2.643,0.241,9.218,0
617,35.52,-97.517,2.6,24.641,3,308,-2.675,-0.164,9.345,0
618,35.52,-97.517,4.2,24.13,3,309,-2.133,0.181,9.447,0
619,35.52,-97.517,5.6,23.04,3,309,-2.752,-0.419,9.212,0
620,35.521,-97.517,7.1,22.99,3,309,-2.968,-0.356,9.261,0
621,35.521,-97.517,8.9,23.01,3,309,-3.197,-0.426,9.344,1
622,35.521,-97.517,12.3,23.07,3,309,-3.103,-0.511,9.166,1
624,35.521,-97.517,12.9,22.98,3,308,-2.795,-0.54,9.324,1
625,35.521,-97.517,13.4,23.42,4,308,-2.822,-0.586,9.365,1
626,35.522,-97.517,14.6,22.66,4,308,-2.692,-0.534,9.297,1
627,35.522,-97.517,15.7,22.431,4,308,-2.914,-0.771,9.501,1
628,35.522,-97.517,16.1,22.242,4,308,-2.824,-0.785,9.283,1
629,35.522,-97.517,16,22.12,3,309,-3.066,-1.086,8.939,1
630,35.522,-97.517,16.2,22.501,3,310,-3.586,-1.13,9.221,1
631,35.523,-97.517,16.5,22.46,3,309,-3.469,-0.808,9.07,0
632,35.523,-97.517,17.8,23.53,4,309,-3.135,-0.708,9.063,0
633,35.523,-97.516,18.6,23.28,6,309,-3.028,-0.485,9.021,0
634,35.523,-97.516,20.1,23.3,5,309,-3.07,-0.789,9.366,0
635,35.523,-97.516,21.1,23.01,5,310,-3.056,-0.395,9.271,0
636,35.523,-97.516,22.2,22.603,4,309,-2.877,-0.265,9.025,0
637,35.524,-97.516,23.3,22.191,4,310,-2.713,-0.751,9.069,0
638,35.524,-97.516,23.6,21.902,3,311,-2.923,-0.773,8.737,0
639,35.524,-97.516,24.2,21.811,3,312,-3.201,-0.476,8.985,1
640,35.524,-97.516,25.7,21.712,3,312,-3.368,-0.564,8.859,1
641,35.524,-97.516,27.8,21.891,3,312,-2.925,-0.84,9.171,0
642,35.525,-97.516,28.4,21.86,3,313,-3.125,-0.757,9.097,0
643,35.525,-97.515,29.1,21.861,3,313,-3.195,-0.813,8.703,0
644,35.525,-97.515,29.5,21.99,3,313,-2.951,-0.647,8.879,0
645,35.525,-97.515,29.6,21.99,3,314,-2.293,-0.8,8.657,0
646,35.525,-97.515,28.6,21.69,3,315,-2.111,-1.282,9.229,0
647,35.525,-97.515,26,21.44,3,314,-2.289,-1.557,9.097,0
648,35.526,-97.515,22.9,21.46,3,313,-2.512,-1.446,8.031,1
649,35.526,-97.515,20.5,21.95,3,313,-3.47,-1.528,8.695,1
