time,lat,lng,bearing,spd,acc,alt,accx,accy,accz,stable,
0,35.396,-97.495,0,27.08,3,359,-0.066,-0.631,9.609,1
1,35.396,-97.495,0,26.85,3,359,-0.06,-0.633,9.531,1
2,35.397,-97.495,0,26.54,3,358,-0.06,-0.728,9.521,1
3,35.397,-97.495,359.9,26.441,3,358,-0.173,-0.715,9.306,1
4,35.397,-97.495,359.8,26.441,3,358,-0.291,-0.57,9.285,1
5,35.397,-97.495,359.9,26.562,3,357,-0.525,-0.908,9.371,1
6,35.398,-97.495,0.1,26.963,3,357,-0.626,-0.961,9.521,1
7,35.398,-97.495,0,27.653,3,357,-0.6,-0.997,9.506,1
8,35.398,-97.495,0,28.323,3,356,-0.436,-1.078,9.629,1
9,35.398,-97.495,359.9,28.912,3,355,-0.316,-0.949,9.776,1
10,35.399,-97.495,359.9,29.211,3,354,-0.375,-0.849,9.64,1
11,35.399,-97.495,0.5,28.97,3,354,-0.407,-0.931,9.697,1
12,35.399,-97.495,1.6,29.05,3,354,-0.377,-1.029,9.719,0
13,35.4,-97.495,359.7,29.68,3,354,-0.543,-0.869,9.746,0
14,35.4,-97.495,359.9,29.901,3,355,-0.482,-0.743,9.889,0
15,35.4,-97.495,359.8,29.903,3,356,-0.314,-0.732,9.9,0
16,35.4,-97.495,359.9,29.672,3,356,-0.34,-0.722,9.55,0
17,35.401,-97.495,359.9,29.412,3,357,-0.432,-0.71,9.451,0
18,35.401,-97.495,0,29.312,3,358,-0.403,-0.771,9.43,0
19,35.401,-97.495,0.2,29.232,3,359,-0.526,-0.628,9.493,1
20,35.401,-97.495,0.7,29.251,3,359,-0.215,-0.43,9.675,1
21,35.402,-97.495,1.3,29.11,3,360,-0.557,-0.186,9.684,1
22,35.402,-97.495,2.6,28.95,3,361,-0.541,-0.162,9.631,0
23,35.402,-97.495,3.6,28.89,3,361,-0.453,-0.439,9.586,0
24,35.402,-97.495,4.7,28.92,3,362,-0.527,-0.378,9.729,0
25,35.403,-97.495,5.7,29.04,3,362,-0.589,-0.255,9.492,0
26,35.403,-97.495,6.7,29.12,3,362,-0.522,-0.475,9.487,0
27,35.403,-97.495,7.6,29.3,3,362,-0.316,-0.495,9.517,0
28,35.403,-97.495,8.5,29.381,3,362,-0.522,-0.377,9.666,0
29,35.404,-97.495,9.3,29.53,3,362,-0.473,-0.451,9.747,1
30,35.404,-97.495,10.3,29.64,3,362,-0.519,-0.394,9.604,1
31,35.404,-97.495,12.2,29.78,3,363,-0.645,-0.302,9.944,1
32,35.405,-97.494,13.4,29.7,3,363,-0.329,-0.152,9.986,0
33,35.405,-97.494,14.8,29.361,3,364,-0.364,-0.426,10.234,0
34,35.405,-97.494,15.6,29.172,3,362,-0.356,-0.561,10.24,0
35,35.406,-97.494,16.3,28.812,3,364,-0.336,-0.623,9.525,0
36,35.406,-97.494,17,28.592,3,365,-0.338,-0.84,10.027,0
37,35.406,-97.494,17.4,28.472,3,366,-0.58,-0.49,9.495,0
38,35.406,-97.494,17.5,28.431,3,366,-0.072,-1.03,9.353,0
39,35.406,-97.494,17.6,28.381,3,367,-0.277,-0.826,9.589,0
40,35.407,-97.494,17.4,28.31,3,366,-0.252,-0.868,9.324,0
41,35.407,-97.494,17.3,28.26,3,367,-0.363,-0.912,9.747,0
42,35.407,-97.494,17.4,28.23,3,367,-0.37,-1.012,9.568,0
43,35.407,-97.493,17.6,28.34,3,367,-0.491,-0.799,9.354,0
44,35.408,-97.493,17.6,28.49,3,367,-0.508,-0.979,9.412,0
45,35.408,-97.493,17.5,28.64,3,367,-0.47,-0.997,9.464,0
46,35.408,-97.493,17.5,28.77,3,368,-0.588,-0.667,9.323,0
47,35.408,-97.493,17.6,28.91,3,368,0.021,-0.896,9.227,0
48,35.409,-97.493,17.5,28.83,3,368,-0.887,-0.296,9.973,0
49,35.409,-97.493,17.5,28.78,3,369,0.191,-0.698,9.083,0
50,35.409,-97.493,17.5,28.55,3,368,-0.303,-0.464,9.971,0
51,35.409,-97.493,17.7,28.34,3,368,-0.542,-0.501,10.062,0
52,35.41,-97.493,17.7,28.361,3,368,-0.081,-0.715,9.552,0
53,35.41,-97.492,17.6,28.212,3,367,-0.479,-0.678,9.89,0
54,35.41,-97.492,17.5,28.461,3,367,-0.269,-0.697,9.814,0
55,35.41,-97.492,17.6,28.581,3,366,-0.142,-0.926,9.559,0
56,35.411,-97.492,17.6,28.722,3,365,-0.275,-0.828,9.325,0
57,35.411,-97.492,17.3,28.942,3,365,-0.187,-0.797,9.271,0
58,35.411,-97.492,17.3,29.253,3,364,-0.333,-0.791,9.265,0
60,35.411,-97.492,17.4,29.633,3,364,-0.386,-0.729,9.558,1
61,35.412,-97.492,17.5,29.913,3,363,0.035,-0.638,9.537,1
62,35.412,-97.492,17.6,29.853,3,362,-0.066,-0.791,10.088,0
63,35.412,-97.492,17.7,29.723,3,362,-0.056,-0.811,9.639,0
64,35.412,-97.492,17.6,29.703,3,361,-0.072,-0.78,9.303,0
65,35.413,-97.491,17.4,29.734,3,360,-0.299,-0.83,9.654,0
66,35.413,-97.491,17.6,29.953,3,360,-0.399,-0.739,9.72,0
67,35.413,-97.491,17.4,30.223,3,359,-0.257,-0.969,9.744,0
68,35.413,-97.491,17.3,30.421,3,359,-0.337,-0.819,10.036,0
69,35.414,-97.491,17.4,30.53,3,358,-0.5,-0.627,9.721,0
70,35.414,-97.491,17.7,30.64,3,358,-0.54,-0.76,9.97,0
71,35.414,-97.491,18.4,29.61,3,358,-0.163,-1.104,9.597,0
72,35.415,-97.491,17.8,30.44,3,358,-0.261,-1.088,9.442,0
73,35.415,-97.491,17.3,30.802,3,359,-0.291,-0.645,9.512,0
74,35.415,-97.491,17.4,30.594,3,360,-0.224,-0.76,9.477,0
75,35.415,-97.49,17.7,30.194,3,360,-0.335,-0.817,9.811,0
76,35.416,-97.49,17.5,29.962,3,360,-0.423,-0.697,9.337,0
77,35.416,-97.49,17.4,29.842,3,360,-0.438,-1.056,9.248,0
78,35.416,-97.49,17.5,29.941,3,361,-0.12,-1.045,9.479,1
79,35.416,-97.49,17.5,30.07,3,361,-0.394,-0.944,9.636,1
80,35.417,-97.49,17.4,30.09,3,361,-0.361,-0.894,9.523,1
81,35.417,-97.49,17.5,30.26,3,361,-0.404,-0.749,9.381,1
82,35.417,-97.49,17.5,30.41,3,361,-0.413,-0.753,9.451,1
83,35.417,-97.49,17.6,30.46,3,361,-0.125,-0.809,9.361,1
84,35.418,-97.489,17.6,30.521,3,360,-0.113,-0.483,9.705,1
85,35.418,-97.489,17.5,30.301,3,360,0.916,0.03,10.018,0
86,35.418,-97.489,17.6,29.45,3,360,1.052,0.536,10.172,0
87,35.418,-97.489,19.2,27.52,3,360,0.354,-0.409,9.958,0
88,35.419,-97.489,19.8,26.2,3,360,-0.043,-0.834,9.803,0
89,35.419,-97.489,19.3,25.891,3,360,0.138,-0.976,9.664,0
90,35.419,-97.489,18.7,25.492,3,361,1.981,0.252,9.816,0
91,35.419,-97.489,18.6,23.692,3,361,0.787,-0.262,9.704,0
92,35.419,-97.489,19,21.443,3,362,0.275,-0.221,9.953,0
93,35.42,-97.489,19.4,18.301,3,362,2.149,0.605,10.309,0
94,35.42,-97.489,20.1,16.391,3,362,-0.166,-0.712,9.583,1
95,35.42,-97.489,20.6,14.431,3,363,-0.219,-0.648,9.571,1
96,35.42,-97.488,21,13.451,3,363,-0.253,-0.651,9.826,1
97,35.42,-97.488,21.4,13.07,3,364,-0.318,-0.576,9.724,0
98,35.42,-97.488,21.7,12.72,3,364,-0.145,-0.746,9.672,1
99,35.42,-97.488,21.7,12.37,3,364,-0.483,-0.773,9.755,1
100,35.42,-97.488,22,12.3,3,364,-0.125,-0.478,9.767,0
101,35.421,-97.488,22.2,12.08,3,364,-0.108,-0.621,9.673,1
102,35.421,-97.488,22.3,11.79,3,364,-0.624,-0.961,9.494,1
103,35.421,-97.488,22.6,11.97,3,364,-0.586,-1.033,9.637,1
104,35.421,-97.488,22.6,12.21,3,364,-0.095,-0.803,9.558,1
105,35.421,-97.488,22.6,11.98,3,364,-0.323,-0.815,9.575,1
106,35.421,-97.488,22.5,11.77,3,364,-0.323,-0.708,9.633,1
107,35.421,-97.488,22.3,11.71,3,364,-1.035,-1.26,9.945,0
108,35.421,-97.488,22,12.22,3,364,-1.097,-1.304,9.387,1
109,35.421,-97.488,21.7,13.09,3,364,-1.001,-1.284,9.716,1
110,35.422,-97.488,21.7,13.84,3,363,-0.123,-0.608,9.633,0
111,35.422,-97.488,22.1,13.9,3,363,-0.176,-0.585,9.401,1
112,35.422,-97.488,22.5,13.69,3,363,-0.086,-0.663,9.577,1
113,35.422,-97.488,22.5,13.49,3,363,-0.009,-0.7,9.631,1
114,35.422,-97.488,22.4,13.37,3,363,-0.7,-1.081,9.491,1
115,35.422,-97.487,22.4,13.801,3,363,-0.093,-0.791,9.54,1
116,35.422,-97.487,22.4,13.881,3,362,-0.421,-0.897,9.696,1
117,35.422,-97.487,22.3,14.021,3,362,-0.602,-1.054,10.404,0
118,35.422,-97.487,22.2,14.321,3,362,-0.747,-0.941,9.512,1
119,35.423,-97.487,22.2,14.861,3,361,-0.873,-0.888,9.765,1
120,35.423,-97.487,22.2,15.501,3,361,-0.866,-0.681,9.69,1
121,35.423,-97.487,22.2,16.091,3,361,-0.312,-0.157,9.436,0
122,35.423,-97.487,22.2,16.251,3,361,-0.316,-0.188,9.718,0
123,35.423,-97.487,21.9,16.131,3,361,-0.675,-0.405,9.687,0
125,35.423,-97.487,21.4,16.171,3,361,-0.787,-0.577,9.644,1
126,35.423,-97.487,20.7,16.561,3,361,-1.007,-0.376,9.425,0
127,35.424,-97.487,19.5,16.972,3,361,-0.666,-0.57,9.703,1
128,35.424,-97.487,18.4,17.411,3,361,-0.689,-0.716,9.536,1
129,35.424,-97.487,17.5,17.841,3,360,-0.178,-0.205,9.528,0
130,35.424,-97.487,17,18.272,3,360,-0.719,-0.468,9.578,1
131,35.424,-97.487,16.3,18.451,3,360,-0.755,-0.795,9.672,1
132,35.424,-97.486,15.1,18.891,3,360,-0.319,-0.499,9.538,0
133,35.424,-97.486,14,19.371,3,359,-0.388,-0.091,9.537,0
134,35.425,-97.486,13.3,19.391,3,359,-0.372,-0.618,9.148,0
135,35.425,-97.486,12.4,19.421,3,358,0.154,-0.002,8.828,0
136,35.425,-97.486,11.3,19.281,3,358,-0.255,-0.487,9.747,0
137,35.425,-97.486,10.1,19.053,3,357,-0.268,-0.296,9.813,0
138,35.425,-97.486,9.3,18.611,3,356,-0.117,-0.05,8.772,0
139,35.425,-97.486,8.4,18.412,3,355,-0.401,-0.597,9.667,0
140,35.426,-97.486,7.4,18.291,3,355,-0.469,-0.409,9.481,1
141,35.426,-97.486,6.6,18.334,3,354,-0.482,-0.511,9.712,1
142,35.426,-97.486,5.9,18.722,3,354,-0.26,-0.466,9.668,1
143,35.426,-97.486,4.8,18.882,3,353,0.866,-0.027,9.818,0
144,35.426,-97.486,3.6,18.872,3,353,1.175,0.099,10.15,0
145,35.426,-97.486,2.5,17.902,3,352,-0.117,-0.274,9.633,0
146,35.427,-97.486,1.7,16.361,3,352,-0.161,-0.267,9.585,0
147,35.427,-97.486,1.2,15.791,3,352,-0.308,-0.157,9.771,1
148,35.427,-97.486,0.8,15.681,3,352,0.707,0.08,10.062,0
149,35.427,-97.486,0.6,15.552,3,351,-0.193,-0.224,9.86,0
150,35.427,-97.486,0.3,14.771,3,351,-0.258,-0.323,9.786,0
151,35.427,-97.486,359.9,14.241,3,351,-0.166,-0.386,9.994,0
152,35.427,-97.486,359.9,14.101,3,351,-0.598,-0.708,9.609,1
153,35.428,-97.486,0.1,13.941,3,351,-0.676,-0.961,9.552,1
154,35.428,-97.486,0.1,14.05,3,351,-0.673,-0.746,9.692,1
155,35.428,-97.486,0,14.46,3,350,-0.427,-0.771,9.685,1
156,35.428,-97.486,0.1,14.68,3,350,-0.307,-0.796,9.836,1
157,35.428,-97.486,0.2,15.63,3,350,-0.464,-0.884,9.51,1
158,35.428,-97.486,0.1,15.31,3,350,-0.671,-0.919,9.593,0
159,35.428,-97.486,0,14.92,3,350,-0.588,-0.774,9.433,1
160,35.428,-97.486,0,14.92,3,350,-0.529,-0.919,9.59,1
161,35.429,-97.486,0,15.13,3,349,-0.391,-0.752,9.316,1
162,35.429,-97.486,0,15.43,3,350,-0.558,-0.81,9.456,0
163,35.429,-97.486,0.2,15.59,3,349,-0.729,-1.04,9.669,1
164,35.429,-97.486,0,16.16,3,349,-0.99,-1.233,9.706,1
165,35.429,-97.486,0,16.85,3,349,-1.023,-1.104,9.364,0
166,35.43,-97.486,359.9,17.56,3,348,-0.626,-0.869,9.567,1
167,35.43,-97.486,359.9,17.99,3,348,-0.523,-0.917,9.351,0
168,35.43,-97.486,359.8,18.06,3,348,-0.626,-0.966,9.86,0
169,35.43,-97.486,0.1,18.25,3,348,-0.669,-0.935,9.617,1
170,35.43,-97.486,0.1,18.48,3,348,-0.614,-0.928,9.534,0
171,35.43,-97.486,359.8,18.73,3,348,-0.62,-0.946,9.273,1
172,35.431,-97.486,359.8,19,3,348,-0.544,-0.871,9.786,1
173,35.431,-97.486,359.9,19.241,3,348,-0.658,-0.761,9.549,1
174,35.431,-97.486,0,19.431,3,348,-0.521,-0.901,9.551,1
175,35.431,-97.486,359.8,19.561,3,348,-0.182,-0.514,9.585,1
176,35.431,-97.486,359.9,19.28,3,349,1.268,-0.098,9.997,0
177,35.431,-97.486,0,17.93,3,349,1.487,0.064,9.702,0
178,35.432,-97.486,0.2,16.13,3,349,0.632,-0.284,9.981,0
179,35.432,-97.486,0.1,15.11,3,348,-0.011,-0.743,9.55,0
180,35.432,-97.486,359.9,14.486,3,349,-0.125,-0.884,9.713,1
181,35.432,-97.486,359.7,14.2,3,349,0.327,-0.713,9.764,0
182,35.432,-97.486,0,14.16,3,349,-0.081,-0.601,9.981,0
183,35.432,-97.486,359.9,13.9,3,348,-0.465,-0.695,9.314,1
184,35.432,-97.486,0,13.87,3,348,-0.819,-0.998,9.371,1
185,35.432,-97.486,0,14.22,3,348,-1.257,-1.292,9.507,1
186,35.433,-97.486,359.9,15.13,3,347,-1.163,-1.359,9.434,1
187,35.433,-97.486,0,16.211,3,347,-0.389,-0.813,9.396,0
188,35.433,-97.486,0.1,17.04,3,347,-0.477,-0.639,9.442,1
189,35.433,-97.486,0,17.271,3,347,-0.435,-0.667,9.38,0
190,35.433,-97.486,0.1,17.531,3,347,0.046,-0.873,9.408,0
191,35.433,-97.486,0,17.691,3,347,-0.205,-0.398,9.648,1
192,35.433,-97.486,0,17.621,3,347,-0.302,-0.685,9.623,1
193,35.434,-97.486,0,17.711,3,347,-0.162,-0.712,9.819,1
194,35.434,-97.486,359.8,17.762,3,347,-0.163,-0.518,9.889,1
196,35.434,-97.486,359.8,17.682,3,346,-0.332,-0.712,9.566,0
197,35.434,-97.486,359.9,17.732,3,346,-0.462,-0.775,9.449,1
198,35.434,-97.486,359.8,17.891,3,345,-0.528,-0.732,9.563,0
199,35.434,-97.486,0,18.241,3,345,-0.587,-0.698,9.875,0
200,35.435,-97.486,0,18.581,3,344,-0.471,-1.019,9.779,0
201,35.435,-97.486,359.9,18.84,3,344,-0.322,-0.736,9.834,0
202,35.435,-97.486,359.7,18.97,3,344,-0.149,-0.631,9.744,0
203,35.435,-97.486,359.7,18.9,3,344,2.048,0.602,9.836,0
204,35.435,-97.486,359.8,17.79,3,344,2.214,0.498,10.212,0
205,35.435,-97.486,0.2,16.292,3,345,0.311,-0.393,9.775,0
206,35.436,-97.486,0.6,14.23,3,344,-0.096,-0.643,9.55,0
207,35.436,-97.486,0.3,10.85,3,344,-0.383,-0.775,9.542,1
208,35.436,-97.486,0,10.45,3,344,-0.102,-0.509,9.77,1
209,35.436,-97.486,359.8,10.26,3,344,-0.071,-0.641,9.826,0
210,35.436,-97.486,359.9,9.79,3,344,-0.31,-0.609,9.574,1
211,35.436,-97.486,359.7,9.45,3,344,-0.376,-1.01,9.517,1
212,35.436,-97.486,359.6,9.3402,3,343,-0.524,-0.928,9.574,1
213,35.436,-97.486,359.7,9.38,3,343,-0.832,-1.088,9.269,1
214,35.436,-97.486,359.9,9.6401,3,343,-0.971,-0.955,9.514,1
215,35.436,-97.486,359.9,10.2,3,343,-1.117,-0.937,9.18,1
216,35.436,-97.486,359.9,10.83,3,343,-1.098,-0.969,9.123,1
217,35.437,-97.486,359.9,11.62,3,343,-1.142,-1.146,9.602,1
218,35.437,-97.486,359.8,12.36,3,343,-0.988,-1.114,9.553,1
219,35.437,-97.486,359.7,13.15,3,343,-1.166,-1.097,9.755,1
220,35.437,-97.486,359.7,13.87,3,342,-0.604,-0.9,9.728,1
221,35.437,-97.486,359.9,14.38,3,342,-0.398,-0.685,9.74,0
222,35.437,-97.486,0.2,14.61,3,341,-0.601,-0.865,9.306,0
223,35.437,-97.486,359.9,14.7,3,341,-0.569,-0.765,9.63,0
224,35.437,-97.486,359.8,14.95,3,341,-0.933,-0.757,9.546,0
225,35.438,-97.486,0,15.17,3,341,-1.009,-0.918,9.676,1
226,35.438,-97.486,0.2,15.65,3,341,-0.921,-1.105,9.668,1
227,35.438,-97.486,0.3,16.27,3,341,-0.861,-1.015,9.521,1
228,35.438,-97.486,0.2,16.86,3,341,-0.823,-1.013,9.511,1
229,35.438,-97.486,0.2,17.86,3,341,-0.734,-1.128,9.381,1
230,35.438,-97.486,359.9,18.36,3,342,-0.434,-0.838,9.211,1
231,35.439,-97.486,359.6,18.61,3,342,-0.491,-1.037,9.851,0
232,35.439,-97.486,359.7,18.74,3,341,-0.521,-0.929,9.854,0
233,35.439,-97.486,359.9,18.88,3,341,-0.538,-0.824,9.419,1
234,35.439,-97.486,0.2,19.501,3,341,-0.521,-0.988,9.592,1
235,35.439,-97.486,0.2,19.39,3,341,-0.485,-1.098,9.537,0
236,35.439,-97.486,0.1,19.3,3,341,-0.544,-1.129,9.938,0
237,35.44,-97.486,0,19.45,3,341,-0.223,-0.85,9.363,0
238,35.44,-97.486,359.9,19.43,3,341,-0.526,-0.765,9.374,1
239,35.44,-97.486,359.8,19.48,3,342,-0.565,-0.768,9.338,0
240,35.44,-97.486,359.8,19.62,3,342,-0.657,-1.011,9.834,0
241,35.44,-97.486,359.7,19.77,3,342,-0.766,-0.887,9.893,0
242,35.441,-97.486,359.9,20.01,3,342,-0.949,-1.092,9.674,0
243,35.441,-97.486,359.7,20.5,3,342,-0.75,-1.075,9.642,0
244,35.441,-97.486,359.7,21.04,3,342,-0.64,-1.14,9.841,0
245,35.441,-97.486,0.1,21.38,3,342,-0.53,-0.704,9.366,0
246,35.441,-97.486,0.4,21.63,3,342,-0.445,-0.56,9.748,0
247,35.442,-97.486,0.5,21.73,3,342,-0.429,-0.965,9.816,0
248,35.442,-97.486,0.4,21.73,3,342,-0.133,-1.047,9.386,0
249,35.442,-97.486,359.9,21.6,3,342,-0.717,-1.04,9.507,0
250,35.442,-97.486,359.9,21.8,3,342,-0.568,-1.008,9.621,0
251,35.442,-97.486,359.9,21.91,3,342,-0.569,-0.946,9.553,0
252,35.443,-97.486,359.8,22.2,3,341,-0.358,-0.925,9.542,0
253,35.443,-97.486,359.8,22.421,3,341,-0.56,-0.935,9.372,0
254,35.443,-97.486,0,22.791,3,341,-0.469,-0.872,9.061,0
255,35.443,-97.486,0.1,23.021,3,341,-0.392,-1.008,10.023,0
256,35.443,-97.486,359.8,23.221,3,341,-0.217,-0.646,9.388,0
257,35.444,-97.486,359.9,23.281,3,340,-0.272,-0.409,9.085,0
258,35.444,-97.486,359.7,23.512,3,340,-0.013,-0.332,9.173,0
259,35.444,-97.486,359.6,23.603,3,340,-0.284,-0.291,9.52,0
260,35.444,-97.486,359.7,23.553,3,340,-0.189,-0.552,9.828,0
262,35.444,-97.486,358.9,23.572,3,339,-0.291,-0.559,10.022,0
263,35.445,-97.486,358,23.522,3,338,-0.553,-0.372,10.012,0
264,35.445,-97.486,357.5,23.491,3,337,0.079,-0.864,9.773,0
265,35.445,-97.486,356.4,23.611,3,337,-0.126,-0.629,9.735,0
266,35.445,-97.486,355.4,23.23,3,337,0,-0.627,9.9,0
267,35.445,-97.486,354.7,23,3,337,-0.344,-0.501,9.72,0
268,35.446,-97.486,354,22.71,3,337,-0.318,-0.256,9.533,0
269,35.446,-97.486,353.3,22.52,3,337,-0.113,-0.525,9.92,0
270,35.446,-97.486,352.6,22.33,3,337,-0.208,-0.577,9.775,1
271,35.446,-97.486,351.5,22.11,3,337,-0.088,-0.465,9.346,0
272,35.446,-97.486,350.9,21.92,3,336,-0.264,-0.529,9.602,0
273,35.447,-97.486,350.1,21.7,3,336,-0.264,-0.269,9.785,0
274,35.447,-97.486,349.5,21.45,3,337,-0.258,-0.274,9.456,0
275,35.447,-97.486,349,21.18,3,337,-0.33,-0.672,9.874,1
276,35.447,-97.486,348.4,20.97,3,337,-0.073,-0.751,9.58,1
277,35.447,-97.487,347.6,20.84,3,336,-0.134,-0.4,9.551,1
278,35.448,-97.487,346.7,20.63,3,336,-0.508,-0.345,9.774,0
279,35.448,-97.487,346.4,20.43,3,336,-0.318,-0.413,9.277,1
280,35.448,-97.487,345.9,20.44,3,336,-0.203,-0.417,9.615,1
281,35.448,-97.487,345.1,20.43,3,336,-0.301,-0.364,9.589,0
282,35.448,-97.487,344.3,20.331,3,336,-0.193,-0.421,9.681,1
283,35.448,-97.487,343.7,20.301,3,335,-0.221,-0.564,9.55,0
284,35.449,-97.487,343.1,20.161,3,335,-0.19,-0.467,9.528,1
285,35.449,-97.487,342.3,20.081,3,335,-0.322,-0.51,9.506,1
286,35.449,-97.487,341.4,20.021,3,335,-0.672,-0.517,9.75,0
287,35.449,-97.487,340.9,20.101,3,334,-0.395,-0.43,9.663,1
288,35.449,-97.487,340.5,20.32,3,334,-0.469,-0.479,9.702,0
289,35.449,-97.487,340,20.34,3,334,-0.542,-0.646,9.43,0
290,35.45,-97.487,339.3,20.35,3,334,-0.684,-0.688,9.816,0
291,35.45,-97.487,338.8,20.85,3,334,-0.986,-0.53,9.514,0
292,35.45,-97.487,338.6,20.44,3,334,-0.941,-0.749,9.596,0
293,35.45,-97.488,339.1,21.07,3,334,-0.842,-0.888,9.633,0
294,35.451,-97.488,339.3,22.161,3,334,-0.911,-1.447,9.91,0
295,35.451,-97.488,338.9,22.641,3,335,-0.937,-1.019,9.337,0
296,35.451,-97.488,339.1,23.112,3,335,-1.002,-0.854,9.317,0
297,35.451,-97.488,339.2,23.582,3,335,-1.066,-0.91,9.357,0
298,35.451,-97.488,339.4,23.992,3,335,-0.006,-0.639,8.986,0
299,35.452,-97.488,339.6,23.802,3,336,-0.134,-0.693,9.228,0
300,35.452,-97.488,339.8,23.332,3,336,-0.079,-0.612,9.591,0
301,35.452,-97.488,340.2,22.832,3,337,-0.034,-0.52,9.16,0
302,35.452,-97.488,340.3,22.312,3,337,-0.016,-0.517,9.437,0
303,35.452,-97.489,340.5,21.602,3,338,0.288,-0.131,9.76,0
304,35.452,-97.489,341.1,20.583,3,338,-0.098,-0.568,10.067,0
305,35.453,-97.489,341.1,20.023,3,339,-0.162,-0.75,9.481,0
306,35.453,-97.489,341.2,19.612,3,339,-0.214,-0.84,9.709,0
307,35.453,-97.489,341.3,19.242,3,339,-0.302,-0.815,9.385,1
308,35.453,-97.489,341.3,18.852,3,340,-0.21,-0.76,9.69,0
309,35.453,-97.489,341.2,18.541,3,338,-0.266,-0.778,9.002,0
310,35.453,-97.489,341,18.231,3,339,-0.186,-0.748,10.095,0
311,35.454,-97.489,340.9,17.92,3,339,-0.447,-0.802,9.102,0
312,35.454,-97.489,340.8,17.83,3,340,-0.207,-0.72,9.484,0
313,35.454,-97.489,340.9,17.81,3,340,-0.264,-0.295,8.655,0
314,35.454,-97.489,341.1,17.6,3,340,-0.093,-0.624,9.436,0
315,35.454,-97.489,341.3,17.35,3,340,-0.111,-0.662,9.701,0
316,35.454,-97.489,341.4,17.17,3,339,-0.27,-0.919,9.506,1
317,35.454,-97.489,341,17.06,3,339,-0.804,-1.015,9.698,1
318,35.455,-97.49,340.7,17.411,3,338,-0.901,-0.93,9.393,0
319,35.455,-97.49,341,18.061,3,338,-0.824,-1.095,9.463,1
320,35.455,-97.49,340.9,18.832,3,338,-0.863,-1.05,9.601,1
321,35.455,-97.49,340.7,19.572,3,337,-0.773,-1.082,9.854,1
322,35.455,-97.49,340.7,20.334,3,336,-0.098,-0.651,10.194,0
323,35.455,-97.49,340.7,20.622,3,336,-0.132,-0.77,10.078,0
324,35.456,-97.49,340.9,20.513,3,335,-0.076,-0.775,9.32,0
326,35.456,-97.49,340.4,20.331,3,334,-0.519,-0.682,9.224,0
327,35.456,-97.49,340.4,20.701,3,333,-0.454,-0.753,9.799,1
328,35.456,-97.49,340.8,20.992,3,333,-0.379,-0.939,9.781,0
329,35.456,-97.49,340.8,21.162,3,332,-0.293,-0.674,9.366,0
330,35.457,-97.49,340.8,21.361,3,332,-0.133,-0.834,9.45,0
331,35.457,-97.49,340.5,21.391,3,331,-0.378,-0.749,9.446,0
332,35.457,-97.49,340.3,21.43,3,331,-0.409,-0.668,9.759,0
333,35.457,-97.491,340.4,21.49,3,331,-0.589,-0.838,9.686,0
334,35.457,-97.491,340.6,21.62,3,331,-1.083,-0.879,10.143,0
335,35.457,-97.491,340.8,21.96,3,331,-0.968,-0.969,9.551,0
336,35.458,-97.491,341,22.55,3,331,-1.118,-1.149,10.778,0
337,35.458,-97.491,340.9,23.101,3,332,-0.734,-0.981,8.974,0
338,35.458,-97.491,340.9,23.621,3,332,-1.261,-0.722,10.723,0
339,35.458,-97.491,340.9,24.081,3,332,-0.687,-0.248,10.034,0
340,35.458,-97.491,340.9,24.121,3,333,-0.517,-0.236,8.867,0
341,35.459,-97.491,340.7,23.951,3,333,-0.923,-0.68,10.63,0
342,35.459,-97.491,341,23.961,3,334,-1.102,-1.12,10.47,0
343,35.459,-97.491,341.2,24.181,3,334,-0.326,-0.117,9.027,0
344,35.459,-97.491,341.3,24.36,3,335,-1.04,-0.751,10.987,0
345,35.46,-97.492,341.8,24.221,3,335,-0.481,-0.867,10.33,0
346,35.46,-97.492,341.9,24.141,3,335,-0.365,-0.827,10.372,0
347,35.46,-97.492,341.7,24.11,3,335,-0.173,-1.029,8.873,0
348,35.46,-97.492,341.4,23.99,3,335,-0.376,-0.972,10.44,0
349,35.46,-97.492,340.7,23.92,3,336,-0.889,-0.784,9.65,0
350,35.461,-97.492,340.6,23.801,3,336,-1.06,-0.825,10.219,0
351,35.461,-97.492,340.7,24.111,3,336,-1.266,-0.537,9.625,0
352,35.461,-97.492,340.7,24.681,3,336,-1.009,-0.72,9.473,0
353,35.461,-97.492,340.6,25.25,3,336,-0.373,-2.183,9.616,0
354,35.461,-97.492,338.9,25.83,3,336,-0.418,-1.385,9.219,0
355,35.462,-97.492,335.5,26.35,3,337,0.131,-2.097,9.112,0
356,35.462,-97.493,331.4,26.68,3,337,-0.154,-1.936,9.812,0
357,35.462,-97.493,326.7,26.75,3,337,-0.296,-2.073,9.695,0
358,35.462,-97.493,319,26.75,3,337,-0.079,-1.878,9.566,0
359,35.463,-97.493,314.6,27.19,3,337,-0.273,-1.995,9.377,0
360,35.463,-97.494,310.5,27.65,3,337,-0.123,-2.346,10.141,0
361,35.463,-97.494,306.8,28.02,3,337,-0.139,-2.404,9.4,0
362,35.463,-97.494,302.8,28.38,3,337,-0.197,-2.307,9.248,0
363,35.463,-97.494,298.3,28.77,3,337,-0.353,-1.864,10.022,0
364,35.463,-97.495,295.5,29.05,3,337,-0.647,-0.29,9.925,0
365,35.463,-97.495,294.8,28.84,3,337,-0.396,-0.527,10.668,0
366,35.464,-97.495,295,28.54,3,338,-0.269,-0.073,9.984,0
367,35.464,-97.496,295.6,28.21,3,338,-0.557,-0.528,10.227,0
368,35.464,-97.496,296,28.03,3,339,0.054,-0.583,9.838,0
369,35.464,-97.496,296.1,27.69,3,339,0.155,-0.582,9.13,0
370,35.464,-97.496,296.2,27.25,3,340,0.069,-0.676,9.768,0
371,35.464,-97.497,296,26.81,3,340,0.048,-0.985,9.543,0
372,35.464,-97.497,296.1,26.4,3,340,-0.352,-0.536,10.075,0
373,35.464,-97.497,296.4,25.97,3,341,1.211,0.304,9.029,0
374,35.464,-97.497,297.3,25.25,3,341,-0.44,0.629,9.356,0
375,35.464,-97.498,300.5,24.74,3,341,-0.714,-0.353,9.626,0
376,35.465,-97.498,302.2,24.71,3,342,-0.914,-0.322,10.196,0
377,35.465,-97.498,305.1,24.84,3,342,-1.103,-0.26,9.392,0
378,35.465,-97.498,307.4,25.22,3,342,-0.693,-0.969,9.095,0
379,35.465,-97.498,308.4,25.71,3,342,-0.696,-0.182,9.649,0
380,35.465,-97.499,310.1,25.85,3,342,-0.368,-0.343,9.82,0
381,35.465,-97.499,311.4,25.89,3,343,-0.427,-0.046,10.081,0
382,35.465,-97.499,313.3,25.75,3,343,-0.065,-0.208,9.646,0
383,35.466,-97.499,314,25.34,3,343,-0.358,-0.128,9.968,0
384,35.466,-97.5,315.9,25.03,3,344,-0.252,0.107,10.007,0
385,35.466,-97.5,317.9,24.78,3,344,-0.106,-0.406,9.375,0
386,35.466,-97.5,319.6,24.52,3,345,-0.169,-0.233,9.478,0
387,35.466,-97.5,321.2,24.22,3,344,-0.574,-0.073,9.936,0
388,35.466,-97.5,323.1,23.89,3,345,-0.354,-0.031,9.244,0
390,35.467,-97.5,324.4,23.58,3,345,0.342,-1.447,8.677,0
391,35.467,-97.501,324.5,23.52,3,345,-0.289,-0.961,9.682,0
392,35.467,-97.501,324.3,23.571,3,345,-0.685,-0.816,9.616,0
393,35.467,-97.501,324.4,23.632,3,346,-0.72,-0.81,9.356,0
394,35.467,-97.501,324.6,23.842,3,346,-0.768,-1.023,9.362,0
395,35.468,-97.501,324.5,24.005,3,347,-0.59,-0.902,9.185,0
396,35.468,-97.501,324.4,24.128,3,348,-0.795,-1.01,9.65,0
397,35.468,-97.501,324.5,24.256,3,349,-0.964,-1.127,9.34,0
398,35.468,-97.502,324.4,24.426,3,350,-0.767,-1.124,9.861,0
399,35.468,-97.502,324,24.627,3,351,-0.769,-1.145,9.935,0
400,35.468,-97.502,323.7,24.945,3,352,-0.755,-1.148,9.743,0
401,35.469,-97.502,323.3,25.054,3,352,-0.848,-1.164,9.679,0
402,35.469,-97.502,323,25.353,3,353,-0.913,-0.937,9.569,0
403,35.469,-97.502,322.9,25.633,3,354,-0.763,-1.073,9.335,0
404,35.469,-97.503,322.6,25.942,3,354,-0.669,-1.177,9.389,0
405,35.469,-97.503,322.1,26.252,3,354,-0.671,-1.277,9.495,0
406,35.47,-97.503,321.7,26.562,3,355,-0.502,-1.29,9.449,0
407,35.47,-97.503,321.5,26.861,3,356,-0.675,-1.163,9.444,1
408,35.47,-97.503,321.2,27.171,3,351,-0.519,-0.867,9.017,1
409,35.47,-97.503,321,27.501,3,353,-0.713,-1.142,9.577,1
410,35.47,-97.504,320.7,27.88,3,351,-0.685,-0.943,9.264,1
411,35.47,-97.504,320.5,28.29,3,353,-0.579,-1.027,9.412,1
412,35.471,-97.504,320.5,28.69,3,354,-0.621,-1.004,9.51,1
413,35.471,-97.504,320.4,29.11,3,354,-0.774,-0.747,9.601,1
414,35.471,-97.505,320.3,29.54,3,355,-0.606,-0.843,9.571,1
415,35.471,-97.505,320.4,29.94,3,355,-0.254,-0.666,9.69,0
416,35.472,-97.505,320.6,30.2,3,355,-0.353,-0.715,9.842,0
417,35.472,-97.505,320.7,30.04,3,355,0.571,-1.034,9.456,0
418,35.472,-97.505,320.5,29.76,3,355,-0.117,-0.717,10.395,0
419,35.472,-97.506,320.6,29.51,3,355,0.134,-0.543,9.084,0
420,35.472,-97.506,320.5,29.251,3,355,0.191,-0.735,9.215,0
421,35.473,-97.506,320.5,29.091,3,355,0.135,-0.76,9.604,0
422,35.473,-97.506,320.4,29.201,3,355,0.065,-0.644,9.938,0
423,35.473,-97.506,320.1,28.923,3,354,-0.134,-0.656,9.912,0
424,35.473,-97.507,320.4,29.015,3,353,0.038,-0.909,10.528,0
425,35.473,-97.507,320.5,29.076,3,352,-0.09,-0.6,9.521,0
426,35.474,-97.507,320.6,29.076,3,351,-0.129,-0.508,9.537,0
427,35.474,-97.507,321.5,29.112,3,350,-0.122,-0.51,9.732,0
428,35.474,-97.508,321.7,28.851,3,350,-0.426,-0.295,9.981,0
429,35.474,-97.508,323.3,28.761,3,350,-0.751,-0.084,10.224,0
430,35.475,-97.508,325.5,28.9,3,350,-1.002,0.018,10.003,0
431,35.475,-97.508,328.3,29.09,3,350,-0.86,-0.086,9.708,0
432,35.475,-97.508,329.8,29.03,3,350,-0.616,-0.046,9.708,0
433,35.475,-97.508,331.8,28.93,3,349,-0.803,0.064,9.479,0
434,35.475,-97.509,333.7,29.03,3,348,-0.636,-0.261,9.644,0
435,35.476,-97.509,335.4,29.24,3,348,-0.8,-0.004,9.424,0
436,35.476,-97.509,337.3,29.521,3,347,-0.847,0.09,9.481,0
437,35.476,-97.509,339.5,29.852,3,346,-0.7,-0.027,9.917,0
438,35.476,-97.509,341.4,29.961,3,345,-0.508,0.188,9.682,1
439,35.477,-97.509,343.7,29.881,3,345,-0.472,0.239,9.676,1
440,35.477,-97.509,345.8,29.862,3,344,-0.538,-0.043,10.044,0
441,35.477,-97.509,347.5,29.871,3,343,-0.415,-0.235,9.946,0
442,35.478,-97.509,349,29.89,3,343,-0.673,0.202,9.92,0
443,35.478,-97.509,351.3,29.8,3,343,-0.482,0.148,9.997,0
444,35.478,-97.509,351.9,28.92,3,343,-0.63,-0.198,10.084,0
445,35.478,-97.509,355.7,29.531,3,343,-0.54,-0.288,9.533,0
446,35.479,-97.509,356.4,29.35,3,343,-0.371,-0.525,9.796,0
447,35.479,-97.509,357,29.081,3,345,-0.181,-0.499,10.013,0
448,35.479,-97.51,356.9,28.631,3,344,-0.212,-0.779,9.652,0
449,35.479,-97.51,356.7,28.391,3,344,-0.322,-0.816,9.773,0
450,35.48,-97.51,356.8,28.311,3,344,-0.246,-0.586,9.422,0
451,35.48,-97.51,356.7,28.28,3,344,-0.544,-0.629,9.298,0
452,35.48,-97.51,356.3,28.28,3,343,-0.349,-0.952,9.708,0
453,35.48,-97.51,355.2,28.37,3,343,-0.133,-1.094,9.412,0
454,35.481,-97.51,354,28.42,3,343,-0.213,-0.856,9.434,0
456,35.481,-97.51,353.6,28.49,3,343,-0.33,-0.84,9.427,1
457,35.481,-97.51,353.1,28.55,3,343,-0.384,-0.79,9.538,1
458,35.481,-97.51,352.6,28.64,3,343,-0.271,-0.889,9.513,1
459,35.482,-97.51,351.9,28.68,3,343,-0.219,-0.832,9.669,1
460,35.482,-97.51,351.2,28.54,3,343,-0.201,-0.526,9.782,1
461,35.482,-97.51,350.5,28.4,3,343,-0.224,-0.824,9.962,0
462,35.482,-97.51,349.7,28.9,3,343,-0.336,-0.883,9.685,0
463,35.483,-97.51,349,28.11,3,344,-0.355,-0.795,10.004,0
464,35.483,-97.51,348,28.062,3,345,-0.5,-0.778,9.789,0
465,35.483,-97.51,347.4,27.895,3,346,-0.396,-0.684,9.574,0
466,35.483,-97.51,347,27.646,3,347,-0.468,-0.669,9.647,0
467,35.484,-97.51,346.5,27.456,3,348,-0.556,-0.722,9.962,0
468,35.484,-97.51,346.5,27.275,3,349,-0.588,-0.461,9.791,0
469,35.484,-97.51,346.8,27.067,3,350,-0.756,-0.498,9.704,0
470,35.484,-97.51,347.5,26.946,3,351,-0.667,-0.619,9.468,0
471,35.485,-97.511,348.3,26.846,3,351,-0.654,-0.294,9.239,0
472,35.485,-97.511,349.3,26.746,3,352,-0.488,-0.518,9.272,0
473,35.485,-97.511,350,26.607,3,353,-0.633,-0.424,9.664,0
474,35.485,-97.511,350.9,26.467,3,353,-0.741,-0.482,9.467,0
475,35.486,-97.511,351.7,26.306,3,354,-0.36,-0.455,9.462,0
476,35.486,-97.511,353.1,26.256,3,355,-0.684,-0.581,10.15,0
477,35.486,-97.511,353.8,25.996,3,355,-0.573,-0.381,9.741,0
478,35.486,-97.511,354.6,25.736,3,356,-0.585,-0.446,9.366,0
479,35.486,-97.511,355.2,25.335,3,356,-0.694,-0.208,9.743,0
480,35.487,-97.511,356,25.095,3,356,-0.749,-0.495,9.462,0
481,35.487,-97.511,357,25.063,3,357,-0.518,-0.642,8.971,0
482,35.487,-97.511,358,25.182,3,357,-0.626,-0.651,9.691,0
483,35.487,-97.511,358.6,25.39,3,357,-0.689,-0.806,9.526,0
484,35.488,-97.511,359.2,25.651,3,358,-0.774,-0.612,9.665,1
485,35.488,-97.511,0.1,25.9,3,359,-0.399,-0.775,9.486,1
486,35.488,-97.511,0.4,26.14,3,358,-0.423,-0.489,9.657,1
487,35.488,-97.511,0.3,26.08,3,358,-0.553,-0.836,10.025,0
488,35.489,-97.511,0.4,26.17,3,358,-0.595,-0.762,9.424,0
489,35.489,-97.511,0.1,26.42,3,357,-0.579,-0.606,9.935,0
490,35.489,-97.511,359.8,26.64,3,357,-0.618,-0.747,9.732,0
491,35.489,-97.511,359.2,26.9,3,357,-0.165,-1.351,9.235,0
492,35.49,-97.511,357.4,27.09,3,356,-0.35,-1.249,9.856,0
493,35.49,-97.511,354.9,27.32,3,356,-0.481,-1.326,9.506,0
494,35.49,-97.511,353.3,27.67,3,356,-0.511,-1.184,8.574,0
495,35.49,-97.511,351.6,28.22,3,356,-0.681,-1.035,8.894,0
496,35.491,-97.511,349.9,28.79,3,356,-0.671,-1.359,9.428,0
497,35.491,-97.511,348.4,29.39,3,356,-0.537,-1.198,9.444,0
498,35.491,-97.511,346.7,29.98,3,355,-0.876,-1.364,10.045,0
499,35.492,-97.511,343.3,31.04,3,355,-0.472,-1.699,10.079,0
500,35.492,-97.512,341.2,31.27,3,355,0.26,-1.351,9.204,0
501,35.492,-97.512,339.3,31.1,3,355,-0.015,-1.023,9.782,0
502,35.492,-97.512,337.8,30.89,3,354,0.235,-1.159,9.473,0
503,35.493,-97.512,336.2,30.741,3,354,-0.256,-0.92,10.108,0
504,35.493,-97.512,335.2,30.57,3,354,0.036,-0.748,9.909,0
505,35.493,-97.512,334.8,30.3,3,353,0.017,-0.576,9.586,0
506,35.493,-97.512,334.6,30.071,3,352,-0.111,-0.38,9.936,0
507,35.494,-97.512,334.9,29.871,3,352,-0.064,-0.413,9.738,0
508,35.494,-97.513,336,29.662,3,351,0.077,0.051,8.883,0
509,35.494,-97.513,337.4,29.535,3,350,0.194,-0.43,9.41,0
510,35.494,-97.513,338.1,29.475,3,350,-0.015,-0.539,9.73,0
511,35.495,-97.513,338.9,29.426,3,349,-0.22,-0.143,9.692,0
512,35.495,-97.513,340.2,29.346,3,348,-0.399,0.097,9.77,0
513,35.495,-97.513,342.2,29.317,3,347,-0.082,-0.151,9.998,0
514,35.495,-97.513,343.8,29.266,3,346,-0.134,0.113,9.889,0
515,35.496,-97.513,345.4,29.227,3,345,-0.462,0.061,10.153,0
516,35.496,-97.513,347.2,29.176,3,344,-0.276,0.073,9.796,0
517,35.496,-97.513,349,29.167,3,343,-0.245,0.084,9.435,0
518,35.496,-97.514,350.5,29.166,3,342,-0.169,0.084,9.84,0
519,35.497,-97.514,351.9,29.126,3,342,-0.279,0.129,9.482,0
520,35.497,-97.514,353.5,29.117,3,343,0.059,-0.204,9.917,0
521,35.497,-97.514,355.4,28.967,3,341,1.049,0.161,10.806,0
522,35.497,-97.514,357,27.795,3,340,0.492,-0.059,10.04,0
523,35.498,-97.514,357.8,27.046,3,339,0.026,-0.615,9.557,0
524,35.498,-97.514,358,27.076,3,338,-0.012,-0.512,9.68,0
525,35.498,-97.514,358,27.126,3,337,-0.075,-0.604,9.771,0
526,35.498,-97.514,358,27.155,3,336,-0.064,-0.785,9.559,0
527,35.499,-97.514,358.1,27.123,3,339,-0.218,-0.894,9.711,0
528,35.499,-97.514,358,27.221,3,337,-0.481,-0.708,9.786,0
530,35.499,-97.514,358.1,27.531,3,335,-0.429,-1.01,9.671,0
531,35.499,-97.514,358,27.76,3,334,-0.427,-0.84,9.705,0
532,35.5,-97.514,358.1,27.88,3,334,-0.51,-0.751,9.555,0
533,35.5,-97.514,358.1,28.1,3,333,-0.681,-1.024,9.57,0
534,35.5,-97.514,358.1,28.46,3,337,-0.709,-1.038,9.658,0
535,35.5,-97.514,358.1,28.82,3,335,-0.653,-0.831,9.322,0
536,35.501,-97.514,358.1,29.17,3,334,-0.564,-0.914,9.295,1
537,35.501,-97.514,358,29.43,3,333,-0.178,-0.721,9.871,1
538,35.501,-97.514,358,29.24,3,333,-0.193,-0.562,9.751,1
539,35.501,-97.514,358.1,28.99,3,332,-0.057,-0.757,9.627,1
540,35.502,-97.514,358.3,28.68,3,332,-0.079,-0.732,9.901,1
541,35.502,-97.514,358.2,28.38,3,332,-0.035,-0.866,9.629,0
542,35.502,-97.514,358.1,28.09,3,332,-0.066,-0.697,9.659,0
543,35.502,-97.514,357.9,27.8,3,332,-0.143,-0.676,9.697,0
544,35.503,-97.514,358,27.51,3,333,-0.1,-0.74,9.802,0
545,35.503,-97.514,358,27.22,3,333,-0.018,-0.593,9.409,0
546,35.503,-97.514,358,26.93,3,333,-0.027,-0.679,9.566,0
547,35.503,-97.514,358,26.63,3,332,-0.064,-0.619,9.773,0
548,35.504,-97.514,358.3,26.23,3,332,0.001,-0.763,9.763,1
549,35.504,-97.514,358.3,25.991,3,332,-0.483,-0.766,9.584,1
550,35.504,-97.514,358.5,25.93,3,332,-0.415,-1,10.067,0
551,35.504,-97.514,358.4,26,3,333,-0.303,-0.783,9.776,0
552,35.505,-97.514,357.7,25.99,3,333,-0.351,-0.557,9.691,0
553,35.505,-97.514,357.1,25.86,3,332,-0.445,-0.446,9.614,0
554,35.505,-97.514,356.9,25.73,3,333,-0.207,-0.432,9.801,0
555,35.505,-97.514,356.3,25.54,3,333,-0.279,-0.498,9.65,0
556,35.505,-97.514,355.4,25.33,3,333,-0.344,-0.806,9.718,0
557,35.506,-97.514,354.4,25.31,3,332,-0.366,-0.594,9.564,0
558,35.506,-97.514,353.1,25.34,3,332,-0.39,-0.53,9.669,0
559,35.506,-97.514,352.2,25.35,3,332,-0.432,-0.34,9.676,1
560,35.506,-97.514,352.1,25.47,3,332,-0.171,-0.486,9.598,1
561,35.507,-97.514,352.4,25.35,3,332,-0.111,-0.696,9.962,1
562,35.507,-97.514,352.4,25.12,3,332,-0.173,-0.811,9.727,0
563,35.507,-97.514,352,24.83,3,332,-0.265,-0.568,9.432,0
564,35.507,-97.514,351.9,24.67,3,332,-0.221,-0.688,9.854,0
565,35.508,-97.514,352.2,24.47,3,332,-0.094,-0.613,9.594,0
566,35.508,-97.514,352.3,24.22,3,332,-0.234,-0.788,9.408,0
567,35.508,-97.514,352.3,24.11,3,333,-0.123,-0.712,9.545,0
568,35.508,-97.514,352.2,23.93,3,333,-0.158,-0.554,10.002,0
569,35.509,-97.515,352.2,23.421,3,333,-0.127,-0.705,9.966,0
570,35.509,-97.515,352,23.18,3,332,0.001,-0.766,9.722,0
571,35.509,-97.515,351.8,22.971,3,332,-0.295,-0.877,9.595,0
572,35.509,-97.515,351.9,23.181,3,332,-0.758,-0.926,9.53,0
573,35.509,-97.515,352.1,23.862,3,331,-0.811,-1.012,9.425,0
574,35.51,-97.515,352.1,24.662,3,330,-0.764,-1.037,9.163,0
575,35.51,-97.515,352.2,25.453,3,330,-0.883,-0.994,9.417,0
576,35.51,-97.515,352.2,26.093,3,330,-0.377,-0.836,9.64,0
577,35.51,-97.515,352.1,26.183,3,331,-0.333,-0.958,10.015,0
578,35.511,-97.515,351.7,26.352,3,330,-0.139,-0.712,9.723,0
579,35.511,-97.515,351.6,26.332,3,329,-0.209,-0.338,9.88,0
580,35.511,-97.515,351.6,26.372,3,328,-0.58,-0.137,9.989,0
581,35.511,-97.515,351.7,26.572,3,328,-0.514,-0.48,9.365,0
582,35.512,-97.515,350.6,26.952,3,327,-0.272,-0.838,9.425,0
583,35.512,-97.515,348.5,27.162,3,327,0.132,-0.948,9.527,0
584,35.512,-97.515,346.5,26.932,3,326,-0.179,-0.563,9.804,0
585,35.512,-97.515,345.3,26.701,3,326,-0.318,-0.386,9.737,0
586,35.512,-97.515,345.1,26.751,3,325,-0.656,-0.425,9.845,0
587,35.513,-97.515,345.3,27.17,3,328,-0.798,-0.506,9.851,0
588,35.513,-97.515,345.8,27.5,3,326,-0.611,-0.53,9.446,0
589,35.513,-97.516,346.3,27.901,3,325,-0.591,-0.429,9.724,0
590,35.513,-97.516,346.6,28.07,3,324,-0.036,-0.774,9.772,0
591,35.514,-97.516,346.2,27.78,3,323,-0.02,-0.577,9.756,0
592,35.514,-97.516,345.5,27.45,3,323,0.135,-0.844,9.681,0
593,35.514,-97.516,345,27.13,3,322,-0.288,-0.492,9.539,1
594,35.514,-97.516,345.1,27,3,322,-0.274,-0.571,9.577,1
595,35.515,-97.516,345.2,27.01,3,321,-0.444,-0.797,9.492,1
596,35.515,-97.516,344.9,27.08,3,321,-0.307,-0.688,9.17,1
597,35.515,-97.516,345,27.15,3,320,-0.562,-0.954,9.623,1
598,35.515,-97.516,345.2,27.56,3,320,-0.687,-0.967,9.488,1
600,35.516,-97.516,345.1,28.12,3,320,-0.726,-1.13,9.347,1
601,35.516,-97.516,345.1,28.65,3,320,-0.387,-1.074,9.782,1
602,35.516,-97.516,344.9,28.84,3,319,-0.069,-0.897,9.531,1
603,35.516,-97.517,345.1,28.57,3,319,0.058,-0.614,9.856,1
604,35.517,-97.517,345.2,28.28,3,318,-0.091,-0.628,9.57,1
605,35.517,-97.517,345.4,27.85,3,318,1.128,-0.377,9.798,0
606,35.517,-97.517,345.3,26.631,3,317,0.395,-0.779,9.665,0
607,35.517,-97.517,344.6,26.071,3,317,0.057,-0.71,9.375,0
608,35.518,-97.517,344.3,25.751,3,322,0.551,0.908,9.887,0
609,35.518,-97.517,347.2,24.302,3,319,0.413,-0.602,9.891,0
610,35.518,-97.517,347.3,23.662,3,318,-0.136,-0.69,9.538,0
611,35.518,-97.517,347.5,23.671,3,317,-0.261,-0.32,9.82,0
612,35.518,-97.517,348.8,23.561,3,316,-0.447,-0.196,9.759,0
613,35.519,-97.517,351.1,23.631,3,315,-0.787,-0.793,9.556,0
614,35.519,-97.517,352.9,23.981,3,315,-1.525,-1.391,9.308,0
615,35.519,-97.517,353.4,25.44,3,314,-0.334,-0.696,9.015,0
616,35.519,-97.517,354.9,26.381,3,314,-0.511,0.251,9.222,0
617,35.519,-97.517,357.1,25.931,3,314,0.398,0.469,9.968,1
618,35.52,-97.517,0.1,25.251,3,320,-0.12,-0.072,10.096,0
619,35.52,-97.517,2.7,24.651,3,317,0.627,0.116,9.97,0
620,35.52,-97.517,4.4,24.011,3,315,0.076,-0.252,9.673,0
621,35.52,-97.517,6,22.891,3,314,-0.202,-0.268,9.564,0
622,35.521,-97.517,7.6,22.871,3,313,-0.481,-0.292,9.444,0
623,35.521,-97.517,9.6,22.85,3,313,-0.434,-0.278,9.552,0
624,35.521,-97.517,10,22.68,3,312,-0.393,-0.511,9.8,0
625,35.521,-97.517,13.4,22.88,3,312,-0.144,-0.591,9.817,0
626,35.521,-97.517,14.1,22.9,3,312,-0.127,-0.456,9.686,0
627,35.522,-97.517,14.8,22.65,3,311,-0.156,-0.696,9.804,0
628,35.522,-97.517,15.4,22.36,3,311,-0.036,-0.847,9.699,0
629,35.522,-97.517,15.9,22.17,3,310,-0.313,-0.836,9.493,0
630,35.522,-97.517,16,22.11,3,310,-0.891,-0.953,9.757,0
631,35.522,-97.517,17.1,22.344,3,311,-0.946,-0.763,9.667,0
632,35.523,-97.517,16.4,22.54,3,310,-0.82,-0.651,9.74,0
633,35.523,-97.516,16,24.29,3,310,-0.634,-0.637,9.718,0
634,35.523,-97.516,19.3,23.591,3,310,-0.333,-0.655,9.861,0
635,35.523,-97.516,20.2,23.362,3,311,-0.09,-0.657,9.035,0
636,35.523,-97.516,21.2,23.002,3,311,-0.273,-0.612,9.725,0
637,35.523,-97.516,22.2,22.633,3,312,-0.287,-0.689,9.873,0
638,35.524,-97.516,23.6,21.892,3,313,-0.447,-0.572,9.567,0
639,35.524,-97.516,24.2,21.821,3,313,-0.408,-0.614,9.596,0
640,35.524,-97.516,25.7,21.691,3,314,-0.825,-0.145,9.747,0
641,35.524,-97.516,27.7,21.881,3,314,-0.514,-0.589,9.847,0
642,35.525,-97.516,28.5,21.811,3,314,-0.388,-0.739,9.405,1
643,35.525,-97.515,29,21.841,3,315,-0.616,-0.605,9.622,1
644,35.525,-97.515,29.5,22,3,315,-0.487,-0.735,9.408,1
645,35.525,-97.515,29.5,22.04,3,316,-0.154,-0.819,9.757,1
646,35.525,-97.515,28.6,21.73,3,316,0.219,-1.322,9.47,1
647,35.525,-97.515,26.1,21.42,3,316,0.325,-1.589,9.444,1
648,35.526,-97.515,22.9,21.44,3,316,-0.101,-1.702,9.81,0
