time,lat,lng,bearing,spd,acc,alt,accx,accy,accz,stable,
0,35.272,-97.502,359.9,3.93,21.238,333,-3.4051,0.52344,9.0983,0
1,35.272,-97.502,359.3,4.55,19.721,333,-4.0181,0.56175,9.5005,0
2,35.272,-97.502,0.3,4.38,19.721,332,-3.5775,0.52344,8.945,0
3,35.272,-97.502,0,4.67,19.721,331,-3.4243,0.19783,9.5771,0
4,35.272,-97.502,3.1,4.41,19.721,332,-3.5201,0.12122,9.0983,0
5,35.272,-97.502,5.4,4.27,19.721,332,-3.635,0.044601,9.5963,0
6,35.272,-97.502,12.8,4.76,19.721,333,-3.7882,-0.14693,8.7535,0
7,35.272,-97.502,18,4.75,19.721,332,-3.9989,-0.85562,8.4087,0
8,35.272,-97.502,27.6,5.09,21.238,333,-3.8265,-0.12778,9.2323,0
9,35.272,-97.502,26.7,5.32,21.238,333,-3.5775,-0.20439,9.5771,0
10,35.272,-97.502,26.6,5.48,22.755,333,-3.4435,0.12122,9.3473,0
11,35.272,-97.502,28.1,6.19,22.755,334,-3.5967,-0.20439,8.6577,0
12,35.272,-97.502,31.6,6.03,22.755,334,-3.6924,-0.47255,8.9259,0
13,35.272,-97.502,31.9,5.91,24.272,335,-3.7116,-0.30016,9.4622,0
14,35.272,-97.502,36,5.82,22.755,333,-3.5967,-0.51085,9.1557,0
15,35.272,-97.502,37.8,5.34,21.238,336,-3.7308,-0.41508,9.5771,0
16,35.272,-97.502,33.1,5.67,21.238,335,-3.635,-0.62578,9.2515,0
17,35.272,-97.502,32.8,5.91,21.238,334,-3.5009,-0.45338,8.4662,0
18,35.272,-97.502,27.6,6.38,21.238,333,-3.7308,-0.43423,9.1366,0
19,35.273,-97.502,26.8,6.32,22.755,333,-3.7116,-0.30016,9.2132,0
20,35.273,-97.501,26,6.04,24.272,333,-3.635,-0.31932,10.018,0
21,35.273,-97.501,23.3,5.26,24.272,334,-3.8648,-0.35762,9.443,0
22,35.273,-97.501,21.5,6.07,24.272,334,-3.7308,-0.62578,9.2898,0
23,35.273,-97.501,19.4,7.03,22.755,336,-3.5201,-0.81731,9.0983,0
24,35.273,-97.501,21.7,6.21,22.755,339,-3.5009,-0.64493,9.1174,0
26,35.273,-97.501,18.7,6.19,22.755,337,-3.635,-0.75984,9.194,0
26,35.273,-97.501,18.7,6.19,22.755,337,-3.635,-0.75984,9.194,0
27,35.273,-97.501,13.6,5.22,21.238,337,-3.4435,-0.54916,9.3089,0
28,35.273,-97.501,11.3,4.81,21.238,335,-3.7499,-0.60661,9.4813,0
29,35.273,-97.501,7.9,5.87,24.272,333,-3.8265,-0.54916,9.5388,0
30,35.273,-97.501,4.8,5.75,22.755,334,-3.8648,-0.35762,8.9642,0
31,35.273,-97.501,358,6,22.755,333,-3.2136,-0.43423,8.8301,0
32,35.273,-97.501,0.6,6.12,21.238,335,-3.7499,-0.47255,10.094,0
33,35.273,-97.501,359.2,5.43,19.721,334,-2.6198,-0.60661,9.443,0
34,35.273,-97.501,357.3,4.62,19.721,332,-2.6965,0.19783,9.3473,0
35,35.273,-97.501,9.4,4.27,19.721,330,-3.3094,0.33191,9.06,0
36,35.273,-97.501,10.6,3.96,18.204,331,-3.884,1.213,8.945,0
37,35.273,-97.501,15.8,3.93,18.204,332,-2.4475,2.2473,9.5388,0
38,35.273,-97.501,37.7,4.09,18.204,332,-3.7691,1.845,8.5045,0
39,35.273,-97.501,65.1,3.78,16.687,332,-4.3054,-0.070313,8.1789,0
40,35.273,-97.501,71.6,3.95,16.687,332,-4.3437,-0.64493,9.1174,0
41,35.273,-97.501,82.4,4.48,16.687,331,-3.8457,-0.35762,9.0791,0
42,35.273,-97.501,86.5,5.25,16.687,331,-3.9606,-0.39594,9.0025,0
43,35.273,-97.501,88.9,6.26,16.687,331,-3.7116,-0.20439,9.2132,0
44,35.273,-97.501,86.6,6.13,16.687,331,-3.6733,-1.4877,8.1214,0
45,35.273,-97.501,87.6,6.04,16.687,331,-3.0987,-0.68323,8.562,0
46,35.273,-97.501,83.8,6.22,16.687,331,-3.6924,-0.54916,9.8644,0
47,35.273,-97.501,82.8,5.45,16.687,331,-2.1985,-0.53,8.313,0
48,35.273,-97.501,82.6,5.28,18.204,330,-3.3285,-0.51085,9.1366,0
49,35.273,-97.501,85.9,5.66,18.204,331,-1.5472,-0.33847,9.443,0
50,35.273,-97.501,86.3,4.92,18.204,331,-2.8497,-0.28101,9.4813,0
51,35.273,-97.501,82.5,4.15,18.204,331,-3.4243,-0.33847,10.841,0
52,35.273,-97.501,88.2,3.62,18.204,330,-4.8034,0.025452,8.4662,0
53,35.273,-97.501,84.2,2.64,18.204,330,-3.4243,0.27444,9.8644,0
54,35.273,-97.5,86.3,2.94,19.721,329,-2.9263,2.1323,8.696,0
55,35.273,-97.5,103.3,3.08,18.204,328,-3.1178,1.4428,9.3856,0
56,35.273,-97.5,111.4,3.28,19.721,323,-3.3668,1.462,9.2323,0
57,35.273,-97.5,127.3,3.09,19.721,323,-4.4969,-0.14693,8.2363,0
58,35.273,-97.5,168.7,2.71,18.204,325,-4.4586,-0.12778,9.4622,0
59,35.273,-97.5,170.6,3.84,18.204,325,-4.2862,-0.53,8.8301,0
60,35.273,-97.5,174,5.28,16.687,324,-3.4818,-0.66408,6.3593,0
61,35.273,-97.5,175.9,6.45,18.204,323,-3.8648,-0.58746,9.3089,0
62,35.273,-97.5,177.1,7.21,18.204,324,-3.6924,-0.66408,8.945,0
63,35.273,-97.5,176.2,7.86,18.204,321,-3.8265,-0.53,9.7112,0
64,35.273,-97.5,171,7.7,18.204,322,-3.6733,-0.91307,9.5388,0
65,35.273,-97.5,178.4,7.84,18.204,322,-3.7691,-0.64493,9.3089,0
66,35.273,-97.5,176,7.78,18.204,322,-3.7308,-0.089478,9.6154,0
67,35.273,-97.5,177.3,7.87,18.204,323,-4.0755,-0.26186,9.692,0
68,35.273,-97.5,177.6,7.95,18.204,323,-3.6541,0.15953,9.0983,0
69,35.273,-97.5,176.6,8.33,18.204,320,-3.2902,-0.77901,7.5277,0
70,35.273,-97.5,178.5,7.46,18.204,322,-3.5967,0.025452,9.1749,0
71,35.272,-97.5,179.1,7.64,19.721,321,-3.884,0.98312,9.558,0
72,35.272,-97.5,179.7,8.55,19.721,322,-3.7116,-0.58746,9.3664,0
73,35.272,-97.5,181.6,8.4,19.721,322,-3.8457,-0.77901,10.094,0
74,35.272,-97.5,183.5,8.46,19.721,322,-3.4435,-0.4917,8.9642,0
75,35.272,-97.5,180.7,8.55,19.721,324,-3.5967,-0.20439,9.9027,0
76,35.272,-97.5,179.5,8.51,19.721,323,-3.5392,-0.51085,10.018,0
77,35.272,-97.5,180.5,6.87,19.721,324,-3.8648,-0.032013,9.5771,0
78,35.272,-97.5,181.3,7.29,19.721,324,-3.1945,-0.41508,9.5005,0
79,35.272,-97.5,183,7.12,19.721,326,-3.1561,-0.14693,9.8452,0
80,35.272,-97.5,182.8,7.01,19.721,327,-3.3668,-0.45338,10.286,0
81,35.272,-97.5,186.4,6.73,19.721,326,-3.137,-0.051163,9.1557,0
82,35.272,-97.5,183.6,6.15,19.721,326,-3.3285,-0.41508,9.3089,0
83,35.272,-97.5,185.3,5.81,21.238,326,-2.3517,-0.43423,10.094,0
84,35.272,-97.5,188.3,5.5,22.755,327,-3.0412,-1.1429,8.0448,0
85,35.272,-97.5,186,4.55,22.755,325,-4.9374,0.025452,8.1789,0
86,35.272,-97.5,184.8,4.57,25.789,325,-3.386,0.42767,9.2132,0
87,35.272,-97.5,183.1,4.47,21.238,325,-3.5967,-0.87477,9.5388,0
88,35.272,-97.5,195.4,3.97,19.721,323,-3.3668,-1.9091,9.7303,0
89,35.271,-97.5,194.1,3.95,19.721,323,-3.137,-2.3304,9.6346,0
90,35.271,-97.5,159.2,2.82,19.721,323,-3.0987,-1.6792,9.3281,0
91,35.271,-97.5,132.6,3.42,19.721,322,-4.3437,-1.6409,8.0257,0
93,35.271,-97.5,100.4,3.64,19.721,321,-4.631,0.40852,9.1366,0
93,35.271,-97.5,100.4,3.64,19.721,321,-4.631,0.40852,9.1366,0
94,35.271,-97.5,82.7,4.26,18.204,319,-4.4011,-0.10863,8.5045,0
95,35.271,-97.5,82.2,5.03,19.721,318,-4.4011,-1.2962,9.2515,0
96,35.272,-97.5,84.7,5.63,19.721,318,-4.2671,-0.77901,9.06,0
97,35.271,-97.5,88,6.66,18.204,319,-4.2479,-0.56831,9.1557,0
98,35.271,-97.5,91.8,7.04,19.721,321,-3.884,-0.74069,8.6386,0
99,35.271,-97.5,90.2,7.27,19.721,321,-3.1561,-1.2195,9.2706,0
100,35.272,-97.5,88.1,7.2,19.721,320,-3.6733,-0.68323,9.3089,0
101,35.272,-97.5,89,7.27,21.238,320,-3.7308,-1.0855,9.5196,0
102,35.272,-97.499,91.6,7.27,19.721,319,-2.6582,-1.4877,7.8533,0
103,35.272,-97.499,89.2,7.38,19.721,319,-3.6158,-1.1812,9.1557,0
104,35.272,-97.499,83.6,7.64,19.721,320,-2.8688,-2.1198,8.5237,0
105,35.272,-97.499,78,7.61,19.721,319,-3.884,-1.1429,9.3664,0
106,35.272,-97.499,78.6,6.47,19.721,319,-3.6158,-0.56831,9.2898,0
107,35.272,-97.499,72.4,6.71,21.238,320,-3.6158,-1.0663,8.811,0
108,35.272,-97.499,66.3,7.06,21.238,320,-3.7499,-0.95139,8.4087,0
109,35.272,-97.499,61.9,7.08,19.721,321,-3.8074,-1.0855,9.443,0
110,35.272,-97.499,59.1,7.34,19.721,321,-3.0029,-1.3728,9.5196,0
111,35.272,-97.499,57.1,7.24,19.721,319,-3.7882,-0.89392,9.6729,0
112,35.272,-97.499,58.3,7.57,21.238,318,-4.0564,-1.1046,8.3321,0
113,35.272,-97.499,58.5,7.37,21.238,319,-3.884,-1.1621,9.9602,0
114,35.272,-97.499,51.8,6.62,21.238,319,-3.8457,-0.89392,10.535,0
115,35.272,-97.499,49.4,7.47,21.238,320,-3.6158,-1.1812,9.2706,0
116,35.272,-97.499,49.2,7.54,21.238,319,-3.4051,-0.51085,9.2132,0
117,35.272,-97.499,44.8,7.32,21.238,320,-3.3668,-0.31932,9.0983,0
118,35.272,-97.499,43.3,7.32,21.238,319,-2.9263,0.33191,9.8644,0
119,35.272,-97.498,45.3,6.99,19.721,318,-2.8497,-2.3113,9.1749,0
120,35.272,-97.498,50.9,6.18,19.721,318,-2.1985,-0.68323,9.443,0
121,35.272,-97.498,52,6.03,19.721,317,-2.9646,-0.60661,10.65,0
122,35.272,-97.498,51,4.94,19.721,316,-3.1561,-0.51085,7.8916,0
123,35.272,-97.498,56.6,4.29,18.204,317,-4.765,-0.81731,9.0217,0
124,35.272,-97.498,56.6,3.77,18.204,318,-3.2136,-0.74069,8.447,0
125,35.272,-97.498,53.7,4.57,18.204,319,-5.3013,-0.37677,8.5811,0
126,35.272,-97.498,57,4.39,19.721,320,-4.1713,-0.14693,9.1557,0
127,35.272,-97.498,51.2,4.75,19.721,321,-3.4243,0.29359,9.692,0
128,35.272,-97.498,53,5.26,19.721,320,-3.5201,-0.31932,9.8836,0
129,35.272,-97.498,56.7,5.88,19.721,320,-3.5392,-0.58746,8.7535,0
130,35.272,-97.498,69.2,6.06,19.721,320,-2.8305,-0.64493,8.3704,0
131,35.272,-97.498,81,6.79,18.204,321,-2.6965,-0.41508,8.5045,0
132,35.272,-97.498,85.1,6.85,19.721,322,-3.3094,-1.9091,8.9642,0
133,35.272,-97.498,86.9,6.5,19.721,323,-3.5775,-0.51085,9.692,0
134,35.272,-97.498,87,6.12,19.721,323,-3.3285,-1.4302,9.443,0
135,35.272,-97.498,88,6.51,18.204,323,-3.884,-0.64493,9.5005,0
136,35.272,-97.497,86.1,6.85,19.721,323,-3.6924,0.063751,9.8836,0
137,35.272,-97.497,87.8,6.92,21.238,323,-3.1178,-0.79816,9.9602,0
138,35.272,-97.497,86.8,6.07,21.238,323,-2.7156,0.81075,9.2898,0
139,35.272,-97.497,89.9,5.62,19.721,323,-3.0029,-0.95139,9.2898,0
140,35.272,-97.497,107.8,4.75,18.204,323,-3.3668,-1.0855,9.2132,0
141,35.272,-97.497,107.9,4.03,18.204,324,-3.7116,-1.6026,9.2323,0
142,35.272,-97.497,97.4,3.97,18.204,324,-4.0181,-1.3728,8.4854,0
143,35.272,-97.497,81,3.94,18.204,320,-3.7116,0.15953,8.7726,0
144,35.272,-97.497,79,4.34,18.204,320,-4.6884,0.31276,8.8301,0
145,35.272,-97.497,81.4,4.68,18.204,319,-4.9757,-0.43423,6.7998,0
146,35.272,-97.497,88.1,5.89,18.204,320,-3.884,-0.37677,9.0983,0
147,35.272,-97.497,85,6.62,18.204,321,-4.2671,0.17868,9.5196,0
148,35.272,-97.497,88.9,7.21,16.687,320,-3.9031,-0.98969,10.937,0
149,35.272,-97.497,93,7.09,16.687,321,-3.4051,-0.89392,8.6003,0
150,35.272,-97.497,91.9,7.11,16.687,322,-3.0604,-0.051163,9.2898,0
151,35.272,-97.497,88.8,7.19,16.687,322,-3.2328,-0.93224,9.1749,0
152,35.272,-97.496,94.1,7.19,16.687,320,-2.39,-0.10863,8.8876,0
153,35.272,-97.496,94.5,6.6,18.204,320,-2.1793,-1.277,8.8684,0
154,35.272,-97.496,94,6.49,19.721,320,-2.0452,-0.60661,10.975,0
155,35.272,-97.496,88.2,4.52,19.721,319,-3.4626,-0.53,9.6346,0
156,35.272,-97.496,88.8,3.93,21.238,319,-3.386,0.15953,9.4239,0
157,35.272,-97.496,103.5,3.18,21.238,320,-3.8074,-0.51085,9.194,0
158,35.272,-97.496,105.2,2.94,21.238,320,-4.8225,-1.1621,8.9259,0
159,35.272,-97.496,82.7,2.41,19.721,320,-3.8265,-0.95139,9.0408,0
160,35.272,-97.496,98.2,2.24,19.721,319,-4.3628,-0.95139,8.8301,0
161,35.272,-97.496,90.5,2.87,19.721,318,-4.1904,-0.64493,9.0025,0
163,35.272,-97.496,76.1,3.83,19.721,319,-4.0564,-0.4917,9.7303,0
163,35.272,-97.496,76.1,3.83,19.721,319,-4.0564,-0.4917,9.7303,0
164,35.272,-97.496,86.2,5.1,18.204,319,-4.3628,-0.47255,8.9067,0
165,35.272,-97.496,91.4,5.73,19.721,330,-4.3245,-0.43423,9.5963,0
166,35.272,-97.496,93,6.31,19.721,330,-3.4435,-1.3919,9.1557,0
167,35.272,-97.496,92.6,6.43,21.238,329,-3.2519,-0.83646,9.5963,0
168,35.272,-97.496,86.5,6.44,21.238,329,-2.4091,-2.7901,9.2132,0
169,35.272,-97.496,87.6,6.65,21.238,328,-2.9454,-0.39594,8.5045,0
170,35.272,-97.495,85.9,6.15,21.238,326,-3.0604,-0.91307,9.5005,0
171,35.272,-97.495,94.3,6.1,21.238,326,-3.3668,-1.8708,8.7152,0
172,35.272,-97.495,86.6,5.97,21.238,325,-3.386,-1.8516,9.5388,0
173,35.272,-97.495,83.1,6.3,19.721,324,-3.386,-1.1621,9.6729,0
174,35.272,-97.495,81.8,6.36,19.721,323,-1.6047,-0.91307,9.6154,0
175,35.272,-97.495,80.4,6.35,21.238,321,-3.1945,-0.58746,9.5388,0
176,35.272,-97.495,77.4,6.1,21.238,321,-4.3245,-0.43423,10.286,0
177,35.272,-97.495,63.9,3.46,19.721,322,-3.0987,-0.10863,6.3593,0
178,35.272,-97.495,58.4,4.49,18.204,321,-5.0524,-0.97054,8.5428,0
179,35.272,-97.495,56.5,4.92,18.204,321,-4.0181,-0.79816,8.8684,0
180,35.272,-97.495,56.6,5.39,18.204,319,-3.6733,-0.47255,9.6346,0
181,35.272,-97.495,58.8,5.64,18.204,319,-3.2711,-0.41508,8.7152,0
182,35.272,-97.495,57.6,5.63,18.204,319,-2.9454,0.81075,7.2021,0
183,35.273,-97.495,59.7,5.57,19.721,320,-3.5584,-0.18524,8.9642,0
184,35.273,-97.495,71.5,5.19,19.721,321,-3.6541,-0.54916,8.8684,0
185,35.273,-97.495,75.8,5.28,21.238,321,-2.6773,-0.31932,9.4239,0
186,35.273,-97.495,74.4,6.09,21.238,321,-1.8345,-0.47255,9.3664,0
187,35.273,-97.495,82.7,5.07,21.238,321,-2.9454,-0.56831,10.133,0
188,35.273,-97.494,90.2,4.71,21.238,321,-2.4666,-0.87477,9.06,0
189,35.273,-97.494,73.9,1.85,21.238,320,-2.888,-0.89392,10.056,0
190,35.273,-97.494,92.9,1.83,19.721,320,-2.639,-0.83646,9.8452,0
191,35.273,-97.494,91.8,1.49,19.721,320,-2.5432,-0.87477,9.7878,0
192,35.273,-97.494,92.6,1.34,18.204,320,-3.8457,-0.95139,9.1557,0
193,35.273,-97.494,138.4,0.73,18.204,320,-5.0715,-0.64493,8.4662,0
194,35.273,-97.494,92.6,0.77,18.204,321,-3.9798,0.31276,8.7343,0
195,35.273,-97.494,90.4,1.81,18.204,321,-4.1521,1.1364,8.7535,0
196,35.273,-97.494,120.8,2.59,19.721,325,-4.4969,1.6152,9.194,0
197,35.272,-97.494,143.5,4.03,18.204,324,-5.5695,-0.051163,7.6617,0
198,35.272,-97.494,146.1,4.57,18.204,322,-5.3397,-0.70239,8.4087,0
199,35.272,-97.494,152.5,5.17,19.721,322,-4.6118,-0.45338,5.0569,0
200,35.272,-97.494,175,8.47,18.204,322,-5.1673,-0.77901,7.9682,0
201,35.272,-97.494,176,8.66,19.721,320,-5.0715,0.0063019,9.5388,0
202,35.272,-97.494,176.9,10,19.721,319,-4.8034,-1.0089,9.0217,0
203,35.272,-97.494,180.6,10.85,22.755,322,-4.2862,-0.60661,9.443,0
204,35.272,-97.494,177.9,13.6,21.238,321,-4.2096,-1.0663,9.4239,0
205,35.272,-97.494,177.6,13.86,21.238,321,-3.7499,-1.7558,7.9682,0
206,35.272,-97.494,179.6,14.18,22.755,320,-3.9415,-1.1621,8.4854,0
207,35.271,-97.494,177.2,14.23,27.306,318,-3.9798,-1.2387,8.9067,0
208,35.271,-97.494,176.3,14.7,27.306,319,-3.9223,-1.028,9.3856,0
209,35.271,-97.494,181,13.9,30.34,319,-3.2711,-1.5452,9.3856,0
210,35.271,-97.494,178.7,13.33,33.374,321,-3.5775,-0.85562,9.2323,0
211,35.271,-97.494,176.9,13.28,36.408,321,-3.6158,-1.1238,9.2323,0
212,35.271,-97.494,175.4,13.21,39.442,322,-3.7308,-0.97054,10.152,0
213,35.271,-97.494,178.4,13.69,43.993,322,-3.4051,-1.4111,8.7343,0
214,35.271,-97.494,182.6,12.32,40.959,324,-3.5775,-1.2004,9.0408,0
215,35.27,-97.494,182.1,12.47,47.027,324,-3.6158,-1.0855,9.8069,0
216,35.27,-97.494,180.8,12.84,48.544,325,-3.5009,-0.56831,8.8876,0
217,35.27,-97.494,177.9,13.12,39.442,326,-3.8074,-0.64493,9.4047,0
218,35.27,-97.494,176.9,13.75,30.34,326,-3.7499,-1.0471,10.056,0
219,35.27,-97.494,176.8,13.71,30.34,325,-3.6158,-0.93224,9.3281,0
220,35.27,-97.494,181.2,13.46,25.789,324,-3.4818,-0.81731,8.0065,0
221,35.27,-97.494,181.6,13.31,27.306,323,-3.4243,-0.74069,10.094,0
222,35.27,-97.494,181.8,12.88,24.272,324,-3.5201,-0.28101,9.1366,0
223,35.269,-97.494,181.1,12.7,24.272,323,-3.5967,-1.028,10.42,0
224,35.269,-97.494,186.1,12.77,21.238,323,-3.7499,-1.8325,9.558,0
225,35.269,-97.494,186.2,12.65,21.238,324,-3.7116,-0.87477,8.9833,0
226,35.269,-97.494,177.8,12.18,21.238,324,-3.8648,-0.68323,8.6194,0
227,35.269,-97.494,177.3,12.26,22.755,324,-3.2711,-0.45338,9.3664,0
229,35.269,-97.494,176.8,12.13,22.755,324,-3.6158,-0.97054,8.3321,0
229,35.269,-97.494,176.8,12.13,22.755,324,-3.6158,-0.97054,8.3321,0
230,35.269,-97.494,180.9,12.6,21.238,325,-3.8074,-0.47255,9.2898,0
231,35.268,-97.494,180.7,12.34,22.755,324,-3.6924,-0.95139,9.1174,0
232,35.268,-97.494,180.6,12.36,24.272,324,-4.0755,0.38937,9.2323,0
233,35.268,-97.494,181.3,11.16,25.789,323,-3.6158,-0.95139,9.7686,0
234,35.268,-97.494,190.3,11.57,27.306,324,-3.8457,-1.3345,9.558,0
235,35.268,-97.494,192,11.62,28.823,323,-3.635,-0.64493,9.5963,0
236,35.268,-97.494,190.1,12.05,31.857,324,-3.5392,-1.2195,9.0217,0
237,35.268,-97.494,179.4,12.08,22.755,324,-4.0372,-0.98969,11.09,0
238,35.268,-97.494,179.3,12.04,22.755,324,-4.0372,-0.77901,8.6769,0
239,35.268,-97.494,180.1,11.14,24.272,324,-3.2136,-1.028,8.3513,0
240,35.268,-97.494,179.6,11.38,27.306,324,-2.7539,-2.1964,8.1214,0
241,35.267,-97.494,177.8,11.07,31.857,324,-3.4435,-1.1046,9.6154,0
242,35.267,-97.494,176.1,10.14,31.857,323,-3.635,-0.72154,8.9642,0
243,35.267,-97.494,179.1,11.41,31.857,325,-4.6884,-0.83646,9.558,0
244,35.267,-97.494,178.9,12.06,30.34,326,-4.9566,-0.60661,10.037,0
245,35.267,-97.494,180.6,13.12,25.789,325,-4.5352,-0.75984,9.1749,0
246,35.267,-97.494,181.5,13.75,24.272,324,-3.2136,-1.2387,7.7575,0
247,35.267,-97.494,178.9,14.66,28.823,325,-3.386,-0.47255,7.7,0
248,35.267,-97.494,182.1,15.14,31.857,327,-3.4243,-0.91307,8.2938,0
249,35.266,-97.494,184.7,14.75,33.374,326,-3.6541,-0.4917,11.301,0
250,35.266,-97.494,181.4,13.63,37.925,327,-3.8648,-1.0089,9.3664,0
251,35.266,-97.494,177.7,14.02,27.306,327,-3.6158,-1.2578,8.6769,0
252,35.266,-97.494,178.3,14.46,24.272,327,-3.7308,-1.1429,9.9219,0
253,35.266,-97.494,183.2,14.93,21.238,327,-2.7539,-0.79816,8.6386,0
254,35.266,-97.494,181.9,15.2,21.238,326,-3.7308,-0.97054,9.9793,0
255,35.266,-97.494,181.7,14.92,21.238,327,-3.5392,-0.43423,9.5388,0
256,35.265,-97.494,179.3,14,19.721,326,-3.5775,0.33191,9.0217,0
257,35.265,-97.494,180.2,13.97,19.721,327,-3.4051,-0.83646,9.7112,0
258,35.265,-97.494,180.3,13.86,19.721,327,-3.1753,-1.5068,8.7726,0
259,35.265,-97.494,180.3,13.68,21.238,328,-3.8457,-0.81731,9.558,0
260,35.265,-97.494,178.9,13.39,19.721,329,-3.6733,-1.6218,8.447,0
261,35.265,-97.494,179.3,13.62,19.721,327,-3.9606,-0.97054,9.6346,0
262,35.265,-97.494,179.3,13.34,19.721,328,-3.5009,-0.37677,8.5428,0
263,35.265,-97.494,180.1,13.45,19.721,328,-2.1602,-0.45338,9.1174,0
264,35.265,-97.494,180.2,12.66,18.204,328,-3.7691,-0.26186,10.171,0
265,35.264,-97.494,180.2,12.69,18.204,330,-3.0987,-0.85562,9.1366,0
266,35.264,-97.494,182.1,12.56,18.204,330,-3.3094,-1.277,8.9259,0
267,35.264,-97.494,183.5,12.45,16.687,329,-2.2751,-3.0966,8.6003,0
268,35.264,-97.494,184.3,12.05,16.687,329,-3.386,-0.4917,8.7918,0
269,35.264,-97.494,181.3,11.02,16.687,328,-3.4243,-1.1812,8.3896,0
270,35.264,-97.494,180.8,11.05,18.204,327,-4.0564,-1.6409,9.3856,0
271,35.264,-97.494,178.5,10.55,18.204,329,-4.2287,-0.93224,7.0488,0
272,35.264,-97.494,177.9,10.48,19.721,329,-5.9143,-1.7367,11.665,0
273,35.264,-97.494,179.4,11.08,21.238,330,-3.4435,-0.91307,8.2172,0
274,35.263,-97.494,179.9,11.24,21.238,330,-3.5009,-0.45338,8.696,0
275,35.263,-97.494,180.9,11.71,21.238,330,-3.4051,-1.1046,10.018,0
276,35.263,-97.494,180.7,12.15,21.238,331,-4.7459,-0.81731,8.7726,0
277,35.263,-97.494,174,10.85,21.238,330,-4.4011,-0.62578,10.554,0
278,35.263,-97.494,173.7,11.37,21.238,329,-3.8648,-0.33847,9.3664,0
279,35.263,-97.494,173.6,11.78,24.272,330,-3.4051,-0.87477,9.1557,0
280,35.263,-97.494,166.4,10.87,25.789,330,-2.7731,-0.74069,8.2747,0
281,35.263,-97.494,172.5,11.79,25.789,330,-3.4626,-0.47255,8.7343,0
282,35.263,-97.494,172,11.62,24.272,332,-3.6541,-0.089478,9.2323,0
283,35.263,-97.494,176.6,11.94,25.789,332,-2.2751,-1.2962,10.075,0
284,35.262,-97.494,178.1,11.34,24.272,333,-2.1027,-0.64493,9.9793,0
285,35.262,-97.494,179.9,11.05,21.238,333,-1.892,-0.4917,10.056,0
286,35.262,-97.494,183.4,10.24,21.238,333,-2.3325,-0.89392,10.707,0
287,35.262,-97.494,185.2,10.2,21.238,332,-1.2025,-0.41508,9.1366,0
288,35.262,-97.494,185.5,8,21.238,332,-1.7962,-0.58746,10.056,0
289,35.262,-97.494,203.4,6.23,21.238,334,-3.5967,-0.53,9.1366,0
290,35.262,-97.494,210.5,4.87,19.721,333,-3.7308,-0.58746,9.1366,0
291,35.262,-97.494,212.4,2.7,18.204,333,-3.7308,-0.60661,9.1174,0
292,35.262,-97.494,226.5,1,19.721,334,-3.7308,-0.47255,9.1174,0
293,35.262,-97.494,0,0,19.721,333,-3.7882,-0.62578,9.2323,0
294,35.262,-97.494,0,0,19.721,332,-3.5584,-0.41508,8.8684,0
296,35.262,-97.494,0,0,21.238,331,-3.7308,-0.54916,9.1366,0
296,35.262,-97.494,0,0,21.238,331,-3.7308,-0.54916,9.1366,0
298,35.262,-97.494,292.3,0.3,18.204,331,-4.0564,-0.75984,9.3664,0
298,35.262,-97.494,292.3,0.3,18.204,331,-4.0564,-0.75984,9.3664,0
299,35.262,-97.494,227.3,0.91,18.204,331,-3.6733,-0.51085,9.0983,0
301,35.262,-97.494,37.1,0.72,18.204,331,-3.5392,-0.41508,8.9833,0
301,35.262,-97.494,37.1,0.72,18.204,331,-3.5392,-0.41508,8.9833,0
303,35.262,-97.494,0,0,19.721,331,-3.7691,-0.56831,9.1749,0
303,35.262,-97.494,0,0,19.721,331,-3.7691,-0.56831,9.1749,0
304,35.262,-97.494,161,0.39,21.238,331,-5.9526,-0.54916,8.2747,0
305,35.262,-97.494,173.6,1.01,19.721,331,-6.5655,-0.53,7.0105,0
306,35.262,-97.494,176.5,3.52,18.204,332,-4.6501,-1.9474,9.1749,0
307,35.262,-97.494,176,4.62,19.721,333,-4.4203,-2.4645,9.5005,0
308,35.262,-97.494,155.9,7.11,18.204,334,-4.8991,-4.7821,9.692,0
309,35.262,-97.494,133.3,7.54,16.687,335,-4.2096,-4.1309,9.2898,0
310,35.262,-97.494,106,8.03,16.687,336,-5.0715,-1.3345,8.8301,0
311,35.262,-97.494,92.3,10.72,15.17,336,-5.6653,-1.3728,8.0257,0
312,35.262,-97.494,88.7,11.58,15.17,333,-4.7267,-1.0471,9.0791,0
313,35.262,-97.494,86.4,12.49,15.17,333,-4.8034,-0.18524,9.0217,0
314,35.262,-97.494,85.7,12.31,16.687,331,-4.0755,-0.54916,9.5005,0
315,35.262,-97.493,86.8,13.34,16.687,332,-3.7882,-0.53,8.5045,0
316,35.262,-97.493,85.8,13.89,18.204,332,-3.8074,-0.53,7.566,0
317,35.262,-97.493,85.1,14.91,19.721,333,-3.7116,-1.2387,9.6729,0
318,35.262,-97.493,89.2,15.48,18.204,332,-3.635,-1.1046,10.075,0
319,35.262,-97.493,90.6,16.51,18.204,331,-3.2328,-1.2004,9.4047,0
320,35.262,-97.493,90.7,16.25,18.204,331,-3.8265,-1.2387,9.5005,0
321,35.262,-97.492,92.5,17.17,18.204,330,-3.8265,-1.4111,9.8069,0
322,35.262,-97.492,93.8,17.14,18.204,329,-4.2479,-0.87477,8.7152,0
323,35.262,-97.492,92.6,18.36,18.204,328,-3.8648,-1.2387,9.6154,0
324,35.262,-97.492,91.1,18.31,18.204,329,-3.2711,-0.22354,8.6386,0
325,35.262,-97.491,91.2,17.88,18.204,328,-3.9031,-1.5643,10.611,0
326,35.262,-97.491,91.4,18.28,18.204,330,-3.8074,-0.83646,9.6346,0
327,35.262,-97.491,88.8,17.59,19.721,333,-3.3477,-0.72154,9.9219,0
328,35.262,-97.491,89.3,17.32,16.687,333,-3.2902,-1.3345,8.7726,0
329,35.262,-97.491,89.7,17.59,16.687,333,-3.2328,0.29359,7.7192,0
330,35.262,-97.491,87.6,16.04,18.204,333,-3.4051,-0.75984,7.7958,0
331,35.262,-97.49,90.1,16.06,18.204,333,-3.6541,-1.4302,9.3089,0
332,35.262,-97.49,90,15.96,18.204,332,-2.9646,-0.60661,7.3744,0
333,35.262,-97.49,91.2,16.8,18.204,332,-3.5584,0.12122,7.3361,0
334,35.262,-97.49,90.4,16.23,18.204,331,-4.5544,-2.024,8.064,0
335,35.262,-97.49,90.9,16.97,18.204,331,-3.7116,-1.1429,6.4167,0
336,35.262,-97.489,91.3,17.94,18.204,332,-3.8457,-1.4111,9.7303,0
337,35.262,-97.489,90.6,18.33,18.204,335,-4.3437,-1.2195,10.439,0
338,35.262,-97.489,90.1,17.96,16.687,334,-4.1713,-1.1046,9.7686,0
339,35.262,-97.489,89.6,18.23,16.687,335,-4.0181,-1.2578,11.243,0
340,35.262,-97.489,88.8,17.85,16.687,336,-3.4626,-0.53,9.6729,0
341,35.262,-97.488,87.7,17.45,18.204,336,-3.7308,-0.70239,10.228,0
342,35.262,-97.488,89.2,17.88,18.204,337,-3.3668,-0.62578,8.5045,0
343,35.262,-97.488,89.4,17.11,18.204,337,-3.7691,-1.1429,10.228,0
344,35.262,-97.488,89.2,16.74,18.204,337,-3.2328,-0.58746,9.9793,0
345,35.262,-97.488,89.3,16.7,16.687,336,-1.9303,-1.1238,10.113,0
346,35.262,-97.488,89.7,16.11,18.204,336,-1.0493,-0.60661,11.646,0
347,35.262,-97.487,90.6,14.62,16.687,336,-1.892,0.23615,9.2132,0
348,35.262,-97.487,89.2,10.79,16.687,334,-2.9263,2.0749,9.4622,0
349,35.262,-97.487,92.7,8.68,15.17,335,-3.1561,2.9368,9.0983,0
350,35.262,-97.487,111,7.85,15.17,335,-3.9606,2.209,8.1789,0
351,35.262,-97.487,112.7,8.24,15.17,337,-4.8034,2.7453,8.1789,0
352,35.262,-97.487,158.7,7.51,15.17,336,-5.7036,-0.4917,8.313,0
353,35.262,-97.487,164.3,7.99,15.17,337,-4.2096,-1.0663,9.8261,0
354,35.262,-97.487,171.5,9.34,16.687,336,-3.5584,-1.9665,10.19,0
355,35.261,-97.487,176.8,10.07,16.687,337,-1.892,-1.4877,9.2515,0
356,35.261,-97.487,174.7,10.13,16.687,337,-1.7005,-0.089478,10.171,0
358,35.261,-97.487,173.5,10.08,19.721,336,-1.5664,-0.18524,9.2323,0
358,35.261,-97.487,173.5,10.08,19.721,336,-1.5664,-0.18524,9.2323,0
359,35.261,-97.487,170.8,6.44,18.204,337,-2.0452,-0.56831,9.6346,0
360,35.261,-97.487,176.9,5.6,18.204,337,-1.4706,-0.83646,10.822,0
361,35.261,-97.487,200.7,3.7,18.204,337,-3.7499,-1.0663,9.3664,0
362,35.261,-97.487,198.1,2.52,18.204,338,-6.4889,-1.277,7.9299,0
363,35.261,-97.487,177.7,2.46,18.204,340,-6.0867,-2.5028,8.562,0
364,35.261,-97.487,169.3,5.25,16.687,341,-3.3668,-4.265,9.3856,0
365,35.261,-97.487,167.8,5.23,16.687,341,-4.0372,-4.3416,8.1406,0
366,35.261,-97.487,117.7,7.36,16.687,341,-5.0332,-3.0774,9.6346,0
367,35.261,-97.487,102.2,8.87,16.687,340,-4.5352,-1.2578,9.443,0
368,35.261,-97.487,100.8,10,16.687,339,-4.1138,1.4428,9.5196,0
369,35.261,-97.486,107.9,10.54,16.687,340,-3.7691,2.094,9.0217,0
370,35.261,-97.486,117.7,10.54,16.687,340,-4.4778,2.1707,9.0025,0
371,35.261,-97.486,119.6,10.95,16.687,340,-4.8034,2.4771,9.7303,0
372,35.261,-97.486,151.9,11.7,16.687,338,-4.4011,0.12122,8.2938,0
373,35.261,-97.486,151.8,11.97,16.687,339,-4.4586,0.044601,9.1749,0
374,35.26,-97.486,152.5,11.88,18.204,339,-4.88,-0.68323,8.5428,0
375,35.26,-97.486,166.6,14.64,18.204,338,-4.9949,-1.277,8.064,0
376,35.26,-97.486,166.7,14.92,19.721,338,-4.7842,-0.97054,8.6003,0
377,35.26,-97.486,165.9,14.7,21.238,338,-4.9374,-0.95139,8.811,0
378,35.26,-97.486,168.3,14.45,27.306,336,-4.7076,-1.2387,9.0983,0
379,35.26,-97.486,168.9,15.91,30.34,335,-4.8608,-1.1046,9.5388,0
380,35.26,-97.486,177.4,16.31,33.374,334,-4.5927,-1.2004,8.313,0
381,35.259,-97.486,176.6,19.18,40.959,332,-4.4011,-0.72154,8.0065,0
382,35.259,-97.486,176.5,20.17,47.027,333,-4.4011,-1.1812,8.7535,0
383,35.259,-97.486,173.8,22.21,43.993,331,-4.5352,-1.0089,9.6346,0
384,35.259,-97.486,175.1,24.25,42.476,332,-3.4243,-0.91307,9.8069,0
385,35.258,-97.486,169.8,26.28,39.442,332,-4.4969,0.044601,10.822,0
386,35.258,-97.486,170.7,27.12,37.925,333,-3.3094,0.37021,6.7424,0
387,35.258,-97.486,168.2,26.03,30.34,330,-5.7993,0.14037,11.492,0
388,35.258,-97.486,169.5,25.09,21.238,332,-4.0372,-0.41508,8.696,0
389,35.257,-97.486,175.7,26.84,19.721,333,-3.7308,-0.68323,8.5237,0
390,35.257,-97.486,177,27.17,18.204,332,-4.0947,-0.75984,9.1366,0
391,35.257,-97.486,178.1,27.32,18.204,332,-4.133,-0.64493,9.5196,0
392,35.257,-97.486,178.3,27.88,18.204,329,-3.9415,-1.2004,7.8533,0
393,35.256,-97.486,178.8,28.27,16.687,329,-4.0755,-1.3728,9.9602,0
394,35.256,-97.486,179.6,29.09,18.204,331,-4.1904,-0.85562,8.9642,0
395,35.256,-97.486,179.3,29.61,18.204,331,-3.9798,-0.53,8.8684,0
396,35.255,-97.486,179.3,30.12,16.687,331,-4.0564,-0.26186,8.3513,0
397,35.255,-97.486,179.1,30.65,16.687,332,-4.1904,-0.56831,9.2515,0
398,35.255,-97.486,178.5,30.3,16.687,331,-3.386,-0.75984,9.1174,0
399,35.255,-97.486,178.5,31.08,16.687,332,-3.5392,-1.4111,8.6577,0
400,35.254,-97.486,179.7,31.53,16.687,331,-4.3628,-1.8708,7.8724,0
401,35.254,-97.486,179.3,31.72,16.687,330,-4.5544,-1.3728,8.9833,0
402,35.254,-97.486,178.9,32.86,18.204,330,-3.3477,0.33191,9.5196,0
403,35.253,-97.486,177.6,33.44,18.204,331,-2.9454,-0.93224,9.4047,0
404,35.253,-97.486,178.4,33.44,18.204,330,-3.5584,-0.56831,9.4047,0
405,35.253,-97.486,179,33.36,19.721,332,-3.7691,-1.0089,10.343,0
406,35.253,-97.486,178.9,33.36,19.721,332,-3.6158,-0.68323,9.558,0
407,35.252,-97.486,179.3,32.81,19.721,329,-3.2328,-1.5835,8.4662,0
408,35.252,-97.486,180.4,32.85,19.721,328,-3.0221,-0.95139,8.198,0
409,35.252,-97.486,180.3,32.61,19.721,329,-3.2902,-1.5835,10.611,0
410,35.251,-97.486,180.4,32.11,19.721,328,-3.2136,-0.35762,8.313,0
411,35.251,-97.486,180.2,31.81,19.721,326,-3.8265,-0.91307,11.339,0
412,35.251,-97.486,180.3,31.68,19.721,327,-3.2328,-0.68323,10.152,0
413,35.251,-97.486,180.2,31.58,19.721,327,-3.2519,-0.68323,9.6154,0
414,35.25,-97.486,179.5,31.37,19.721,328,-3.3094,-0.89392,9.2132,0
415,35.25,-97.486,180,31.13,19.721,329,-3.3477,-0.77901,9.06,0
416,35.25,-97.486,180.5,30.61,19.721,329,-3.4435,-0.53,10.113,0
417,35.249,-97.486,179.9,29.95,18.204,329,-3.3094,-1.0855,9.9219,0
418,35.249,-97.486,180.4,29.93,18.204,330,-3.8648,-1.6792,10.573,0
419,35.249,-97.486,180,30.03,18.204,330,-3.4243,-1.5452,10.056,0
421,35.249,-97.486,180.6,29.4,18.204,330,-2.9072,-1.4494,8.0831,0
421,35.249,-97.486,180.6,29.4,18.204,330,-2.9072,-1.4494,8.0831,0
422,35.248,-97.486,180.4,29.5,18.204,329,-3.3477,-1.028,9.0025,0
423,35.248,-97.486,181.8,29.21,18.204,329,-3.1945,-0.70239,7.7,0
424,35.248,-97.486,180.1,27.82,19.721,328,-3.7116,-0.97054,9.558,0
425,35.247,-97.486,179.6,27.96,19.721,329,-3.6158,-1.0471,11.052,0
426,35.247,-97.486,179.2,27.95,19.721,330,-3.8074,-0.75984,9.941,0
427,35.247,-97.486,179.3,27.86,18.204,330,-4.1521,-1.0471,10.113,0
428,35.247,-97.486,180.6,28.22,18.204,329,-3.9031,-0.74069,8.696,0
429,35.246,-97.486,180.6,28.26,18.204,329,-4.3054,-0.30016,9.4622,0
430,35.246,-97.486,180.5,28.79,18.204,330,-4.0372,-0.54916,8.1406,0
431,35.246,-97.486,180.4,29.23,18.204,330,-3.8074,-1.2962,9.8452,0
432,35.246,-97.486,179.5,29.55,18.204,331,-3.9031,-0.91307,8.7152,0
433,35.245,-97.486,179.7,29.82,18.204,332,-4.0181,-0.16609,9.1366,0
434,35.245,-97.486,179.8,30.01,18.204,332,-3.3668,-0.87477,8.6194,0
435,35.245,-97.486,178.8,29.96,18.204,332,-3.7116,-0.56831,8.9642,0
436,35.244,-97.486,179.5,30.16,18.204,332,-4.0755,-0.85562,11.129,0
437,35.244,-97.486,180.1,29.69,16.687,334,-4.0947,-0.62578,10.286,0
438,35.244,-97.486,179.2,29.77,16.687,334,-3.7116,-1.1621,8.4087,0
439,35.244,-97.486,179.3,30.12,16.687,334,-3.3285,-1.0471,8.447,0
440,35.243,-97.486,180.2,30.08,16.687,334,-3.2902,-1.3345,8.1214,0
441,35.243,-97.486,180.5,29.98,16.687,334,-3.4435,-0.31932,7.5085,0
442,35.243,-97.486,180.3,29.99,16.687,334,-3.137,-0.66408,8.064,0
443,35.243,-97.486,180.7,30,16.687,334,-3.4243,-1.0089,9.3856,0
444,35.242,-97.486,181,29.81,16.687,333,-3.2711,-0.89392,6.953,0
445,35.242,-97.486,180.9,29.77,16.687,334,-3.8648,-0.45338,9.9027,0
446,35.242,-97.486,180.9,29.48,16.687,335,-3.6158,-0.58746,9.7686,0
447,35.241,-97.486,180.3,28.99,16.687,335,-3.6541,-0.31932,8.7343,0
448,35.241,-97.486,180.3,29.08,16.687,335,-3.9223,-0.47255,10.401,0
449,35.241,-97.486,180.1,28.92,16.687,335,-3.7882,-1.028,10.382,0
450,35.241,-97.486,178.4,28.85,16.687,335,-3.8265,-1.3536,8.7726,0
451,35.24,-97.486,179.8,29.03,16.687,334,-4.0564,-0.39594,9.5388,0
452,35.24,-97.486,180,29.54,16.687,334,-3.7308,-0.39594,8.6769,0
453,35.24,-97.486,179.7,29.77,16.687,335,-4.382,-0.87477,10.803,0
454,35.24,-97.486,178.2,29.9,16.687,335,-3.7882,-1.1621,8.1023,0
455,35.239,-97.486,179,30.01,16.687,334,-4.0947,-0.93224,9.8069,0
456,35.239,-97.486,180,30.74,18.204,334,-3.9223,-1.028,8.4854,0
457,35.239,-97.486,179.3,31.16,16.687,335,-4.0947,-0.51085,9.1174,0
458,35.239,-97.486,179.1,31.26,16.687,335,-3.7691,-0.72154,8.0448,0
459,35.238,-97.486,179.1,31.38,16.687,335,-4.0372,-0.98969,9.2132,0
460,35.238,-97.486,179.9,31.79,18.204,334,-3.7882,-1.2004,9.2898,0
461,35.238,-97.486,179.3,32.18,16.687,335,-3.4243,-1.0663,7.8533,0
462,35.237,-97.486,179.6,32.36,16.687,334,-3.2711,-1.1046,7.6043,0
463,35.237,-97.486,179.6,32.26,18.204,335,-3.6733,-0.77901,8.9833,0
464,35.237,-97.486,180.6,32.33,18.204,334,-3.2328,-0.77901,7.9491,0
465,35.236,-97.486,180.7,32.2,18.204,333,-3.6733,-0.74069,10.228,0
466,35.236,-97.486,180.6,31.89,18.204,333,-3.137,-0.89392,8.1023,0
467,35.236,-97.486,179.6,31.85,18.204,333,-3.6158,-0.95139,9.0983,0
468,35.236,-97.486,180.3,31.52,18.204,333,-3.7499,-0.72154,10.343,0
469,35.235,-97.486,180,31.75,18.204,334,-3.6158,-1.2195,8.9259,0
470,35.235,-97.486,179.6,31.71,18.204,334,-3.7116,-0.74069,11.148,0
471,35.235,-97.486,179.8,31.47,18.204,336,-4.0372,-0.74069,10.707,0
472,35.235,-97.486,181,31.46,16.687,334,-3.4243,-1.4111,8.7152,0
473,35.234,-97.486,180.9,31.8,16.687,334,-4.0755,-0.35762,10.975,0
474,35.234,-97.486,180.6,31.87,16.687,333,-3.4626,-0.66408,8.5237,0
475,35.234,-97.486,179.6,31.68,16.687,334,-3.9606,-0.91307,10.554,0
476,35.233,-97.486,179.7,31.64,16.687,334,-3.8265,-0.79816,9.7495,0
477,35.233,-97.486,179.5,31.37,18.204,333,-3.5201,-1.3153,7.4319,0
478,35.233,-97.486,180.7,31.41,18.204,333,-3.5392,-0.83646,10.056,0
479,35.233,-97.486,179.6,31.78,18.204,334,-3.6158,-0.83646,10.439,0
480,35.232,-97.486,181.4,31.65,18.204,334,-3.8648,-0.93224,9.8836,0
481,35.232,-97.486,181.7,31.67,18.204,333,-3.4818,-0.68323,10.573,0
482,35.232,-97.486,180.1,31.22,18.204,333,-3.0795,-0.77901,7.8724,0
483,35.231,-97.486,179.4,31.42,18.204,332,-3.8074,-1.1046,10.228,0
484,35.231,-97.486,179.8,31.08,18.204,331,-2.9838,-0.60661,6.8956,0
485,35.231,-97.486,179.6,30.97,16.687,331,-3.2136,-0.85562,9.2515,0
486,35.231,-97.486,180.2,30.97,16.687,331,-3.2328,-0.60661,9.8261,0
487,35.23,-97.486,179.6,30.53,16.687,332,-3.0795,-0.81731,8.447,0
488,35.23,-97.486,178.8,30.36,16.687,331,-3.7116,-0.30016,11.78,0
489,35.23,-97.486,179.7,30.48,18.204,331,-3.0412,-1.4111,9.558,0
491,35.229,-97.486,179.7,30.13,18.204,331,-3.5584,-0.16609,8.9642,0
491,35.229,-97.486,179.7,30.13,18.204,331,-3.5584,-0.16609,8.9642,0
492,35.229,-97.486,181.6,29.66,19.721,330,-3.2902,-0.98969,8.6577,0
493,35.229,-97.486,180.4,29.31,18.204,329,-3.5009,-0.97054,10.382,0
494,35.228,-97.486,179.3,29.22,18.204,329,-2.9646,-0.60661,7.2787,0
495,35.228,-97.486,177.1,28.03,18.204,329,-3.4243,-0.72154,9.0217,0
496,35.228,-97.486,178.4,28.34,18.204,330,-3.2328,-0.77901,9.1749,0
497,35.228,-97.486,179.5,28.33,18.204,328,-3.7116,-0.85562,10.956,0
498,35.227,-97.486,179.5,28.44,18.204,328,-3.5584,-1.1429,11.071,0
499,35.227,-97.486,178.6,28.46,18.204,329,-3.1945,-0.26186,7.2787,0
500,35.227,-97.486,177.6,28.09,18.204,330,-3.5201,-1.2004,9.5196,0
501,35.227,-97.486,178.3,27.71,16.687,330,-4.4203,-1.3345,10.956,0
502,35.226,-97.486,179.2,27.89,16.687,330,-3.6924,-0.75984,7.815,0
503,35.226,-97.486,180.8,27.36,16.687,330,-3.7116,-1.0663,7.8724,0
504,35.226,-97.486,181,27.88,18.204,330,-3.4818,-0.85562,8.9642,0
505,35.226,-97.486,178.4,27.88,18.204,330,-3.4243,-1.3728,8.945,0
506,35.225,-97.486,178.5,27.97,18.204,330,-3.8074,-0.70239,10.765,0
507,35.225,-97.486,179,27.75,16.687,330,-3.2902,-0.85562,9.2515,0
508,35.225,-97.486,180,27.62,16.687,329,-3.2328,-1.2962,8.945,0
509,35.225,-97.486,180.2,27.68,18.204,329,-2.5432,-1.1238,7.1446,0
510,35.224,-97.486,181.2,27.05,18.204,329,-3.5009,-0.53,8.9833,0
511,35.224,-97.486,179.9,27.13,18.204,327,-3.2328,-0.60661,8.7343,0
512,35.224,-97.486,179.9,27.18,18.204,326,-3.635,-0.93224,9.4813,0
513,35.224,-97.486,179.9,26.82,16.687,326,-3.4243,-0.33847,8.8493,0
514,35.223,-97.486,180.2,26.81,16.687,325,-3.386,-0.89392,10.42,0
515,35.223,-97.486,179.5,26.68,16.687,325,-3.2711,-0.85562,7.7958,0
516,35.223,-97.486,179.8,26.78,16.687,324,-3.4818,-1.0089,9.1557,0
517,35.223,-97.486,180.1,26.75,16.687,323,-3.7116,-1.2578,10.477,0
518,35.222,-97.486,180.7,26.5,16.687,323,-3.5775,-1.0471,9.4239,0
519,35.222,-97.486,179.9,26.05,16.687,322,-3.5584,-0.95139,9.8836,0
520,35.222,-97.486,180.1,25.8,16.687,322,-3.6924,-0.45338,9.6346,0
521,35.222,-97.486,180.1,25.78,16.687,324,-3.4626,-0.53,9.8069,0
522,35.222,-97.486,180.4,25.44,16.687,323,-3.4435,-0.85562,10.152,0
523,35.221,-97.486,180.9,25.36,16.687,323,-3.8265,-0.53,8.0831,0
524,35.221,-97.486,180.8,25.54,16.687,322,-4.0181,-0.91307,8.4279,0
525,35.221,-97.486,180.3,25.45,16.687,322,-3.8648,-0.68323,9.0791,0
526,35.221,-97.486,181.1,26.08,18.204,322,-4.1138,-0.87477,10.822,0
527,35.22,-97.486,179.1,25.7,19.721,322,-3.5201,-0.54916,10.535,0
528,35.22,-97.486,179.1,26.92,18.204,322,-3.3668,-0.95139,9.1174,0
529,35.22,-97.486,179.1,26.75,19.721,323,-3.6733,-0.93224,11.224,0
530,35.22,-97.486,179.6,26.94,18.204,323,-3.3094,-0.47255,8.198,0
531,35.219,-97.486,179.4,27.08,18.204,324,-3.9223,-0.70239,10.669,0
532,35.219,-97.486,180.2,26.7,16.687,323,-3.8074,-0.66408,9.4813,0
533,35.219,-97.486,180.5,26.81,18.204,324,-3.4051,-0.51085,7.9491,0
534,35.219,-97.486,180.4,26.71,19.721,324,-3.2711,-0.97054,8.5045,0
536,35.218,-97.486,180.4,26.7,22.755,324,-3.386,-0.91307,8.1597,0
536,35.218,-97.486,180.4,26.7,22.755,324,-3.386,-0.91307,8.1597,0
536,35.218,-97.486,180.4,26.7,22.755,324,-3.386,-0.91307,8.1597,0
536,35.218,-97.486,180.4,26.7,22.755,324,-3.386,-0.91307,8.1597,0
539,35.217,-97.486,180.1,27.01,21.238,322,-3.5201,-0.37677,8.8301,0
540,35.217,-97.486,180.1,27.05,19.721,323,-3.1753,-0.68323,8.5045,0
541,35.217,-97.486,180.3,26.84,18.204,324,-3.3477,-0.60661,7.0488,0
542,35.217,-97.486,179.3,26.82,18.204,324,-3.1753,-1.1238,7.8916,0
543,35.216,-97.486,178.4,26.69,18.204,326,-3.7499,-1.6026,9.0217,0
544,35.216,-97.486,177.5,26.44,18.204,325,-3.9031,-1.3728,9.3473,0
545,35.216,-97.485,176.3,26.38,18.204,324,-3.5967,-1.0089,10.286,0
546,35.216,-97.485,175,26.71,18.204,325,-3.9606,-0.85562,9.9219,0
547,35.216,-97.485,171.7,26.51,16.687,325,-3.4051,-0.91307,8.4087,0
548,35.215,-97.485,169.5,26.5,16.687,326,-3.8074,-0.66408,10.382,0
549,35.215,-97.485,168.2,26.53,16.687,325,-3.5392,-0.64493,8.3321,0
550,35.215,-97.485,167.6,26.72,16.687,325,-3.9989,-0.87477,11.014,0
551,35.215,-97.485,166.8,26.3,16.687,325,-4.0181,-0.89392,11.263,0
552,35.214,-97.485,165.7,26.21,16.687,325,-3.7116,-0.74069,9.2515,0
553,35.214,-97.485,165.3,26.25,18.204,324,-3.884,-0.89392,9.941,0
554,35.214,-97.485,164.1,26.37,19.721,325,-3.2328,-0.72154,8.2747,0
555,35.214,-97.485,162.2,26.23,21.238,324,-3.5392,-0.89392,9.941,0
556,35.214,-97.485,159.6,25.52,21.238,323,-3.5967,-0.56831,8.0065,0
558,35.213,-97.485,160.9,26.4,25.789,321,-3.1561,-1.0089,7.7767,0
558,35.213,-97.485,160.9,26.4,25.789,321,-3.1561,-1.0089,7.7767,0
559,35.213,-97.484,151.6,25.16,30.34,318,-3.4243,-0.33847,7.8341,0
560,35.213,-97.484,150.6,24.57,31.857,318,-3.5775,-0.39594,8.0831,0
561,35.213,-97.484,149.7,25.55,36.408,318,-3.6541,-0.41508,9.9793,0
562,35.212,-97.484,153.9,26.52,37.925,318,-3.5201,-0.51085,8.5428,0
563,35.212,-97.484,156,25.85,36.408,317,-3.4051,-1.2387,9.3281,0
564,35.212,-97.484,158.7,27.32,30.34,318,-3.386,-0.089478,7.6809,0
565,35.212,-97.484,158,26.41,24.272,319,-3.5392,-1.0089,9.2132,0
566,35.211,-97.484,158.4,24.93,24.272,321,-3.884,-0.81731,9.5963,0
567,35.211,-97.483,156.7,26.25,27.306,320,-4.0947,-0.45338,11.416,0
568,35.211,-97.483,154.9,26.11,22.755,319,-3.4243,-1.1429,9.1749,0
569,35.211,-97.483,152.1,26.9,22.755,318,-3.9989,-0.24271,9.7112,0
570,35.211,-97.483,152.7,26.97,22.755,317,-4.1521,-1.0089,11.588,0
571,35.21,-97.483,153,27.15,24.272,317,-3.3285,-0.47255,8.1406,0
572,35.21,-97.483,152.2,27.08,22.755,316,-3.4626,-0.93224,9.9219,0
573,35.21,-97.482,152.5,26.66,22.755,317,-3.6733,-0.87477,9.2898,0
574,35.21,-97.482,152.3,27.04,21.238,318,-3.7116,-1.1621,9.3856,0
575,35.209,-97.482,151.5,27.25,19.721,318,-3.9606,-0.58746,10.228,0
576,35.209,-97.482,151.9,26.66,19.721,319,-3.7116,-0.93224,9.0791,0
577,35.209,-97.482,152.4,26.84,19.721,316,-3.4626,-1.0663,9.06,0
578,35.209,-97.482,153.1,26.8,19.721,315,-3.386,-0.83646,8.9067,0
579,35.209,-97.482,152.4,26.52,18.204,315,-3.7882,-1.0663,11.876,0
580,35.208,-97.482,152.8,26.46,18.204,316,-3.8457,-0.68323,11.033,0
581,35.208,-97.481,152,25.38,18.204,317,-3.3477,-1.028,8.0065,0
582,35.208,-97.481,152.3,26.24,21.238,318,-3.386,-0.60661,9.6154,0
583,35.208,-97.481,153,26.5,19.721,317,-3.5967,-1.0855,10.324,0
584,35.208,-97.481,155.8,26.83,19.721,318,-3.386,-0.33847,7.5468,0
585,35.207,-97.481,156.6,27.06,18.204,319,-3.4626,-0.51085,8.3321,0
586,35.207,-97.481,158.8,26.96,18.204,318,-3.1561,-0.53,8.1406,0
587,35.207,-97.481,158.5,26.79,18.204,319,-3.5584,-0.54916,8.8684,0
588,35.207,-97.481,160.1,26.42,18.204,321,-3.8074,-0.81731,11.014,0
589,35.206,-97.481,161.7,26.45,18.204,321,-3.5009,-0.26186,8.8493,0
590,35.206,-97.48,163.4,26.34,16.687,320,-3.5775,-0.91307,9.3856,0
591,35.206,-97.48,164,26.07,18.204,320,-2.5624,-0.41508,10.037,0
592,35.206,-97.48,164.6,25.32,18.204,321,-2.8114,-0.20439,9.1557,0
593,35.206,-97.48,167.3,25.23,18.204,321,-3.5009,-0.14693,10.496,0
594,35.205,-97.48,170.4,24.8,18.204,318,-4.1904,-0.77901,10.362,0
595,35.205,-97.48,172.5,25.04,19.721,318,-3.5392,-0.58746,9.0408,0
596,35.205,-97.48,172.6,25,19.721,317,-4.4969,-0.070313,7.9874,0
597,35.205,-97.48,173.3,25.57,19.721,316,-4.3628,-0.16609,7.451,0
598,35.204,-97.48,172.1,25.74,21.238,316,-4.2671,-0.91307,9.1749,0
600,35.204,-97.48,172.1,25.73,27.306,316,-2.9263,-1.0471,8.1023,0
600,35.204,-97.48,172.1,25.73,27.306,316,-2.9263,-1.0471,8.1023,0
600,35.204,-97.48,172.1,25.73,27.306,316,-2.9263,-1.0471,8.1023,0
600,35.204,-97.48,172.1,25.73,27.306,316,-2.9263,-1.0471,8.1023,0
600,35.204,-97.48,172.1,25.73,27.306,316,-2.9263,-1.0471,8.1023,0
600,35.204,-97.48,172.1,25.73,27.306,316,-2.9263,-1.0471,8.1023,0
600,35.204,-97.48,172.1,25.73,27.306,316,-2.9263,-1.0471,8.1023,0
606,35.202,-97.48,182.4,25.59,43.993,314,-2.9646,0.88736,8.6386,0
607,35.202,-97.48,185.5,26.8,39.442,312,-3.8074,-0.56831,9.2515,0
608,35.202,-97.48,193.3,25.2,19.721,311,-4.4969,-0.60661,11.397,0
609,35.202,-97.48,195.2,25.14,15.17,309,-3.4243,-1.1046,8.9259,0
610,35.202,-97.481,196.6,25.31,13.653,308,-3.7116,-0.97054,10.152,0
611,35.201,-97.481,198.1,24.53,12.136,309,-3.0987,-1.1812,9.0791,0
612,35.201,-97.481,199.4,24.29,12.136,310,-3.1945,-0.77901,8.1023,0
613,35.201,-97.481,199.4,24.11,12.136,310,-3.2902,-0.35762,8.945,0
614,35.201,-97.481,198.6,23.77,12.136,311,-4.0372,-0.30016,10.477,0
615,35.201,-97.481,197.8,23.95,12.136,311,-3.7116,-0.87477,9.9602,0
616,35.2,-97.481,198,24.14,15.17,312,-4.0755,-0.81731,11.741,0
617,35.2,-97.481,199.1,23.72,15.17,312,-3.7882,-0.81731,11.684,0
618,35.2,-97.481,198.3,23.67,16.687,313,-2.7731,-0.85562,8.9067,0
619,35.2,-97.481,195.1,22.81,18.204,313,-3.4435,-1.4302,10.554,0
620,35.2,-97.481,197,23.65,15.17,312,-3.6158,-0.53,9.2898,0
621,35.199,-97.481,197.3,23.92,12.136,312,-3.8648,0.17868,8.313,0
622,35.199,-97.482,198.8,23.39,12.136,312,-4.5927,-0.31932,9.7303,0
623,35.199,-97.482,199,23.21,12.136,312,-3.8457,-0.24271,6.7041,0
624,35.199,-97.482,200.2,23.45,12.136,311,-3.4243,-0.012863,8.5811,0
625,35.199,-97.482,201.4,22.68,13.653,312,-3.0795,0.5426,9.0025,0
626,35.198,-97.482,202,23.19,15.17,311,-3.7882,0.025452,11.148,0
627,35.198,-97.482,203.3,24.03,16.687,311,-3.386,-0.41508,10.535,0
629,35.198,-97.482,208.1,24.23,16.687,309,-2.639,-0.79816,9.5196,0
629,35.198,-97.482,208.1,24.23,16.687,309,-2.639,-0.79816,9.5196,0
630,35.198,-97.482,208.5,22.95,15.17,308,-2.0261,-0.14693,9.6537,0
631,35.197,-97.483,209.1,22.12,13.653,308,-3.1178,-0.20439,8.6769,0
632,35.197,-97.483,208.9,21.48,12.136,306,-3.1178,-0.45338,9.692,0
633,35.197,-97.483,210,21.38,13.653,305,-3.3094,0.44682,9.7878,0
634,35.197,-97.483,214.8,21.24,15.17,305,-3.1753,1.7876,9.2515,0
635,35.197,-97.483,227.3,18.08,10.619,306,-4.5927,1.5003,9.5771,0
636,35.197,-97.483,235.9,17.73,10.619,305,-4.4778,2.0749,8.7152,0
637,35.197,-97.483,245,18.09,10.619,304,-4.1713,2.4388,8.6003,0
638,35.197,-97.484,245.8,18.16,10.619,303,-3.9031,2.0174,9.941,0
639,35.197,-97.484,247.1,18.59,13.653,303,-3.6733,1.8833,8.6769,0
