time,lat,lng,bearing,spd,acc,alt,accx,accy,accz,stable,
0,35.211,-97.448,0,0,3,328,-2.25,-0.453,9.418,1
1,35.211,-97.448,0,0,3,328,-2.288,-0.461,9.387,1
2,35.211,-97.448,0,0,3,328,-2.281,-0.448,9.42,1
3,35.211,-97.448,0,0,3,328,-2.27,-0.454,9.423,1
4,35.211,-97.448,0,0,3,328,-2.27,-0.461,9.405,1
5,35.211,-97.448,0,0,3,328,-2.293,-0.436,9.343,1
6,35.211,-97.448,0,0,3,328,-2.288,-0.434,9.322,1
7,35.211,-97.448,0,0,3,328,-2.268,-0.457,9.313,1
8,35.211,-97.448,0,0,3,328,-2.275,-0.434,9.325,1
9,35.211,-97.448,0,0,3,328,-2.246,-0.491,9.41,1
10,35.211,-97.448,0,0,3,328,-4.794,-1.825,8.417,1
11,35.211,-97.448,269,2.19,3,328,-4.362,-2.041,8.489,0
12,35.211,-97.448,269.9,4.78,3,329,-3.991,-1.543,8.865,0
13,35.211,-97.448,269.9,7.05,3,328,-4.105,-1.934,8.279,0
14,35.211,-97.448,269.6,9.2004,3,329,-3.202,-1.196,8.903,0
15,35.211,-97.448,269.4,10.71,3,328,-3.203,-1.307,8.928,0
16,35.211,-97.448,269,11.97,3,328,-3.292,-0.97,9.148,0
17,35.211,-97.448,268.9,13.13,3,328,-3.177,-0.892,9.07,0
18,35.211,-97.449,269,14.2,3,328,-2.402,-0.345,9.315,0
19,35.211,-97.449,269.3,14.95,3,328,-2.296,-0.114,8.522,0
20,35.211,-97.449,269.7,15.31,3,328,-2.375,-0.226,8.819,0
21,35.211,-97.449,269.9,15.54,3,327,-2.477,-0.575,9.8,0
22,35.211,-97.449,270.3,15.89,3,327,-2.459,-0.422,9.094,0
23,35.211,-97.449,270.2,16.02,3,327,-2.787,-0.282,9.529,0
24,35.211,-97.45,270.2,16.351,3,327,-2.197,-0.298,9.451,0
25,35.211,-97.45,270.2,16.503,3,326,-2.156,-0.523,9.683,0
26,35.211,-97.45,270.1,16.613,3,326,-1.899,-0.288,9.188,0
27,35.211,-97.45,269.9,16.554,3,326,-1.982,-0.553,9.629,0
28,35.211,-97.45,269.9,16.414,3,325,-2.014,-0.666,9.005,0
29,35.211,-97.45,270.2,15.971,3,325,-1.969,-0.233,8.985,0
30,35.211,-97.451,270.5,15.5,3,325,-1.819,-0.131,9.084,0
31,35.211,-97.451,270.5,14.862,4,325,-1.458,-0.533,9.387,0
32,35.211,-97.451,270.1,14.383,4,326,-2.164,-0.697,9.619,0
33,35.211,-97.451,270.1,14.207,5,327,-1.816,-0.958,10.025,0
34,35.211,-97.451,269.9,14.543,8,329,-1.96,-0.31,9.544,0
35,35.211,-97.451,258.2,14.911,10,329,-1.439,-0.784,8.02,0
36,35.211,-97.452,256.4,15.234,12,330,-1.762,-0.554,9.367,0
37,35.211,-97.452,270.7,15.932,13,333,-1.725,-0.427,9.433,0
38,35.211,-97.452,270.2,16.291,3,326,-1.564,-0.222,9.109,1
39,35.211,-97.452,270.2,15.993,3,325,-1.368,-0.291,7.331,0
40,35.211,-97.452,270.3,15.981,3,325,-1.773,-0.613,9.191,0
42,35.211,-97.453,270.6,16.101,3,325,-1.75,-0.61,9.356,0
42,35.211,-97.453,270.6,16.101,3,325,-1.75,-0.61,9.356,0
43,35.211,-97.453,270.9,16.531,3,325,-1.649,-0.359,9.56,0
44,35.211,-97.453,270.4,16.45,3,325,-1.237,-0.472,9.303,1
45,35.211,-97.453,270.1,16.14,3,325,-2.186,-0.6,10.282,0
46,35.211,-97.453,270,15.896,3,324,-1.663,-0.504,9.463,0
47,35.211,-97.454,270.2,16.182,3,324,-2.011,-0.641,9.766,0
48,35.211,-97.454,269.8,16.41,3,324,-1.882,-0.086,9.678,0
49,35.211,-97.454,269.7,16.54,3,325,-2.113,-0.807,10.283,0
50,35.211,-97.454,270.1,16.52,3,324,-1.754,-0.793,9.592,0
51,35.211,-97.454,270.1,16.73,3,324,-1.671,-0.697,9.336,0
52,35.211,-97.455,269.9,16.74,3,324,-1.817,-0.703,9.532,0
53,35.211,-97.455,270,16.84,3,323,-1.443,-1.109,9.6,0
54,35.211,-97.455,269.9,16.831,3,323,-1.689,-0.421,9.761,0
55,35.211,-97.455,269.8,16.602,3,324,-1.689,-0.329,9.357,0
56,35.211,-97.455,269.8,15.86,3,323,-1.937,-0.437,9.521,0
57,35.211,-97.455,270.2,15.57,3,323,-1.819,-0.468,9.497,0
58,35.211,-97.456,270.6,14.96,3,323,-1.959,-0.646,9.301,0
59,35.211,-97.456,270.6,14.701,3,323,-2.021,-0.573,9.904,0
60,35.211,-97.456,270.4,14.34,3,323,-1.791,-0.726,9.397,0
61,35.211,-97.456,270.1,14.04,3,323,-1.783,-0.838,9.168,0
62,35.211,-97.456,270.7,13.755,3,323,-1.793,-0.539,9.343,0
63,35.211,-97.456,270.3,13.473,3,323,-1.639,-0.346,9.44,0
64,35.211,-97.457,270.3,13.3,3,324,-1.753,-0.352,8.977,0
65,35.211,-97.457,270.2,13.18,3,324,-1.47,-0.682,8.977,0
66,35.211,-97.457,270.6,12.97,3,325,-1.009,0.144,9.589,0
67,35.211,-97.457,270.2,11.82,3,325,-1.677,-0.14,9.752,0
68,35.211,-97.457,270,10.961,3,325,-1.567,-0.256,9.486,0
69,35.211,-97.457,270.3,10.402,3,325,-1.981,-0.579,9.31,1
70,35.211,-97.457,270.9,10.22,3,325,-2.374,-0.882,9.796,0
71,35.211,-97.457,270.8,10.34,3,325,-2.082,-0.564,9.254,0
72,35.211,-97.458,270.4,10.341,3,325,-2.073,-0.514,9.082,0
73,35.211,-97.458,270.2,10.38,3,325,-2.251,-0.681,9.46,0
74,35.211,-97.458,269.9,10.53,3,326,-2.067,-0.83,9.11,0
75,35.211,-97.458,269.5,10.69,3,325,-1.529,-0.277,9.657,0
76,35.211,-97.458,268.6,10.69,3,325,-0.967,0.589,9.752,0
77,35.211,-97.458,268.7,10.15,3,324,-1.372,-0.482,9.471,0
78,35.211,-97.458,269.6,9.2124,3,325,-2.339,-1.316,9.159,1
79,35.211,-97.458,268.8,9.3904,3,326,-1.908,-0.446,9.079,0
80,35.211,-97.458,268.4,10.1,3,326,-1.66,-0.004,9.177,0
81,35.211,-97.459,269.1,10.24,3,326,-1.712,0.311,9.593,0
82,35.211,-97.459,269.6,9.61,3,326,-1.297,0.212,9.389,0
83,35.211,-97.459,271.3,8.8901,3,326,-0.694,-1.768,9.375,0
84,35.211,-97.459,269.7,7.8402,3,327,-0.204,-2.882,9.509,0
85,35.211,-97.459,253.6,7.3122,3,326,0.022,-3.395,9.002,0
86,35.211,-97.459,233.2,7.2028,3,326,-0.143,-3.996,9.03,0
87,35.211,-97.459,206,7.0415,3,325,-2.57,-1.782,9.011,1
88,35.211,-97.459,186,8.0676,3,325,-3.026,-1.019,9.192,0
89,35.211,-97.459,180.1,9.3745,3,325,-2.851,-1.067,8.82,0
90,35.211,-97.459,178.4,10.77,3,326,-2.702,-1.806,10.652,0
92,35.211,-97.459,177.2,11.731,3,325,-3.032,-0.601,9.223,0
92,35.211,-97.459,177.2,11.731,3,325,-3.032,-0.601,9.223,0
93,35.211,-97.459,176.7,12.601,3,325,-2.952,-0.665,9.105,0
94,35.21,-97.459,178.5,13.47,3,324,-2.706,-0.753,8.92,0
95,35.21,-97.459,179.9,14.271,3,324,-2.577,-0.989,9.513,0
96,35.21,-97.459,180.3,15.16,3,325,-2.373,-1.065,9.024,0
97,35.21,-97.459,180.5,15.9,3,326,-1.926,-0.417,10.013,0
98,35.21,-97.459,179.9,16.51,3,325,-1.871,-0.255,9.366,0
99,35.21,-97.459,179.6,16.24,3,325,-1.676,-0.472,9.667,0
100,35.21,-97.459,179.6,15.871,3,326,-1.727,-0.407,9.113,0
101,35.209,-97.459,179.1,15.56,3,326,-1.887,-0.63,10.17,0
102,35.209,-97.459,179.2,15.21,3,326,-2.138,-0.887,9.415,0
103,35.209,-97.459,179.1,15.27,3,327,-2.216,-0.507,9.071,0
104,35.209,-97.459,179.3,15.65,3,325,-2.202,-0.686,9.028,0
105,35.209,-97.459,179.6,15.96,3,326,-2.14,-0.26,9.112,0
106,35.209,-97.459,180.3,16.06,3,326,-1.665,-0.51,10.501,0
107,35.208,-97.459,180.3,15.81,3,326,-2.099,-0.671,9.043,0
108,35.208,-97.459,180.4,15.851,3,326,-1.91,-0.64,9.399,0
109,35.208,-97.459,180,15.91,3,325,-1.859,-0.793,8.301,0
110,35.208,-97.459,180.2,16.11,3,325,-1.609,-0.642,9.764,0
111,35.208,-97.459,179.7,15.802,3,324,-1.643,-0.589,9.405,0
112,35.208,-97.459,179.7,15.81,3,323,-1.819,-0.565,9.496,0
113,35.208,-97.459,179.4,15.901,3,323,-1.897,-0.292,9.553,0
114,35.207,-97.459,179.5,15.842,3,324,-2.167,-0.79,9.198,0
115,35.207,-97.459,179.6,15.93,3,322,-2.094,-0.473,8.995,0
116,35.207,-97.459,179.6,15.96,3,324,-2.383,-0.439,9.346,0
117,35.207,-97.459,179.2,16.13,3,324,-2.253,-0.433,9.683,0
118,35.207,-97.459,179.3,16.29,3,323,-2.134,-0.212,8.912,0
119,35.207,-97.459,179.1,16.3,3,324,-1.738,-0.275,9.621,0
120,35.207,-97.459,179.1,15.573,3,324,-2.095,-0.611,9.462,0
121,35.206,-97.459,179.5,15.73,3,326,-1.665,-0.422,8.919,0
122,35.206,-97.459,179.4,15.72,3,327,-1.855,-0.098,9.557,0
123,35.206,-97.459,179.6,15.45,3,327,-2.055,-0.563,9.778,0
124,35.206,-97.459,179.7,15.29,3,328,-2.1,-0.602,10.169,0
125,35.206,-97.459,179.7,15.18,3,328,-1.323,-0.575,9.719,0
126,35.206,-97.459,179.2,14.95,3,329,-2.03,-0.134,8.547,0
127,35.206,-97.459,178.6,15.01,3,329,-2.004,-0.125,9.9,0
128,35.205,-97.459,178.4,14.751,3,326,-2.004,-0.096,9.478,0
129,35.205,-97.459,178.7,14.99,4,327,-1.401,-0.391,8.788,0
130,35.205,-97.459,179.1,15.3,4,327,-1.428,-0.388,8.923,0
131,35.205,-97.459,179.6,15.021,4,324,-2.044,0.533,9.27,0
132,35.205,-97.459,180.9,14.83,4,324,-2.22,0.091,9.276,0
133,35.205,-97.459,182.6,14.6,5,325,-1.804,-0.245,9.328,0
134,35.205,-97.459,183.5,14.72,4,324,-1.222,-0.395,8.596,0
135,35.205,-97.459,183.8,14.731,3,324,-1.115,-0.801,8.834,0
136,35.204,-97.459,182.2,14.44,3,324,0.749,0.852,10.743,0
137,35.204,-97.459,180.4,13.35,3,324,0.208,0.66,9.645,0
138,35.204,-97.459,180,11.1,3,323,-0.558,1.19,9.862,0
139,35.204,-97.459,180.2,9.0501,3,323,-3.365,3.321,10.256,0
141,35.204,-97.459,189.6,7.5811,3,323,-4.899,3.231,10.047,0
141,35.204,-97.459,189.6,7.5811,3,323,-4.899,3.231,10.047,0
142,35.204,-97.459,219.4,6.7839,3,323,-4.582,0.289,9.083,0
143,35.204,-97.459,239.6,7.0326,3,323,-3.21,-1.78,9.124,0
144,35.204,-97.459,269.4,9.4804,3,323,-2.802,-1.74,8.622,0
145,35.204,-97.459,271.2,11.46,3,323,-2.652,-1.75,9.249,0
146,35.204,-97.46,270.6,13.22,3,323,-2.454,-1.209,9.582,0
147,35.204,-97.46,269.9,14.76,3,324,-2.276,-0.783,10.111,0
148,35.204,-97.46,269.8,15.7,3,323,-1.686,-0.752,9.023,0
149,35.204,-97.46,269.8,15.92,3,323,-2.239,-0.696,9.485,1
150,35.204,-97.46,270,16.18,3,323,-1.819,-0.832,9.041,1
151,35.204,-97.46,270.3,16.58,3,323,-1.885,-1.14,9.417,1
152,35.204,-97.461,270.3,17.06,3,323,-1.834,-0.871,9.371,0
153,35.204,-97.461,270.1,18.04,3,323,-1.618,-0.749,9.096,0
154,35.204,-97.461,270.4,18.33,3,323,-1.796,-0.944,9.672,0
155,35.204,-97.461,270.2,18.61,3,323,-1.858,-0.895,9.191,0
156,35.204,-97.462,270.3,18.97,3,323,-1.862,-0.984,9.616,0
157,35.204,-97.462,270.2,19.3,3,323,-1.699,-0.818,9.249,0
158,35.204,-97.462,270.2,19.58,3,323,-1.691,-0.949,9.248,0
159,35.204,-97.462,270.1,19.77,3,323,-1.113,-0.58,9.366,1
160,35.204,-97.462,270,19.54,3,323,-1.24,-0.302,9.545,0
161,35.204,-97.463,269.9,19.18,3,323,-1.143,-0.462,9.689,0
162,35.204,-97.463,269.9,18.87,3,323,-1.199,-0.529,9.251,0
163,35.204,-97.463,270,18.68,3,323,-1.527,-0.806,9.767,0
164,35.204,-97.463,269.7,18.552,3,322,-1.549,-0.584,9.515,0
165,35.204,-97.464,269.8,18.61,3,322,-1.302,-0.204,9.649,0
166,35.204,-97.464,270,18.34,3,322,-1.483,-0.354,10.155,0
167,35.204,-97.464,270.1,17.94,3,322,-1.25,-0.272,9.711,0
168,35.204,-97.464,270.3,17.53,3,322,-1.172,-0.594,10.083,0
169,35.204,-97.464,270.4,17.11,3,322,-1.228,-0.456,9.79,0
170,35.204,-97.464,270.4,16.73,3,321,-1.426,-0.655,9.445,0
171,35.204,-97.465,270.4,16.61,3,321,-1.242,-0.45,9.82,0
172,35.204,-97.465,270.2,16.39,3,321,-1.113,-0.455,9.358,1
173,35.204,-97.465,270,16.03,3,321,-1.121,-0.515,9.517,0
174,35.204,-97.465,269.8,15.71,3,321,-1.131,-0.445,9.542,0
175,35.204,-97.465,269.7,15.36,3,321,-1.127,-0.711,9.7,0
176,35.204,-97.466,269.7,14.99,3,321,-1.266,-0.342,9.549,0
177,35.204,-97.466,269.7,14.63,3,320,-1.066,-0.411,9.81,0
178,35.204,-97.466,269.8,14.21,3,320,-1.148,-0.646,9.717,0
179,35.204,-97.466,269.9,13.74,3,320,-1.22,-0.342,9.604,0
180,35.204,-97.466,269.9,13.37,3,321,-1.118,0.005,8.761,0
181,35.204,-97.466,270,12.92,3,321,-1.327,-0.209,8.927,0
182,35.204,-97.466,270,12.42,3,321,-0.992,-0.634,9.622,0
183,35.204,-97.467,270.1,12.03,3,321,-0.813,-0.254,9.967,0
184,35.204,-97.467,270.2,11.54,3,321,-0.418,0.232,10.335,0
185,35.204,-97.467,270.2,10.61,3,321,-0.443,0.106,9.737,0
186,35.204,-97.467,270.4,9.15,3,321,-0.476,0.131,9.69,0
187,35.204,-97.467,270.3,7.7901,3,321,-0.405,0.245,10.023,0
188,35.204,-97.467,270.3,6.36,3,321,-0.843,-0.332,9.437,0
189,35.204,-97.467,270.1,5.0602,3,321,-0.979,-0.293,9.414,1
190,35.204,-97.467,270,4.3,3,322,-1.005,-0.375,9.422,1
191,35.204,-97.467,270.1,3.6601,3,322,-1.114,-0.466,9.612,1
192,35.204,-97.467,270,3.1,3,322,-1.171,-0.367,9.694,1
193,35.204,-97.467,270,2.6602,3,322,-1.205,-0.467,9.477,1
194,35.204,-97.467,270,2.2401,3,322,-0.769,-0.06,9.791,0
195,35.204,-97.467,270.1,1.8,3,322,-0.866,-0.173,9.459,0
197,35.204,-97.467,270.1,0.93005,3,322,-1.391,-0.539,9.471,0
197,35.204,-97.467,270.1,0.93005,3,322,-1.391,-0.539,9.471,0
198,35.204,-97.467,270.1,0.93005,3,322,-1.481,-0.655,9.367,1
199,35.204,-97.467,270.1,0.93005,3,322,-1.515,-0.674,9.634,1
200,35.204,-97.467,270.1,0.93005,3,322,-1.542,-0.665,9.606,1
201,35.204,-97.467,270.1,0.93005,3,322,-1.484,-0.662,9.288,1
202,35.204,-97.467,270.1,0.93005,3,322,-1.537,-0.683,9.691,1
203,35.204,-97.467,270.1,0.93005,3,322,-1.523,-0.662,9.344,1
204,35.204,-97.467,270.1,0.93005,3,322,-1.49,-0.655,9.257,1
205,35.204,-97.467,270.1,0.93005,3,322,-1.484,-0.677,9.272,1
206,35.204,-97.467,270.1,0.93005,3,322,-1.509,-0.673,9.287,1
207,35.204,-97.467,270.1,0.93005,3,322,-1.537,-0.659,9.379,1
208,35.204,-97.467,270.1,0.93005,3,322,-1.494,-0.696,9.553,1
209,35.204,-97.467,270.1,0.93005,3,322,-1.524,-0.681,9.685,1
210,35.204,-97.467,270.1,0.93005,3,322,-1.517,-0.657,9.487,1
211,35.204,-97.467,270.1,0.93005,3,322,-1.464,-0.679,9.321,1
212,35.204,-97.467,270.1,0.93005,3,322,-1.536,-0.674,9.672,1
213,35.204,-97.467,270.1,0.93005,3,322,-1.483,-0.684,9.331,1
214,35.204,-97.467,270.1,0.93005,3,322,-1.53,-0.69,9.619,1
215,35.204,-97.467,270.1,0.93005,3,322,-1.494,-0.688,9.526,1
216,35.204,-97.467,270.1,0.93005,3,322,-1.522,-0.669,9.312,1
217,35.204,-97.467,270.1,0.93005,3,322,-1.505,-0.691,9.579,1
218,35.204,-97.467,270.1,0.93005,3,322,-1.513,-0.678,9.482,1
219,35.204,-97.467,270.1,0.93005,3,322,-1.501,-0.684,9.415,1
220,35.204,-97.467,270.1,0.93005,3,322,-1.528,-0.685,9.611,1
221,35.204,-97.467,270.1,0.93005,3,322,-1.484,-0.686,9.504,1
222,35.204,-97.467,270.1,0.93005,3,322,-1.517,-0.674,9.538,1
223,35.204,-97.467,270.1,0.93005,3,322,-1.469,-0.698,9.418,1
224,35.204,-97.467,270.1,0.93005,3,322,-2.23,-1.173,9.447,1
225,35.204,-97.467,270.2,0.58078,3,324,-1.818,-0.889,9.281,1
226,35.204,-97.467,270.2,1.6919,3,323,-1.216,-0.458,9.218,0
227,35.204,-97.467,270.3,1.6103,3,323,-0.992,-0.258,9.537,0
228,35.204,-97.467,270.3,1.6103,3,323,-0.924,-0.161,9.59,0
229,35.204,-97.467,270.3,1.6103,3,323,-1.512,-0.74,9.634,1
230,35.204,-97.467,270.3,1.6103,3,323,-1.926,-0.94,9.127,1
231,35.204,-97.467,270.3,1.6103,3,323,-3.243,-1.895,8.804,1
232,35.204,-97.467,270.3,1.3124,3,323,-2.84,-1.682,8.893,1
233,35.204,-97.467,270.3,3.0437,3,323,-2.74,-1.595,9.01,1
234,35.204,-97.467,270.2,4.4928,3,323,-2.24,-1.447,9.067,1
235,35.204,-97.468,270.1,5.7912,3,323,-2.428,-1.438,9.11,1
236,35.204,-97.468,270.2,7.0205,3,323,-2.372,-1.084,9.062,0
237,35.204,-97.468,270.4,8.24,3,322,-2.556,-1.189,9.365,0
238,35.204,-97.468,270.3,9.37,3,322,-2.425,-1.167,9.342,0
239,35.204,-97.468,270.1,10.28,3,323,-2.066,-1.217,8.979,0
240,35.204,-97.468,270,11.22,3,322,-2.147,-1.175,9.085,0
241,35.204,-97.468,270.1,12.14,3,322,-1.811,-1.189,9.429,0
242,35.204,-97.468,270.1,13.07,3,323,-1.876,-1.178,9.295,0
243,35.204,-97.469,270.1,13.62,3,324,-1.547,-0.607,9.466,0
244,35.204,-97.469,269.9,14.23,3,325,-0.66,-0.268,9.597,0
245,35.204,-97.469,269.9,14.13,3,325,-1.156,-0.338,9.744,0
246,35.204,-97.469,270.2,13.45,3,325,-1.105,-0.562,8.754,0
247,35.204,-97.469,270.1,13.08,3,326,-0.648,-0.046,10.037,0
248,35.204,-97.469,270,12.6,3,326,-0.852,-0.472,9.703,0
249,35.204,-97.469,270,11.34,3,326,-1.042,-0.61,9.369,0
250,35.204,-97.469,269.9,10.66,3,325,-1.352,-0.949,9.896,0
251,35.204,-97.47,269.9,10.3,3,325,-1.55,-0.9,9.354,1
252,35.204,-97.47,270,10.46,3,325,-1.66,-1.022,8.867,0
253,35.204,-97.47,270.1,10.79,3,325,-2.09,-1.089,9.373,0
254,35.204,-97.47,270.2,11.21,3,324,-2.238,-1.207,9.279,0
255,35.204,-97.47,270,11.71,3,324,-2.006,-1.116,9.043,0
256,35.204,-97.47,270.1,12.6,3,325,-2.004,-1.182,9.243,1
257,35.204,-97.47,270.2,13.39,3,324,-2.032,-1.202,9.345,1
258,35.204,-97.471,270.3,14.13,3,324,-1.375,-0.897,9.127,0
260,35.204,-97.471,270.2,14.86,3,324,-1.062,-0.857,10.09,0
260,35.204,-97.471,270.2,14.86,3,324,-1.062,-0.857,10.09,0
261,35.204,-97.471,270.1,14.97,3,324,-1.074,-0.549,9.584,0
262,35.204,-97.471,269.9,14.68,3,324,-1.079,-0.57,9.729,0
263,35.204,-97.471,269.6,14.34,3,325,-1.171,-0.359,9.617,0
264,35.204,-97.471,269.6,13.97,3,324,-1.595,-0.751,9.476,0
265,35.204,-97.471,269.7,13.64,3,324,-1.495,-0.675,9.673,0
266,35.204,-97.472,269.8,13.6,3,324,-1.73,-0.786,9.795,0
267,35.204,-97.472,270,13.67,3,325,-1.425,-0.861,9.445,0
268,35.204,-97.472,270.2,13.71,3,324,-1.467,-0.763,9.547,1
269,35.204,-97.472,270,13.782,3,324,-1.378,-0.733,9.723,0
270,35.204,-97.472,270.4,13.79,3,324,-1.407,-0.742,9.468,1
271,35.204,-97.472,270.2,13.731,3,325,-1.472,-0.808,9.387,0
272,35.204,-97.473,270.1,13.8,3,325,-1.444,-0.87,9.452,0
273,35.204,-97.473,269.9,13.95,3,325,-1.412,-0.847,9.633,0
274,35.204,-97.473,269.7,14.1,3,325,-1.128,-0.763,9.353,0
275,35.204,-97.473,269.6,14.08,3,325,-1.231,-0.106,9.351,0
276,35.204,-97.473,269.8,13.76,3,324,-1.083,-0.412,9.323,0
277,35.204,-97.473,269.8,13.37,3,324,-0.979,-0.47,9.259,0
278,35.204,-97.474,269.9,13.01,3,325,-1.065,-0.548,9.901,0
279,35.204,-97.474,269.9,12.62,3,325,-1.653,-0.864,9.303,0
280,35.204,-97.474,270.2,12.63,3,325,-1.686,-1.093,9.603,0
281,35.204,-97.474,270.1,12.76,3,325,-1.58,-0.953,9.57,0
282,35.204,-97.474,270,13.02,3,325,-1.426,-0.723,9.47,0
283,35.204,-97.474,269.8,13.22,3,325,-1.128,-0.394,9.58,1
284,35.204,-97.474,269.9,12.94,3,325,-1.187,-0.507,9.51,0
285,35.204,-97.475,269.9,12.72,3,325,-1.657,-0.913,9.609,0
286,35.204,-97.475,269.9,12.73,3,325,-0.755,-0.115,9.865,0
287,35.204,-97.475,269.8,12.37,3,325,-0.848,-0.176,9.653,0
288,35.204,-97.475,269.9,11.52,3,325,-0.752,-0.125,9.438,0
289,35.204,-97.475,270.1,10.65,3,325,-0.56,-0.073,9.934,0
290,35.204,-97.475,270.1,9.73,3,325,-0.634,-0.046,10.279,0
291,35.204,-97.475,270.2,8.59,3,325,-0.92,-0.417,9.591,0
292,35.204,-97.475,270.1,7.63,3,325,-1.179,-0.623,9.521,0
293,35.204,-97.475,269.8,6.84,3,324,-1.161,-0.749,9.375,0
294,35.204,-97.476,269.7,6.7001,3,324,-1.872,-0.836,9.317,0
295,35.204,-97.476,270,6.9301,3,323,-2.143,-1.344,9.356,0
296,35.204,-97.476,270.7,7.54,3,323,-2.259,-1.089,8.964,0
297,35.204,-97.476,271.2,8.4801,3,323,-2.314,-0.983,9.346,0
298,35.204,-97.476,271.2,9.4303,3,323,-2.238,-0.946,9.188,0
299,35.204,-97.476,271.4,10.2,3,323,-0.455,0.11,9.628,0
300,35.204,-97.476,271.5,9.8401,3,323,-1.487,-0.486,9.58,0
301,35.204,-97.476,271.8,9.32,3,323,-1.71,-0.601,9.335,0
302,35.204,-97.476,272,9.49,3,322,-1.279,-0.848,9.584,0
303,35.204,-97.476,272.1,9.63,3,322,-1.505,-1.177,10.039,0
304,35.204,-97.476,271.5,9.75,3,321,-1.432,-0.676,8.187,0
305,35.204,-97.477,270.9,9.88,3,321,-1.959,-0.811,9.258,0
306,35.204,-97.477,270.5,10.19,3,322,-1.472,-0.589,10.803,0
307,35.204,-97.477,270.2,10.43,3,322,-2.081,-0.994,9.418,0
308,35.204,-97.477,270,10.53,3,322,-1.929,-1.061,9.061,0
309,35.204,-97.477,270.5,11.01,3,321,-1.97,-0.959,9.254,0
310,35.204,-97.477,270.3,11.72,3,321,-1.933,-1.145,9.699,0
311,35.204,-97.477,270.1,12.34,3,321,-1.561,-0.873,9.713,0
312,35.204,-97.477,270.3,12.58,3,321,-1.719,-0.84,9.414,0
313,35.204,-97.478,270.4,12.72,3,321,-1.855,-0.83,9.485,0
314,35.204,-97.478,270.5,12.791,3,321,-1.857,-0.893,9.835,0
315,35.204,-97.478,270.6,13.13,3,321,-1.515,-0.863,9.33,0
316,35.204,-97.478,270.6,13.56,3,322,-1.419,-0.821,9.629,0
317,35.204,-97.478,270.3,13.72,3,322,-1.177,-0.395,9.47,0
318,35.204,-97.478,270,13.64,3,323,-1.23,-0.043,9.676,0
319,35.204,-97.479,270.1,13.302,3,323,-1.781,0.585,9.936,0
321,35.204,-97.479,271.9,12.65,3,323,-1.933,0.883,9.388,0
321,35.204,-97.479,271.9,12.65,3,323,-1.933,0.883,9.388,0
322,35.204,-97.479,276.8,12.143,3,324,-2.429,1.369,9.549,0
323,35.204,-97.479,285.1,11.59,3,325,-2.271,1.703,9.035,0
324,35.204,-97.479,295.1,11.112,3,325,-2.402,1.52,9.771,0
325,35.204,-97.479,305.9,10.52,3,326,-2.494,1.151,9.45,0
326,35.204,-97.479,319.1,10.497,3,325,-2.357,0.07,9.45,0
327,35.204,-97.479,328.1,10.202,3,326,-2.187,-0.482,9.404,1
328,35.204,-97.479,338.8,10.57,3,325,-2.289,-0.097,9.404,0
329,35.205,-97.479,340.9,11.19,3,325,-1.379,-1.24,9.71,1
330,35.205,-97.479,344.6,11.943,3,323,-1.634,-1.112,9.612,0
331,35.205,-97.479,341.9,12.741,3,322,-1.513,-0.911,9.264,0
332,35.205,-97.479,341,13.511,3,322,-1.392,-1.239,9.044,0
333,35.205,-97.48,340.7,15.156,3,321,-1.639,-0.942,9.138,0
334,35.205,-97.48,340.4,16.036,3,320,-1.785,-1.072,9.629,0
335,35.205,-97.48,340.5,16.995,3,319,-2.06,-0.923,9.844,0
336,35.206,-97.48,340.5,17.892,3,318,-1.723,-0.955,9.299,0
337,35.206,-97.48,340.5,17.892,3,318,-2.205,-1.125,9.288,0
338,35.206,-97.48,340.9,19.771,3,316,-2.187,-1.244,9.021,0
339,35.206,-97.48,340.8,20.85,3,315,-2.812,-1.166,9.622,0
340,35.206,-97.48,340.7,22.07,3,315,-2.7,-1.169,9.719,0
341,35.206,-97.48,340.2,23.41,3,315,-2.522,-1.424,9.43,0
342,35.207,-97.48,339.6,24.78,3,315,-2.112,-1.255,9.131,0
343,35.207,-97.48,338.6,25.85,3,316,-1.981,-0.566,9.738,0
344,35.207,-97.48,338,26.27,3,316,-1.357,-0.892,9.795,0
345,35.207,-97.481,337.2,26.56,3,316,-1.717,-0.299,9.807,0
346,35.208,-97.481,336.3,26.74,3,316,-1.686,-0.384,9.402,0
347,35.208,-97.481,335.8,26.85,3,316,-1.686,-0.596,9.584,0
348,35.208,-97.481,335,26.981,3,317,-1.352,-1.34,9.555,0
349,35.208,-97.481,333,27.142,3,317,-1.774,-1.127,9.349,0
350,35.208,-97.481,331.2,27.41,3,317,-1.98,-0.741,9.796,0
351,35.209,-97.481,330.9,28.4,3,318,-2.246,-0.287,9.149,0
352,35.209,-97.481,330.6,28.531,3,318,-2.502,-0.854,9.056,0
353,35.209,-97.482,331.1,29.02,3,318,-2.533,-0.997,9.37,0
354,35.209,-97.482,332,30.01,3,317,-1.486,-1.953,9.266,0
355,35.21,-97.482,331.3,31.011,3,318,-1.549,-1.804,9.067,1
356,35.21,-97.482,330,31.911,3,318,-2.662,-0.594,9.216,0
357,35.21,-97.482,330.8,32.74,3,318,-2.041,-1.188,9.038,0
358,35.21,-97.482,331.7,33.81,3,318,-2.17,-1.601,9.947,0
359,35.211,-97.483,331.5,34.79,3,318,-0.987,-2.421,9.216,0
360,35.211,-97.483,330,35.64,3,318,-2.574,0.091,9.148,0
361,35.211,-97.483,329.8,36.301,3,318,-2.31,-0.444,9.484,0
362,35.211,-97.483,331.5,37.07,3,318,-1.345,-1.487,9.145,0
363,35.212,-97.483,331.6,37.76,3,318,-1.264,-1.766,9.781,0
364,35.212,-97.484,330.3,38.301,3,318,-2.858,0.202,9.238,0
365,35.212,-97.484,330.4,39.04,3,319,-1.269,0.433,9.569,0
366,35.213,-97.484,331.9,38.97,3,319,-1.918,0.95,9.919,0
367,35.213,-97.484,333.8,38.47,3,317,-1.777,0.754,9.787,0
368,35.213,-97.484,335.7,37.76,3,318,-1.688,0.743,9.628,0
369,35.214,-97.485,337.9,37.19,3,318,-1.495,0.423,9.835,0
370,35.214,-97.485,339.8,36.64,3,318,-1.544,0.311,9.515,0
371,35.214,-97.485,341.5,36.16,3,318,-1.684,0.806,9.107,0
372,35.215,-97.485,343.3,35.82,3,318,-1.32,0.225,9.414,0
373,35.215,-97.485,344.9,35.291,3,319,-1.392,0.144,9.845,0
374,35.215,-97.485,346.4,34.851,3,319,-1.728,0.243,9.855,0
375,35.215,-97.485,348,34.48,3,320,-1.968,0.016,9.349,1
376,35.216,-97.485,350.1,34.3,3,321,-1.965,-0.089,9.262,1
377,35.216,-97.485,351.8,34.35,3,321,-1.915,-0.028,9.453,0
378,35.216,-97.485,353.4,34.53,3,322,-1.751,-0.333,10.02,0
379,35.217,-97.485,354.5,34.63,3,322,-2.333,0.155,8.956,0
381,35.217,-97.485,356,34.81,3,322,-2.119,-0.076,8.966,0
381,35.217,-97.485,356,34.81,3,322,-2.119,-0.076,8.966,0
382,35.217,-97.485,358.5,35.17,3,322,-1.665,-0.431,10.612,0
383,35.218,-97.485,0.1,35.54,3,323,-0.945,-0.117,9.403,0
384,35.218,-97.485,0.4,35.501,3,323,-1.682,-0.617,9.611,0
385,35.218,-97.485,359.7,35.82,3,323,-1.676,-0.224,9.612,0
386,35.219,-97.485,359.5,35.68,3,323,-1.254,-0.43,8.984,0
387,35.219,-97.485,359.4,35.27,3,323,-1.609,-0.317,9.356,0
388,35.219,-97.485,359.3,35.1,3,324,-1.644,-0.156,9.905,0
389,35.22,-97.485,359.5,34.68,3,324,-1.884,-0.224,10.332,0
390,35.22,-97.485,359.6,34.61,3,325,-1.711,-0.297,9.815,0
391,35.22,-97.485,359.9,34.56,3,326,-1.601,-0.341,9.592,0
392,35.22,-97.485,0.1,34.511,3,326,-1.794,-0.379,10.036,0
393,35.221,-97.485,0,34.41,3,327,-1.603,-0.319,9.448,0
394,35.221,-97.485,359.9,34.38,3,328,-1.573,-0.315,9.994,0
395,35.222,-97.485,359.9,34.32,3,328,-1.6,-0.403,9.759,0
396,35.222,-97.485,359.8,34.28,3,329,-1.7,-0.21,9.856,0
397,35.222,-97.485,359.9,34.28,3,329,-1.517,-0.421,9.522,0
398,35.223,-97.485,0,34.281,3,330,-1.571,-0.048,9.213,0
399,35.223,-97.485,0,34.25,3,330,-1.412,-0.049,9.507,0
400,35.223,-97.485,0.1,34.091,3,330,-1.353,0.022,9.576,0
401,35.224,-97.485,0.1,33.731,3,331,-1.162,-0.192,9.673,0
402,35.224,-97.485,359.8,33.34,3,331,-1.315,-0.133,9.497,0
403,35.224,-97.485,359.9,33.15,3,332,-1.517,-0.183,9.461,1
404,35.224,-97.485,0,33.1,3,331,-1.488,-0.343,9.472,1
405,35.225,-97.485,359.8,33.07,3,332,-1.498,-0.101,9.428,1
406,35.225,-97.485,359.7,33.06,3,332,-1.656,-0.132,9.468,1
407,35.225,-97.485,359.9,33.09,3,332,-1.723,-0.157,9.343,1
408,35.226,-97.485,359.9,33.4,3,332,-1.652,-0.584,9.842,0
409,35.226,-97.485,0.1,33.38,3,333,-1.674,-0.484,9.707,0
410,35.226,-97.485,359.9,33.52,3,333,-1.216,-0.141,9.723,0
411,35.227,-97.485,359.7,33.29,3,333,-1.564,-0.313,9.63,0
412,35.227,-97.485,359.6,33.33,3,334,-1.641,-0.364,9.915,0
413,35.227,-97.485,359.7,33.42,3,334,-1.68,-0.218,9.13,0
414,35.227,-97.485,0,33.52,3,334,-1.585,-0.479,9.814,0
415,35.228,-97.485,359.8,33.56,3,331,-1.575,-0.33,9.323,0
416,35.228,-97.485,359.7,33.57,3,332,-1.746,-0.25,9.389,0
417,35.228,-97.485,359.9,33.63,3,334,-1.669,-0.182,9.587,0
418,35.229,-97.485,359.9,33.66,3,331,-1.572,-0.31,9.569,0
419,35.229,-97.485,359.8,33.69,3,333,-1.691,-0.241,9.698,0
420,35.229,-97.485,359.9,33.68,3,334,-1.611,-0.28,9.252,0
421,35.23,-97.485,359.9,33.69,3,335,-1.663,-0.242,9.52,0
422,35.23,-97.485,0.1,33.69,3,335,-1.587,-0.273,9.429,0
423,35.23,-97.485,0.2,33.71,3,336,-1.648,-0.324,9.586,0
424,35.231,-97.485,0,33.69,3,336,-1.494,-0.233,9.3,0
425,35.231,-97.485,359.8,33.72,3,337,-1.702,-0.233,9.672,1
426,35.231,-97.485,359.9,33.7,3,337,-1.598,-0.279,9.284,0
427,35.231,-97.485,359.8,33.71,3,338,-1.573,-0.268,9.41,0
428,35.232,-97.485,359.9,33.622,3,338,-1.686,-0.183,9.643,0
429,35.232,-97.485,359.9,33.71,3,338,-1.629,-0.164,9.772,0
430,35.232,-97.485,0,33.71,3,339,-1.611,-0.225,9.42,0
431,35.233,-97.485,0.1,33.74,3,339,-1.494,-0.382,9.537,0
432,35.233,-97.485,1.1,34.163,3,339,-1.596,-0.281,9.611,0
433,35.233,-97.485,0.1,34.27,3,340,-1.5,-0.351,9.3,1
434,35.234,-97.485,359.7,33.73,3,340,-1.626,-0.104,9.554,1
435,35.234,-97.485,359.8,33.72,3,340,-1.645,-0.19,9.314,1
436,35.234,-97.485,359.9,33.73,3,340,-1.65,-0.199,9.675,1
437,35.234,-97.485,0,33.71,3,340,-1.684,-0.274,9.646,1
438,35.235,-97.485,359.9,33.68,3,339,-1.561,-0.292,9.543,1
439,35.235,-97.485,359.9,33.72,3,339,-1.518,-0.212,9.37,1
440,35.235,-97.485,359.8,33.71,3,339,-1.678,-0.233,9.552,1
441,35.236,-97.485,359.7,33.71,3,340,-1.751,0.013,9.674,1
442,35.236,-97.485,0,33.71,3,340,-1.482,-0.36,9.577,1
443,35.236,-97.485,0.1,33.7,3,340,-1.465,-0.31,9.401,1
444,35.237,-97.485,359.9,33.7,3,340,-1.589,-0.188,9.935,0
445,35.237,-97.485,0.1,33.72,3,340,-1.535,-0.338,9.589,0
447,35.237,-97.485,0.1,33.72,3,340,-1.411,-0.381,9.153,0
447,35.237,-97.485,0.1,33.72,3,340,-1.411,-0.381,9.153,0
448,35.237,-97.485,359.7,33.72,3,340,-1.596,-0.236,9.365,0
449,35.238,-97.485,359.7,33.79,3,340,-1.588,-0.308,9.56,0
450,35.238,-97.485,359.8,33.79,3,340,-1.62,-0.355,9.614,0
451,35.238,-97.485,359.9,33.82,3,340,-1.523,-0.209,9.465,0
452,35.239,-97.485,359.9,33.84,3,340,-1.541,-0.182,9.294,0
453,35.239,-97.485,359.9,33.85,3,340,-1.518,-0.163,9.263,1
454,35.239,-97.485,0,33.82,3,339,-1.542,-0.195,9.953,0
455,35.24,-97.485,0.1,33.76,3,339,-1.402,-0.339,9.367,0
456,35.24,-97.485,0,33.73,3,339,-1.459,-0.221,9.467,0
457,35.24,-97.485,0,33.74,3,339,-1.448,-0.183,9.367,0
458,35.241,-97.485,0,33.74,3,339,-1.489,-0.196,9.63,0
459,35.241,-97.485,359.9,33.67,3,339,-1.394,-0.178,9.674,0
460,35.241,-97.485,359.9,33.52,3,339,-1.371,0.033,9.568,0
461,35.242,-97.485,359.8,32.9,3,339,-1.343,0.138,9.622,0
462,35.242,-97.485,0,32.54,3,339,-1.336,-0.044,9.467,1
463,35.242,-97.485,0.1,32.19,3,339,-1.278,-0.072,9.786,0
464,35.243,-97.485,0.1,31.78,3,339,-1.191,-0.043,9.586,0
465,35.243,-97.485,0,31.43,3,339,-1.412,-0.151,9.57,0
466,35.243,-97.485,359.8,31.15,3,339,-1.356,-0.094,9.88,0
467,35.243,-97.485,359.8,31,3,339,-1.391,-0.17,9.458,0
468,35.244,-97.485,359.8,30.89,3,339,-1.452,-0.225,9.823,0
469,35.244,-97.485,359.8,30.77,3,339,-1.438,-0.18,9.098,0
470,35.244,-97.485,0,30.72,3,340,-1.731,-0.343,9.575,0
471,35.245,-97.485,0.2,30.91,3,340,-1.742,-0.462,9.41,0
472,35.245,-97.485,0.1,31.25,3,339,-1.722,-0.611,9.433,0
473,35.245,-97.485,0,31.68,3,338,-1.818,-0.56,9.256,0
474,35.245,-97.485,359.9,32.11,3,338,-1.798,-0.514,9.217,1
475,35.246,-97.485,359.9,32.44,3,338,-1.788,-0.426,9.556,1
476,35.246,-97.485,359.8,32.61,3,338,-1.604,-0.435,9.61,1
477,35.246,-97.485,359.7,32.78,3,338,-1.751,-0.317,9.325,1
478,35.247,-97.485,0,32.99,3,339,-1.716,-0.248,9.309,1
479,35.247,-97.485,0.2,33.17,3,339,-1.529,-0.421,9.535,1
480,35.247,-97.485,0,33.25,3,339,-1.515,-0.402,9.602,1
481,35.247,-97.485,0,33.26,3,339,-1.526,-0.31,9.863,0
482,35.248,-97.485,0.1,33.161,3,340,-1.573,-0.367,9.556,0
483,35.248,-97.485,0.2,33.92,3,340,-1.616,-0.259,9.414,0
484,35.248,-97.485,0.1,33.32,3,340,-1.515,-0.454,9.651,0
485,35.249,-97.485,359.9,33.33,3,339,-1.491,-0.375,9.648,0
486,35.249,-97.485,359.7,33.36,3,340,-1.576,-0.256,9.371,0
487,35.249,-97.485,359.7,33.35,3,340,-1.611,-0.216,9.315,0
488,35.25,-97.485,359.8,33.36,3,340,-1.664,-0.32,9.813,1
489,35.25,-97.485,359.8,33.38,3,340,-1.497,-0.251,9.497,1
490,35.25,-97.485,359.9,33.34,3,341,-1.487,-0.27,9.57,1
491,35.251,-97.485,359.8,33.34,3,341,-1.639,-0.216,9.611,0
492,35.251,-97.485,359.9,33.33,3,341,-1.636,-0.182,9.638,0
493,35.251,-97.485,0,33.3,3,341,-1.609,-0.226,9.379,0
494,35.251,-97.485,0.2,33.311,3,341,-1.546,-0.35,9.545,0
495,35.252,-97.485,0.1,33.31,3,341,-1.567,-0.407,9.582,0
496,35.252,-97.485,0,33.29,3,341,-1.449,-0.43,9.437,0
497,35.252,-97.485,359.8,33.28,3,342,-1.531,-0.379,9.379,0
498,35.253,-97.485,359.7,33.25,3,342,-1.606,-0.302,9.171,1
499,35.253,-97.485,359.9,33.25,3,342,-1.642,-0.248,9.479,1
500,35.253,-97.485,0,33.2,3,342,-1.61,-0.248,9.521,1
501,35.254,-97.485,0,33.191,3,342,-1.563,-0.256,9.133,1
502,35.254,-97.485,0,33.22,3,342,-1.597,-0.249,9.164,1
503,35.254,-97.485,0,33.29,3,342,-1.678,-0.457,9.201,1
504,35.254,-97.485,0,33.42,3,343,-1.796,-0.382,9.623,1
505,35.255,-97.485,359.9,33.66,3,344,-1.962,-0.628,9.654,1
506,35.255,-97.485,359.9,33.99,3,344,-1.972,-0.666,9.9,0
507,35.255,-97.485,359.9,34.48,3,343,-1.87,-0.475,9.423,0
508,35.256,-97.485,359.9,34.93,3,344,-1.708,-0.497,9.083,0
509,35.256,-97.485,0,35.26,3,344,-1.686,-0.57,9.78,0
511,35.256,-97.485,0,35.5,3,344,-1.589,-0.393,9.312,0
511,35.256,-97.485,0,35.5,3,344,-1.589,-0.393,9.312,0
512,35.257,-97.485,359.9,35.68,3,344,-1.559,-0.327,9.514,0
513,35.257,-97.485,359.7,35.8,3,344,-1.645,-0.166,9.506,0
514,35.257,-97.485,359.8,35.87,3,344,-1.608,-0.083,9.446,0
515,35.258,-97.485,0,35.92,3,345,-1.474,-0.139,9.299,1
516,35.258,-97.485,0,35.93,3,344,-1.62,-0.338,9.588,1
517,35.258,-97.485,0.1,35.95,3,345,-1.4,-0.276,9.691,1
518,35.259,-97.485,0.2,35.95,3,345,-1.422,-0.269,9.424,1
519,35.259,-97.485,0.1,35.93,3,344,-1.512,-0.43,9.829,1
520,35.259,-97.485,359.9,35.92,3,344,-1.411,-0.351,10.069,0
521,35.26,-97.485,359.8,35.88,3,344,-1.453,-0.192,9.521,0
522,35.26,-97.485,359.8,35.81,3,344,-1.48,-0.29,9.54,0
523,35.26,-97.485,359.9,35.69,3,345,-1.496,-0.221,9.587,0
524,35.261,-97.485,0,35.65,3,345,-1.505,-0.321,9.559,0
525,35.261,-97.485,0,35.57,3,345,-1.599,-0.255,10.026,0
526,35.261,-97.485,359.9,35.64,3,345,-1.572,-0.255,9.794,0
527,35.262,-97.485,359.9,35.62,3,345,-1.565,-0.214,9.597,0
528,35.262,-97.485,359.8,35.24,3,345,-1.679,-0.263,9.847,0
529,35.262,-97.485,0.1,35.82,3,345,-1.468,-0.356,9.482,0
530,35.263,-97.485,0,35.64,3,345,-1.402,-0.277,9.408,0
531,35.263,-97.485,359.8,35.59,3,344,-1.5,-0.126,9.598,0
532,35.263,-97.485,359.9,35.57,3,344,-1.608,-0.157,9.807,0
533,35.264,-97.485,359.9,35.52,3,344,-1.431,-0.215,9.526,0
534,35.264,-97.485,359.9,35.49,3,344,-1.468,-0.395,9.503,0
535,35.264,-97.485,359.9,35.44,3,344,-1.56,-0.207,9.177,0
536,35.265,-97.485,0.1,35.48,3,344,-1.494,-0.42,9.891,0
537,35.265,-97.485,0,35.47,3,345,-1.426,-0.406,9.309,0
538,35.265,-97.485,359.9,35.46,3,345,-1.447,-0.336,9.835,0
539,35.266,-97.485,359.8,35.43,3,345,-1.535,-0.194,9.751,0
540,35.266,-97.485,0,35.37,3,345,-1.476,-0.259,9.873,0
541,35.266,-97.485,0,35.37,3,344,-1.615,-0.222,9.853,0
542,35.267,-97.485,0.2,35.34,3,344,-1.429,-0.128,9.428,0
543,35.267,-97.485,0.2,35.41,3,344,-1.39,-0.299,9.308,0
544,35.267,-97.485,0.2,35.46,3,344,-1.41,-0.331,9.575,0
545,35.268,-97.485,0,35.5,3,343,-1.423,-0.263,9.296,0
546,35.268,-97.485,359.8,35.53,3,343,-1.434,-0.323,9.374,0
547,35.268,-97.485,359.7,35.5,3,344,-1.567,-0.419,9.879,0
548,35.268,-97.485,359.7,35.5,3,344,-1.587,-0.421,9.644,0
549,35.269,-97.485,359.7,35.51,3,343,-1.574,-0.228,9.638,0
550,35.269,-97.485,359.8,35.54,3,344,-1.494,-0.271,9.563,0
551,35.269,-97.485,359.9,35.52,3,344,-1.438,-0.252,9.856,0
552,35.27,-97.485,0,35.55,3,344,-1.49,-0.13,9.189,0
553,35.27,-97.485,0.1,35.6,3,343,-1.458,-0.237,9.247,0
554,35.27,-97.485,0,35.7,3,343,-1.493,-0.297,9.434,0
555,35.271,-97.485,359.9,35.71,3,343,-1.503,-0.239,9.235,1
556,35.271,-97.485,359.7,35.77,3,343,-1.406,-0.151,9.768,0
557,35.271,-97.485,359.7,35.8,3,343,-1.468,-0.11,9.377,0
558,35.272,-97.485,359.8,35.83,3,343,-1.471,-0.181,9.587,0
559,35.272,-97.485,0,35.84,3,342,-1.465,-0.078,9.825,0
560,35.272,-97.485,359.9,35.89,3,341,-1.439,0.015,9.441,0
561,35.273,-97.485,0.3,35.82,3,341,-1.352,-0.367,9.667,0
562,35.273,-97.485,0.2,35.9,3,340,-1.343,-0.187,9.494,0
563,35.273,-97.485,0,35.92,3,340,-1.341,-0.128,9.822,0
564,35.274,-97.485,359.9,35.89,3,338,-1.424,-0.356,9.84,0
565,35.274,-97.486,359.9,35.88,3,338,-1.42,-0.114,9.423,0
566,35.274,-97.486,359.9,35.881,3,337,-1.421,-0.037,9.299,0
567,35.275,-97.486,0,35.861,3,337,-1.418,-0.16,9.37,1
568,35.275,-97.486,0.1,35.881,3,336,-1.298,-0.487,9.693,1
569,35.275,-97.486,359.9,35.91,3,335,-1.366,-0.163,9.59,1
570,35.276,-97.486,359.5,35.89,3,335,-1.568,-0.026,9.617,1
571,35.276,-97.486,359.6,35.91,3,335,-1.461,-0.189,9.7,1
572,35.276,-97.486,0,35.75,3,335,-1.851,0.106,9.955,0
573,35.277,-97.486,0.3,35.63,3,335,-1.969,0.354,9.573,0
575,35.277,-97.485,2,35.431,3,335,-2.111,0.398,9.999,0
575,35.277,-97.485,2,35.431,3,335,-2.111,0.398,9.999,0
576,35.277,-97.485,4,35.272,3,334,-2.688,1.092,9.66,0
577,35.278,-97.485,7.4,35.041,3,334,-2.991,1.564,9.661,0
578,35.278,-97.485,12.1,34.772,3,334,-2.524,0.981,9.255,0
579,35.278,-97.485,16.2,34.601,3,335,-1.571,-0.224,9.354,0
580,35.278,-97.485,18.5,34.59,3,335,-1.235,-0.485,9.492,0
581,35.279,-97.485,18.6,34.56,3,333,-1.341,-0.476,9.518,0
582,35.279,-97.485,18.9,34.52,3,333,-1.2,-0.801,9.627,0
583,35.279,-97.485,18.7,34.58,3,334,-1.463,-0.719,9.755,0
584,35.28,-97.485,18.2,34.73,3,334,-1.12,-1.027,9.695,0
585,35.28,-97.485,18.1,35.522,3,334,-0.505,-1.738,9.618,0
586,35.28,-97.484,14.8,34.991,3,334,-0.363,-1.754,9.669,0
587,35.281,-97.484,11.6,35.29,3,333,-0.493,-1.623,9.556,1
588,35.281,-97.484,5.3,35.411,3,333,-0.5,-1.819,9.639,1
589,35.281,-97.484,2.1,35.431,3,334,-0.459,-1.696,9.519,1
590,35.282,-97.484,359.1,35.37,3,333,-0.362,-1.699,9.709,1
591,35.282,-97.484,355.7,35.211,3,333,-0.207,-1.93,9.783,0
592,35.282,-97.484,352.3,35.05,3,332,-0.2,-1.939,9.809,0
593,35.283,-97.484,348.6,34.92,3,332,-0.405,-1.528,9.706,0
594,35.283,-97.485,345.8,34.78,3,331,-0.614,-1.202,9.885,0
595,35.283,-97.485,343.6,34.641,3,331,-1.197,-0.53,9.543,0
596,35.284,-97.485,343.3,34.491,3,331,-1.823,0.267,9.418,0
597,35.284,-97.485,344.1,34.401,3,332,-1.308,-0.398,9.603,0
598,35.284,-97.485,343.7,34.33,3,333,-1.316,-0.545,9.631,0
599,35.285,-97.485,343.5,34.28,3,332,-1.416,-0.313,9.29,0
600,35.285,-97.485,343.5,34.26,3,332,-1.307,-0.519,9.434,1
601,35.285,-97.485,343.2,34.27,3,331,-1.366,-0.499,9.692,1
602,35.285,-97.485,343.3,34.28,3,331,-1.377,-0.385,9.492,1
603,35.286,-97.485,343.3,34.29,3,330,-1.388,-0.484,9.492,1
604,35.286,-97.486,343.2,34.29,3,330,-1.39,-0.277,9.128,1
605,35.286,-97.486,343.2,34.27,3,330,-1.324,-0.52,9.794,1
606,35.287,-97.486,343.1,34.27,3,330,-1.277,-0.451,9.431,1
607,35.287,-97.486,343,34.2,3,330,-1.372,-0.512,9.488,1
608,35.287,-97.486,343.1,34.12,3,330,-1.305,-0.357,9.12,1
609,35.288,-97.486,343.1,34.05,3,330,-1.352,-0.421,9.624,1
610,35.288,-97.486,343.2,33.99,3,330,-1.34,-0.407,9.686,1
611,35.288,-97.486,343.3,33.89,3,330,-1.389,-0.303,9.455,1
612,35.288,-97.486,343.6,33.77,3,330,-1.281,-0.347,9.313,1
613,35.289,-97.487,343.7,33.69,3,330,-1.265,-0.448,9.376,1
614,35.289,-97.487,343.6,33.64,3,331,-1.217,-0.505,9.384,1
615,35.289,-97.487,343.3,33.57,3,330,-1.237,-0.49,9.361,1
616,35.29,-97.487,343.1,33.5,3,330,-1.29,-0.575,9.505,1
617,35.29,-97.487,343.1,33.46,3,332,-1.158,-0.568,9.425,1
618,35.29,-97.487,343,33.42,3,332,-1.332,-0.534,9.616,1
619,35.29,-97.487,343,33.41,3,331,-1.32,-0.535,9.458,1
620,35.291,-97.487,343.1,33.41,3,330,-1.43,-0.503,9.706,1
621,35.291,-97.487,343.2,33.36,3,330,-1.196,-0.138,8.721,1
622,35.291,-97.487,344.4,32.69,3,330,-0.891,-0.63,9.134,1
623,35.292,-97.488,343.3,33.52,3,330,-1.304,-0.491,9.861,1
624,35.292,-97.488,343.3,33.33,3,331,-1.282,-0.408,9.306,1
625,35.292,-97.488,343.3,33.33,3,330,-1.171,-0.599,9.321,1
626,35.292,-97.488,343.2,33.35,3,331,-1.058,-0.618,9.284,1
627,35.293,-97.488,343,33.45,3,330,-1.061,-0.525,9.548,1
628,35.293,-97.488,342.9,33.611,3,330,-1.133,-0.498,9.608,1
629,35.293,-97.488,342.9,33.62,3,329,-1.332,-0.345,9.646,1
630,35.294,-97.488,343.1,33.63,3,328,-1.223,-0.441,9.482,1
631,35.294,-97.488,343.4,33.67,3,328,-1.163,-0.657,9.371,1
632,35.294,-97.489,343.1,33.61,3,328,-1.245,-0.589,9.399,1
633,35.294,-97.489,343.1,33.761,3,327,-1.216,-0.381,9.377,1
634,35.295,-97.489,343.3,33.761,3,327,-1.066,-0.536,9.496,1
635,35.295,-97.489,343.4,33.75,3,326,-1.174,-0.462,9.578,1
636,35.295,-97.489,343.5,33.67,3,326,-1.252,-0.412,9.453,1
637,35.296,-97.489,343.7,33.65,3,326,-1.189,-0.492,9.6,1
638,35.296,-97.489,344,33.63,3,325,-1.223,-0.344,9.492,1
639,35.296,-97.489,344.4,33.58,3,326,-1.601,0.006,9.696,0
641,35.297,-97.489,345.4,33.5,3,325,-1.663,0.107,9.722,0
641,35.297,-97.489,345.4,33.5,3,325,-1.663,0.107,9.722,0
642,35.297,-97.489,347,33.41,3,325,-1.564,-0.047,9.687,0
643,35.297,-97.49,348.3,33.2,3,325,-1.563,-0.122,9.655,0
644,35.297,-97.49,349.5,32.991,3,325,-1.568,-0.227,9.753,0
645,35.298,-97.49,350.5,32.812,3,326,-1.663,-0.111,9.596,0
646,35.298,-97.49,351.6,32.672,3,330,-1.803,-0.134,9.736,0
647,35.298,-97.49,352.9,32.572,3,329,-1.716,-0.299,9.586,0
648,35.299,-97.49,354,32.572,3,329,-1.6,-0.44,9.602,0
649,35.299,-97.49,354.5,32.711,3,329,-1.731,-0.422,9.491,1
650,35.299,-97.49,355.4,32.78,3,329,-1.822,-0.308,9.794,1
651,35.299,-97.49,356.9,32.791,3,329,-1.668,-0.281,9.363,1
652,35.3,-97.49,358.1,32.831,3,330,-1.689,-0.436,9.646,1
653,35.3,-97.49,359.1,32.901,3,330,-1.547,-0.625,9.462,1
654,35.301,-97.49,0.1,33.051,3,330,-1.45,-0.643,9.446,1
655,35.301,-97.49,0.1,33.111,3,330,-1.414,-0.749,9.571,1
656,35.301,-97.49,0,33.221,3,331,-1.324,-0.758,9.738,1
657,35.302,-97.49,0,33.321,3,331,-1.334,-0.728,9.336,1
658,35.302,-97.49,0,33.43,3,331,-1.346,-0.692,9.432,1
659,35.302,-97.49,359.9,33.5,3,332,-1.222,-0.798,9.705,1
660,35.302,-97.49,359.7,33.55,3,331,-1.331,-0.683,9.685,1
661,35.303,-97.49,359.8,33.57,3,332,-1.275,-0.496,9.591,1
662,35.303,-97.49,0.1,33.44,3,331,-1.097,-0.299,9.426,1
663,35.303,-97.49,0.3,33.17,3,331,-1.145,-0.119,9.25,1
664,35.304,-97.49,1,32.9,3,331,-1.21,-0.171,9.798,1
665,35.304,-97.49,1.5,32.68,3,334,-1.012,-0.574,9.865,1
666,35.304,-97.49,1.2,32.43,3,333,-0.732,-0.951,9.602,1
667,35.304,-97.49,0.4,32.2,3,332,-0.757,-0.657,9.626,1
668,35.305,-97.49,359.8,31.93,3,332,-0.799,-0.579,9.599,1
669,35.305,-97.49,359.6,31.57,3,332,-0.997,-0.214,9.512,1
670,35.305,-97.49,359.7,31.59,3,332,-0.777,-0.435,9.268,1
671,35.306,-97.49,359.8,30.95,3,332,-0.743,-0.665,9.594,1
672,35.306,-97.49,359.3,30.69,3,331,-0.959,-1.031,9.531,1
673,35.306,-97.49,358.6,30.71,3,332,-1.241,-0.719,9.48,1
674,35.306,-97.49,358.5,30.86,3,332,-1.467,-0.431,9.296,1
675,35.307,-97.49,359,31.04,3,332,-1.732,-0.396,9.752,1
676,35.307,-97.49,359.7,31.26,3,332,-1.485,-0.502,9.4,0
677,35.307,-97.49,0,31.49,3,332,-1.286,-0.685,9.412,0
678,35.308,-97.49,359.9,31.68,3,332,-1.365,-0.668,9.363,0
679,35.308,-97.49,0,31.83,3,332,-1.233,-0.586,9.502,0
680,35.308,-97.49,0,31.86,3,332,-1.243,-0.495,9.379,0
681,35.308,-97.49,359.9,31.78,3,333,-1.398,-0.725,9.597,0
682,35.309,-97.49,359.9,31.95,3,333,-1.466,-0.686,9.625,0
683,35.309,-97.49,359.9,32.17,3,334,-1.469,-0.842,9.724,1
684,35.309,-97.49,359.9,32.41,3,335,-1.496,-0.724,9.51,1
685,35.31,-97.49,0,32.61,3,335,-1.487,-0.681,9.432,1
686,35.31,-97.49,0.1,32.84,3,335,-1.373,-0.59,9.921,0
687,35.31,-97.49,0.1,32.94,3,335,-1.02,-0.368,9.581,0
688,35.31,-97.49,0.1,32.65,3,335,-1.16,-0.56,9.5,0
689,35.311,-97.49,359.9,32.43,3,335,-1.42,-0.59,9.433,0
690,35.311,-97.49,359.9,32.53,3,335,-1.4,-0.596,9.201,0
691,35.311,-97.49,359.9,32.721,3,336,-1.343,-0.723,9.387,0
692,35.312,-97.49,359.8,32.91,3,336,-1.488,-0.635,9.403,0
693,35.312,-97.49,0,33.07,3,337,-1.374,-0.867,9.674,0
694,35.312,-97.49,0.1,33.17,3,337,-1.217,-0.745,9.343,1
695,35.313,-97.49,359.9,33.251,3,337,-1.165,-0.804,9.304,1
696,35.313,-97.49,359.6,33.33,3,337,-1.434,-0.523,9.631,1
697,35.313,-97.49,359.6,33.37,3,337,-1.472,-0.461,9.306,1
698,35.313,-97.49,0,33.391,3,338,-1.299,-0.545,9.347,1
699,35.314,-97.49,0.1,33.441,3,339,-1.43,-0.539,9.833,1
700,35.314,-97.49,0.2,33.431,3,339,-1.222,-0.76,9.511,1
701,35.314,-97.49,0.1,33.46,3,339,-1.2,-0.662,9.453,1
702,35.315,-97.49,0,33.431,3,339,-1.289,-0.692,9.618,1
703,35.315,-97.49,0.1,33.421,3,340,-1.192,-0.642,9.28,1
704,35.315,-97.49,0.1,33.43,3,340,-1.133,-0.73,9.45,1
705,35.316,-97.49,0.1,33.41,3,341,-1.18,-0.676,9.766,1
707,35.316,-97.49,0,33.371,3,342,-1.247,-0.733,9.722,1
707,35.316,-97.49,0,33.371,3,342,-1.247,-0.733,9.722,1
708,35.316,-97.49,0,33.411,3,342,-1.224,-0.758,9.629,1
709,35.316,-97.49,0,33.421,3,342,-1.118,-0.828,9.698,1
710,35.317,-97.49,359.9,33.381,3,343,-1.241,-0.747,9.458,1
711,35.317,-97.49,359.8,33.321,3,343,-1.333,-0.639,9.389,1
712,35.317,-97.49,359.8,33.331,3,343,-1.165,-0.709,9.781,1
713,35.318,-97.49,359.9,33.331,3,343,-1.319,-0.702,9.63,1
714,35.318,-97.49,0.1,33.311,3,343,-1.274,-0.641,9.513,1
715,35.318,-97.49,0.2,33.361,3,344,-1.168,-0.749,9.445,1
716,35.319,-97.49,0.1,33.371,3,344,-1.137,-0.833,9.398,1
717,35.319,-97.49,359.9,33.42,3,345,-1.238,-0.613,9.344,1
718,35.319,-97.49,359.8,33.391,3,345,-1.232,-0.492,9.674,1
719,35.319,-97.49,359.8,33.35,3,346,-1.138,-0.468,9.34,1
720,35.32,-97.49,0.1,32.85,3,347,-1.191,-0.514,9.892,1
721,35.32,-97.49,0.3,32.25,3,347,-1.04,-0.529,9.598,1
722,35.321,-97.49,359.8,32.72,3,346,-1.098,-0.429,9.706,1
723,35.321,-97.49,359.9,32.57,3,347,-1.155,-0.46,9.728,0
724,35.321,-97.49,0,32.48,3,346,-1.14,-0.496,9.767,0
725,35.322,-97.49,359.9,32.41,3,345,-1.171,-0.42,9.47,0
726,35.322,-97.49,0,32.25,3,346,-1.185,-0.568,9.678,0
727,35.322,-97.49,0,32.16,3,346,-1.152,-0.554,9.527,0
728,35.322,-97.49,359.9,32.07,3,346,-1.109,-0.688,9.648,0
729,35.323,-97.49,359.8,32,3,345,-1.33,-0.492,9.591,0
730,35.323,-97.49,0,31.95,3,345,-1.15,-0.626,9.604,0
731,35.323,-97.49,359.9,31.94,3,346,-1.136,-0.613,9.588,1
732,35.324,-97.49,0,31.86,3,346,-1.203,-0.496,9.369,1
733,35.324,-97.49,0.1,31.82,3,346,-1.182,-0.539,9.546,1
734,35.324,-97.49,0.2,31.751,3,345,-1.191,-0.69,9.691,1
735,35.324,-97.49,0.2,31.75,3,346,-1.101,-0.808,9.414,1
736,35.325,-97.49,359.9,31.69,3,346,-1.087,-0.8,9.459,1
737,35.325,-97.49,359.7,31.7,3,346,-1.336,-0.687,9.49,1
738,35.325,-97.49,359.9,31.81,3,346,-1.452,-0.718,9.531,1
739,35.326,-97.49,0,32.05,3,346,-1.496,-0.922,9.441,1
740,35.326,-97.49,0,32.341,3,346,-1.406,-0.777,9.357,1
741,35.326,-97.49,359.8,32.62,3,346,-1.358,-0.774,9.415,1
742,35.326,-97.49,359.9,32.831,3,347,-1.339,-0.76,9.636,1
743,35.327,-97.49,359.9,32.97,3,346,-1.391,-0.858,9.691,0
744,35.327,-97.49,359.8,33.06,3,346,-1.4,-0.664,9.436,0
745,35.327,-97.49,359.7,32.865,3,347,-1.384,-0.495,9.492,0
746,35.328,-97.49,359.9,33.131,3,347,-1.386,-0.494,9.265,0
747,35.328,-97.49,0.2,33.22,3,347,-1.362,-0.536,9.312,0
748,35.328,-97.49,0.3,33.31,3,348,-1.256,-0.718,9.574,0
749,35.329,-97.49,0.2,33.38,3,347,-1.219,-0.719,9.661,0
750,35.329,-97.49,0,33.47,3,348,-1.279,-0.635,9.869,1
751,35.329,-97.49,0,33.491,3,348,-1.213,-0.649,9.608,1
752,35.329,-97.49,359.8,33.53,3,348,-1.211,-0.671,9.314,1
753,35.33,-97.49,359.6,33.51,3,348,-1.248,-0.561,9.356,1
754,35.33,-97.49,359.6,33.51,3,348,-1.373,-0.606,9.707,1
755,35.33,-97.49,359.6,33.51,3,348,-1.348,-0.538,9.747,1
756,35.331,-97.49,359.9,33.51,3,349,-1.356,-0.622,9.873,0
757,35.331,-97.49,359.9,33.501,3,349,-1.34,-0.568,9.569,0
758,35.331,-97.49,0,33.53,3,349,-1.453,-0.575,10.008,0
759,35.332,-97.49,0,33.66,3,349,-1.363,-0.443,9.797,0
760,35.332,-97.49,0,33.63,3,350,-1.221,-0.744,9.673,0
761,35.332,-97.49,359.9,33.55,3,350,-1.249,-0.694,9.714,0
762,35.332,-97.49,359.4,33.52,3,350,-1.183,-0.687,9.873,0
763,35.333,-97.49,358.6,33.52,3,350,-1.006,-0.67,9.441,0
764,35.333,-97.49,357.5,33.4,3,350,-1.085,-0.55,9.788,0
765,35.333,-97.49,356.5,33.24,3,351,-0.906,-0.645,9.523,0
766,35.334,-97.49,355.3,33.04,3,351,-0.757,-0.861,9.744,0
767,35.334,-97.49,354.6,32.85,3,350,-0.732,-0.948,9.674,0
768,35.334,-97.49,353.6,33.1,3,350,-0.699,-0.981,9.36,0
769,35.335,-97.49,350.3,32.55,3,350,-0.751,-0.861,9.309,1
771,35.335,-97.49,348.6,32.39,3,350,-0.943,-0.778,9.83,1
771,35.335,-97.49,348.6,32.39,3,350,-0.943,-0.778,9.83,1
772,35.335,-97.49,347.1,32.25,3,349,-0.862,-0.957,9.787,0
773,35.335,-97.49,345.6,32.12,3,348,-1.077,-0.678,9.414,0
774,35.336,-97.491,344.4,32.01,3,348,-1.143,-0.535,9.68,0
775,35.336,-97.491,343.6,31.88,3,348,-1.164,-0.673,9.689,0
776,35.336,-97.491,342.5,31.681,3,348,-1.372,-0.485,10.063,0
777,35.337,-97.491,342,31.621,3,348,-1.401,-0.648,9.643,0
778,35.337,-97.491,341.8,31.257,3,350,-1.333,-0.538,9.555,0
779,35.337,-97.491,342,31.135,3,350,-1.269,-0.584,9.542,0
780,35.337,-97.491,342,30.926,3,351,-1.307,-0.771,9.395,0
781,35.338,-97.491,342,30.794,3,352,-1.229,-0.897,9.479,0
782,35.338,-97.491,341.9,30.712,3,353,-1.223,-0.687,8.927,0
783,35.338,-97.492,341.6,30.632,3,354,-1.202,-1.049,9.399,0
784,35.339,-97.492,341.2,30.622,3,354,-2.125,-0.92,9.818,0
785,35.339,-97.492,341.2,30.642,3,355,-1.327,-0.685,9.029,0
786,35.339,-97.492,341.3,30.65,3,355,-1.207,-0.775,9.487,0
787,35.339,-97.492,341.4,30.8,3,355,-1.208,-0.823,9.586,0
788,35.34,-97.492,341.5,31,3,355,-1.143,-0.928,9.609,0
789,35.34,-97.492,341.4,31.2,3,355,-1.186,-0.801,9.155,0
790,35.34,-97.492,341.3,31.42,3,355,-1.248,-0.923,9.37,0
791,35.34,-97.492,341.2,31.8,3,355,-1.338,-0.924,9.621,0
792,35.341,-97.493,341.3,32.12,3,355,-1.357,-0.832,9.606,1
793,35.341,-97.493,341.4,32.42,3,355,-1.421,-0.975,9.688,1
794,35.341,-97.493,341.2,32.651,3,355,-1.228,-0.914,9.633,0
795,35.342,-97.493,340.4,31.561,3,355,-1.235,-0.922,9.762,0
796,35.342,-97.493,340.8,32.41,3,355,-1.176,-0.648,9.175,0
797,35.342,-97.493,341.1,33.25,3,355,-1.204,-0.509,9.143,0
798,35.342,-97.493,341.2,33.35,3,355,-1.343,-0.423,9.442,0
799,35.343,-97.493,341.6,33.49,3,356,-1.222,-0.562,9.38,0
800,35.343,-97.493,341.6,33.57,3,356,-1.203,-0.57,9.681,0
801,35.343,-97.494,341.6,33.67,3,356,-0.928,-0.258,8.679,1
802,35.344,-97.494,341.9,33.75,3,356,-1.403,-0.079,10.088,0
803,35.344,-97.494,342.6,33.841,3,355,-1.549,0.023,9.768,0
804,35.344,-97.494,343.4,33.65,3,355,-1.517,-0.035,9.771,0
805,35.344,-97.494,345,33.991,3,355,-1.233,-0.21,9.648,0
806,35.345,-97.494,345.8,33.992,3,354,-1.365,-0.062,9.773,0
807,35.345,-97.494,346.6,33.882,3,353,-1.498,0.103,10.139,0
808,35.345,-97.494,348.1,33.7,3,353,-1.492,0.099,10.096,0
809,35.346,-97.494,349.4,33.53,3,352,-1.436,0.016,10.022,0
810,35.346,-97.494,350.6,33.131,3,353,-1.457,0.215,9.793,0
811,35.346,-97.494,351.9,32.781,3,353,-1.333,0.02,9.674,0
812,35.347,-97.495,353,32.491,3,354,-1.193,-0.069,9.513,0
813,35.347,-97.495,353.9,32.141,3,353,-1.198,-0.068,9.895,0
814,35.347,-97.495,354.8,31.721,3,353,-1.198,-0.16,10.075,0
815,35.347,-97.495,355.7,31.251,3,354,-1.357,-0.069,9.793,0
816,35.348,-97.495,356.7,31,3,354,-1.354,-0.294,9.894,0
817,35.348,-97.495,357.8,30.861,3,354,-1.266,-0.359,9.406,0
818,35.348,-97.495,358.5,30.801,3,355,-1.393,-0.351,9.618,0
819,35.349,-97.495,359.1,30.761,3,355,-1.385,-0.422,9.997,0
820,35.349,-97.495,359.6,30.27,3,356,-1.29,-0.124,8.873,0
821,35.349,-97.495,359.8,30.301,3,356,-1.521,-0.725,9.381,0
822,35.349,-97.495,359.9,30.871,3,355,-1.211,-0.795,9.288,0
823,35.35,-97.495,359.8,31.101,3,355,-0.785,-0.785,9.515,0
824,35.35,-97.495,359.8,31.121,3,355,-0.759,-0.78,9.526,0
825,35.35,-97.495,359.7,31.12,3,356,-0.771,-0.533,9.843,0
826,35.35,-97.495,359.5,30.891,3,356,-0.661,-0.344,9.501,0
827,35.351,-97.495,359.4,30.511,3,356,-0.816,-0.431,9.371,0
828,35.351,-97.495,359.6,30.051,3,357,-1,-0.356,9.587,0
829,35.351,-97.495,359.7,29.65,3,357,-0.79,-0.316,9.595,0
830,35.352,-97.495,359.7,29.22,3,358,-0.853,-0.523,9.756,0
831,35.352,-97.495,359.7,28.791,3,358,-0.755,-0.538,9.791,0
832,35.352,-97.495,359.6,28.37,3,358,-0.846,-0.599,9.585,0
833,35.352,-97.495,359.5,28.06,3,359,-1.171,-0.508,9.433,0
834,35.353,-97.495,359.6,27.871,3,359,-1.276,-0.613,9.323,0
835,35.353,-97.495,359.8,27.721,3,359,-1.444,-0.797,9.374,0
836,35.353,-97.495,359.8,27.871,3,359,-1.206,-0.973,9.493,0
837,35.353,-97.495,359.7,28.151,3,360,-1.391,-1.05,9.886,0
838,35.354,-97.495,359.7,28.571,3,360,-1.637,-1.063,9.068,0
840,35.354,-97.495,359.8,29.251,3,360,-1.67,-1.118,9.105,0
840,35.354,-97.495,359.8,29.251,3,360,-1.67,-1.118,9.105,0
841,35.354,-97.495,359.8,29.571,3,360,-1.601,-1.132,9.495,0
842,35.354,-97.495,359.6,30.431,3,360,-1.488,-1.183,9.915,0
843,35.355,-97.495,359.4,31.01,3,360,-1.21,-0.942,9.547,0
844,35.355,-97.495,359.4,31.481,3,358,-1.189,-0.77,9.272,0
845,35.355,-97.495,359.7,31.841,3,359,-0.964,-0.562,9.673,0
846,35.356,-97.495,359.6,32.1,3,360,-0.928,-0.547,9.572,0
847,35.356,-97.495,359.6,31.75,3,361,-1.093,-0.422,9.295,0
848,35.356,-97.495,359.6,31.63,3,362,-1.191,-0.599,9.636,0
849,35.356,-97.495,359.6,31.561,3,362,-1.252,-0.742,9.171,0
850,35.357,-97.495,359.5,31.721,3,362,-1.121,-0.41,9.217,0
851,35.357,-97.495,359.6,31.85,3,362,-1.01,-0.329,9.676,0
852,35.357,-97.495,359.3,31.61,3,363,-1.144,-0.67,9.283,0
853,35.358,-97.495,359.4,31.45,3,363,-1.257,-0.605,9.552,0
854,35.358,-97.495,359.5,31.4,3,364,-1.008,-0.622,9.333,0
855,35.358,-97.495,359.3,31.33,3,364,-0.982,-0.753,9.628,0
856,35.359,-97.495,359.1,31.37,3,365,-1.189,-0.769,9.634,0
857,35.359,-97.495,359.1,31.47,3,365,-1.26,-0.599,9.69,0
858,35.359,-97.495,359.4,31.641,3,365,-1.294,-0.733,9.44,0
859,35.359,-97.495,359.3,31.84,3,365,-1.164,-0.744,9.546,0
860,35.36,-97.495,359.2,32.071,3,366,-1.066,-1.115,9.494,0
861,35.36,-97.495,359.1,32.271,3,366,-1.176,-0.762,9.592,0
862,35.36,-97.495,359.4,32.441,3,367,-1.258,-0.848,9.69,0
863,35.361,-97.495,359.4,32.462,3,367,-0.97,-0.71,9.878,0
864,35.361,-97.495,359.4,32.202,3,367,-1.146,-0.566,9.888,1
865,35.361,-97.495,359.4,32.003,3,368,-1.255,-0.772,9.833,1
866,35.362,-97.495,359.3,32.045,3,369,-1.444,-0.754,9.679,0
867,35.362,-97.495,359.3,32.124,3,369,-1.294,-0.845,10.002,0
868,35.362,-97.495,359.3,32.064,3,370,-1.42,-0.693,9.585,0
869,35.362,-97.495,359.3,32.123,3,371,-1.18,-0.782,9.389,0
870,35.363,-97.495,359.3,32.292,3,371,-1.481,-0.903,9.894,0
871,35.363,-97.495,359.3,32.421,3,371,-1.172,-0.721,10.074,0
872,35.363,-97.495,359.4,32.25,3,371,-1.14,-1.053,10.938,0
873,35.364,-97.495,359.4,32.12,3,371,-1.105,-0.621,9.767,0
874,35.364,-97.495,359.7,32.171,3,371,-0.794,-0.506,9.94,0
875,35.364,-97.495,0.2,32.19,3,371,-0.626,-0.235,9.591,0
876,35.364,-97.495,0.5,32.14,3,371,-0.745,-0.641,9.291,0
877,35.365,-97.495,0.1,32.121,3,372,-0.849,-0.792,9.98,0
878,35.365,-97.495,359.5,32.27,3,372,-1.025,-0.625,9.654,0
879,35.365,-97.495,359.4,32.44,3,373,-1.017,-0.849,9.679,0
880,35.366,-97.495,359.3,32.53,3,371,-1.027,-0.55,9.578,0
881,35.366,-97.495,359.4,32.7,3,371,-1.011,-0.605,10.012,0
882,35.366,-97.495,359.3,32.711,3,372,-0.884,-0.661,9.718,0
883,35.366,-97.495,359.3,32.621,3,373,-0.936,-0.72,9.579,0
884,35.367,-97.495,359.2,32.482,3,373,-1.058,-0.688,9.397,0
885,35.367,-97.495,359.3,32.451,3,370,-1.217,-0.872,9.484,0
886,35.367,-97.495,359.3,32.622,3,372,-0.914,-0.693,9.653,0
887,35.368,-97.495,359,32.771,3,372,-1.184,-0.745,9.923,0
888,35.368,-97.495,359.4,32.883,3,373,-1.101,-0.663,9.265,0
889,35.368,-97.495,359.4,32.922,3,374,-0.754,-0.436,9.609,0
890,35.369,-97.495,359.3,32.642,3,374,-0.537,-0.266,9.57,0
891,35.369,-97.495,359.2,32.112,3,375,-0.92,-0.252,9.531,0
892,35.369,-97.495,359.3,31.632,3,375,-0.738,-0.255,9.829,0
893,35.369,-97.495,359.4,31.201,3,375,-0.912,-0.498,9.816,0
894,35.37,-97.495,359.4,30.941,3,376,-0.801,-0.564,9.606,0
895,35.37,-97.495,359.3,30.75,3,376,-0.861,-0.539,9.74,0
896,35.37,-97.495,359.3,30.61,3,376,-0.655,-0.312,9.437,0
897,35.37,-97.495,359.3,30.29,3,376,-0.673,-0.225,9.285,1
898,35.371,-97.495,359.2,29.93,3,377,-0.834,-0.29,9.406,1
899,35.371,-97.495,359.2,29.55,3,377,-0.756,-0.411,9.704,1
900,35.371,-97.495,359.3,29.24,3,377,-0.506,-0.367,9.546,1
901,35.372,-97.495,359.1,28.86,3,377,-0.727,-0.451,9.527,1
902,35.372,-97.495,359.1,28.53,3,377,-0.89,-0.415,10.038,0
903,35.372,-97.495,359.3,28.3,3,377,-1.13,-0.768,9.751,0
904,35.372,-97.495,359.5,28.46,3,377,-1.065,-0.805,9.12,0
905,35.373,-97.495,359.6,28.811,3,378,-0.93,-0.836,9.226,0
906,35.373,-97.495,359.5,29.12,3,378,-1.228,-0.844,9.915,0
908,35.373,-97.495,359.4,29.43,3,378,-1.192,-0.846,9.604,0
908,35.373,-97.495,359.4,29.43,3,378,-1.192,-0.846,9.604,0
909,35.373,-97.495,359.7,29.42,3,379,-1.241,-0.81,9.803,0
910,35.374,-97.495,359.1,30.041,3,378,-1.31,-0.829,9.564,0
911,35.374,-97.495,359.3,30.4,3,379,-1.076,-0.893,9.196,0
912,35.374,-97.495,359.4,30.79,3,379,-1.251,-0.935,9.102,0
913,35.374,-97.495,359.4,31.2,3,380,-1.252,-0.911,9.604,0
914,35.375,-97.495,359.6,31.65,3,380,-1.289,-0.869,8.981,0
915,35.375,-97.495,359.7,32.071,3,380,-1.27,-1.007,9.677,0
916,35.375,-97.495,359.7,32.332,3,381,-1.306,-0.968,10.142,0
917,35.376,-97.495,359.7,32.594,3,382,-1.302,-0.89,9.781,0
918,35.376,-97.495,359.7,32.804,3,382,-1.359,-0.891,9.722,0
919,35.377,-97.495,359.9,33.422,3,383,-1.26,-0.896,9.449,0
920,35.377,-97.495,359.6,33.555,3,384,-1.227,-0.729,9.804,0
921,35.377,-97.495,0,33.541,3,384,-0.794,-0.186,8.365,0
922,35.377,-97.495,0.1,33.25,3,384,-0.907,-0.205,8.826,0
923,35.378,-97.495,359.9,32.83,3,384,-0.378,-0.238,8.951,0
924,35.378,-97.495,0,32.51,3,384,-0.176,-0.124,9.398,0
925,35.378,-97.495,359.8,32.43,3,381,-0.82,-0.53,9.445,0
926,35.379,-97.495,359.6,32.44,3,382,-0.914,-0.486,8.956,0
927,35.379,-97.495,359.5,32.5,3,383,-0.616,-0.31,9.593,0
928,35.379,-97.495,359.7,32.52,3,383,-0.676,-0.144,9.943,0
929,35.379,-97.495,359.6,32.42,3,383,-0.831,-0.583,9.789,0
930,35.38,-97.495,359.6,32.81,3,382,-0.835,-0.881,10.214,0
931,35.38,-97.495,359.7,33.09,3,382,-0.839,-0.509,9.865,0
932,35.38,-97.495,359.7,33.15,3,382,-0.745,-0.551,9.803,0
933,35.381,-97.495,359.7,33.11,3,382,-0.716,-0.369,9.302,0
934,35.381,-97.495,359.7,33.05,3,382,-0.879,-0.243,9.272,0
935,35.381,-97.495,359.8,32.82,3,381,-1.039,-0.277,9.421,0
936,35.382,-97.495,0.1,32.74,3,381,-0.773,-0.393,9.436,0
937,35.382,-97.495,359.1,32.27,3,381,-0.846,-0.232,9.635,0
938,35.382,-97.495,359.8,32.881,3,379,-0.957,-0.31,9.759,0
939,35.382,-97.495,359.2,33.121,3,378,-0.839,-0.212,9.225,0
940,35.383,-97.495,359.7,32.88,3,377,-0.647,-0.463,9.294,0
941,35.383,-97.495,359.8,33.498,3,374,-0.626,-0.4,9.966,0
942,35.383,-97.495,359.8,33.619,3,373,-0.788,-0.135,9.804,1
943,35.384,-97.495,359.8,33.659,3,372,-0.581,-0.264,9.846,0
944,35.384,-97.495,359.7,33.638,3,371,-0.749,-0.104,9.544,0
945,35.384,-97.495,359.7,33.595,3,370,-0.694,-0.281,10.244,0
946,35.385,-97.495,359.8,33.93,3,369,-0.986,0.122,9.409,0
947,35.385,-97.495,0.4,33.47,3,369,-0.566,-0.268,9.452,0
948,35.385,-97.495,0.6,33.08,3,368,-0.66,-0.584,9.969,0
949,35.385,-97.495,359.6,32.52,3,369,-0.798,-0.331,9.941,0
950,35.386,-97.495,359.6,32.18,3,369,-0.962,-0.279,9.485,0
951,35.386,-97.495,359.9,31.93,3,369,-0.983,-0.426,9.352,0
952,35.386,-97.495,359.9,31.91,3,369,-1.332,-0.967,9.127,0
953,35.387,-97.495,359.8,32.45,3,370,-1.151,-0.887,9.393,0
954,35.387,-97.495,359.7,32.911,3,369,-1.087,-0.674,9.396,0
955,35.387,-97.495,359.6,33.43,3,367,-1.03,-0.529,9.605,0
956,35.388,-97.495,359.8,33.68,3,367,-0.784,-0.324,9.601,0
957,35.388,-97.495,359.6,33.56,3,367,-0.93,-0.325,9.727,1
958,35.388,-97.495,359.7,33.48,3,367,-0.982,-0.512,9.366,1
959,35.388,-97.495,359.6,33.68,3,366,-1.189,-0.54,9.451,1
960,35.389,-97.495,359.7,33.93,3,366,-0.819,-0.232,9.282,1
961,35.389,-97.495,359.7,33.87,3,366,-0.609,-0.163,9.775,0
962,35.389,-97.495,359.8,33.7,3,366,-0.772,-0.23,9.788,0
963,35.39,-97.495,359.7,33.47,3,366,-0.707,-0.098,9.511,0
964,35.39,-97.495,359.8,33.32,3,367,-0.766,-0.248,9.582,0
965,35.39,-97.495,359.7,33.14,3,366,-0.678,-0.168,9.597,0
966,35.391,-97.495,359.8,32.93,3,367,-0.816,-0.176,10.035,0
967,35.391,-97.495,359.9,32.61,3,368,-0.77,-0.253,9.897,0
968,35.391,-97.495,359.9,32.39,3,368,-0.724,-0.334,9.559,0
969,35.391,-97.495,359.8,32.2,3,368,-0.782,-0.601,10.024,0
970,35.392,-97.495,0.7,32,3,367,-1.482,-0.707,9.782,0
971,35.392,-97.495,0.2,32.17,3,367,-1.46,-0.512,9.5,0
972,35.392,-97.495,359.5,32.65,3,366,-1.372,-0.899,9.331,0
974,35.393,-97.495,0.1,33.29,3,367,-1.303,-0.874,9.372,0
974,35.393,-97.495,0.1,33.29,3,367,-1.303,-0.874,9.372,0
975,35.393,-97.495,0,33.79,3,368,-1.273,-0.876,9.726,0
976,35.393,-97.495,0,34.3,3,368,-1.227,-1.027,9.688,0
977,35.394,-97.495,359.9,34.75,3,368,-1.194,-0.898,9.577,0
978,35.394,-97.495,0,35.25,3,367,-1.057,-0.789,9.581,0
979,35.394,-97.495,0,35.591,3,367,-0.822,-0.355,9.948,0
980,35.395,-97.495,0.1,35.8,3,367,-0.629,-0.166,9.878,0
981,35.395,-97.495,0,35.46,3,366,-0.572,-0.05,9.76,0
982,35.395,-97.495,359.8,35.05,3,366,-0.649,-0.114,9.401,0
983,35.395,-97.495,0.2,34.73,3,365,-0.75,-0.111,9.893,0
984,35.396,-97.495,0.1,34.11,3,365,-0.658,-0.144,9.439,0
985,35.396,-97.495,0,33.68,3,365,-0.652,-0.212,9.499,0
986,35.396,-97.495,359.9,33.25,3,365,-0.703,-0.145,9.341,0
987,35.397,-97.495,359.8,32.89,3,365,-0.614,-0.262,9.336,0
988,35.397,-97.495,359.8,32.59,3,364,-0.754,-0.213,9.6,0
989,35.398,-97.495,359.9,32.15,3,364,-0.741,-0.277,9.369,0
990,35.398,-97.495,359.8,32.25,3,365,-0.738,-0.287,9.407,0
991,35.398,-97.495,0,32.402,3,364,-0.628,-0.269,9.748,1
992,35.398,-97.495,359.9,32.211,3,363,-0.687,-0.227,9.63,0
993,35.399,-97.495,359.9,32,3,363,-0.698,-0.296,9.98,0
994,35.399,-97.495,359.4,31.76,3,362,-0.708,-0.108,9.957,0
995,35.399,-97.495,359.8,32.061,3,362,-0.711,-0.531,9.958,0
996,35.4,-97.495,0.1,31.2,3,362,-0.967,-0.415,10.103,0
997,35.4,-97.495,359.9,31.461,3,361,-0.818,-0.543,10.181,0
998,35.4,-97.495,359.8,31.391,3,361,-1.129,-0.585,9.751,0
999,35.4,-97.495,359.9,31.341,3,362,-1.14,-0.554,9.695,0
1000,35.401,-97.495,0.1,31.411,3,364,-0.964,-0.732,9.631,0
1001,35.401,-97.495,359.9,31.511,3,364,-0.959,-0.738,9.769,0
1002,35.401,-97.495,359.7,31.572,3,364,-1.471,-0.291,9.302,0
1003,35.402,-97.495,1.1,31.742,3,365,-1.639,0.016,9.429,0
1004,35.402,-97.495,2.8,32.05,3,366,-1.71,-0.118,9.431,0
1005,35.402,-97.495,4.1,32.34,3,367,-1.464,-0.233,9.789,0
1006,35.402,-97.495,5,32.7,3,367,-1.096,-0.045,9.099,0
1007,35.403,-97.495,5.8,32.78,3,366,-1.034,-0.001,9.396,0
1008,35.403,-97.495,6.7,32.73,3,366,-1.224,0.007,9.359,0
1009,35.403,-97.495,7.9,32.99,3,365,-1.328,0.083,10.336,0
1010,35.404,-97.495,9.1,33.021,3,364,-1.084,0.228,10.056,0
1011,35.404,-97.495,10.5,32.73,3,364,-0.907,0.188,9.621,0
1012,35.404,-97.495,11.5,32.55,3,364,-0.916,0.132,10.121,0
1013,35.404,-97.495,12.2,32.28,3,363,-0.817,0.23,9.777,0
1014,35.405,-97.494,13.1,31.89,3,363,-0.979,0.199,10.217,0
1015,35.405,-97.494,14.4,31.501,3,362,-0.891,0.311,9.67,0
1016,35.405,-97.494,15.5,31.22,3,362,-1.022,0.189,10.214,0
1017,35.406,-97.494,16.5,30.563,3,365,-0.673,0.236,9.625,0
1018,35.406,-97.494,17.4,30.092,3,365,-0.207,-0.291,8.941,0
1019,35.406,-97.494,17.7,29.962,3,366,-0.548,-0.553,9.041,0
1020,35.406,-97.494,17.6,30.051,3,367,-0.676,-0.74,9.439,0
1021,35.407,-97.494,17.5,30.19,3,368,-0.834,-0.832,9.639,0
1022,35.407,-97.494,17.3,30.43,3,368,-1.055,-0.69,9.461,0
1023,35.407,-97.494,17.4,30.73,3,368,-0.995,-0.6,9.401,0
1024,35.407,-97.493,17.4,31.031,3,368,-1.029,-0.527,9.313,1
1025,35.408,-97.493,17.6,31.301,3,366,-1.03,-0.625,9.671,1
1026,35.408,-97.493,17.6,31.57,3,367,-1.177,-0.687,10.07,0
1027,35.408,-97.493,17.7,31.87,3,368,-0.679,-0.535,10.328,0
1028,35.408,-97.493,17.6,32.16,3,369,-1.398,-0.222,10.669,0
1029,35.409,-97.493,17.6,32.38,3,369,-0.41,0.102,10.053,0
1030,35.409,-97.493,17.5,32.19,3,370,-0.755,0.268,9.235,0
1031,35.409,-97.493,17.5,31.88,3,369,-0.762,0.239,9.464,0
1032,35.41,-97.493,17.7,31.83,3,369,-1.02,-0.53,10.109,0
1033,35.41,-97.493,18.1,31.94,3,369,-1.059,-0.401,9.257,0
1034,35.41,-97.492,17.5,32.431,3,369,-0.657,-0.301,9.228,0
1035,35.41,-97.492,17.3,32.731,3,368,-0.667,-0.25,9.513,0
1036,35.411,-97.492,17.3,32.922,3,368,-0.697,-0.259,9.617,0
1037,35.411,-97.492,17.4,33.153,3,367,-0.421,-0.304,9.462,0
1038,35.411,-97.492,17.4,33.313,3,366,-0.497,-0.022,9.697,0
1039,35.412,-97.492,17.5,33.243,3,366,-0.548,-0.058,9.641,0
1040,35.412,-97.492,17.6,33.263,3,364,-0.418,-0.137,9.787,0
1042,35.412,-97.492,17.7,33.223,3,363,-0.409,-0.271,10.066,0
1042,35.412,-97.492,17.7,33.223,3,363,-0.409,-0.271,10.066,0
1043,35.412,-97.492,17.6,33.162,3,362,-0.433,-0.228,9.771,0
1044,35.413,-97.491,17.4,33.143,3,361,-0.399,-0.015,9.339,0
1045,35.413,-97.491,17.4,33.093,3,361,-0.525,-0.044,9.591,0
1046,35.413,-97.491,17.4,32.86,3,361,-0.561,0.068,9.94,0
1047,35.414,-97.491,17.4,33.091,3,360,-0.422,-0.205,9.842,0
1048,35.414,-97.491,17.6,32.92,3,359,-0.614,-0.551,9.565,0
1049,35.414,-97.491,17.9,32.77,3,359,-0.996,-0.56,9.703,0
