time,lat,lng,bearing,spd,acc,alt,accx,accy,accz,stable,
0,35.553,-97.514,357.99,29.432,0.47,14.317,39.56,0.005,0.198,0.1045
1,35.553,-97.514,357.97,29.644,0.46,14.317,39.56,0.005,0.142,0.2166
2,35.553,-97.514,358.02,29.483,0.45,14.317,39.56,0.005,0.11,0.2549
3,35.554,-97.514,357.75,29.6,0.52,14.317,39.56,0.005,0.031,359.99
4,35.554,-97.514,358.05,29.694,0.49,14.317,39.33,0.005,0.073,0.1362
5,35.554,-97.514,358.51,29.609,0.52,14.317,39.33,0.005,0.122,0.1593
6,35.555,-97.514,358.25,29.465,0.5,14.317,39.33,0.005,0.05,0.5198
7,35.555,-97.514,358.32,29.571,0.47,14.317,57.96,0.005,0.055,0.1904
8,35.555,-97.514,358.21,29.808,0.46,14.317,39.33,0.005,0.017,0.0102
9,35.555,-97.514,357.75,29.92,0.48,14.317,39.33,0.005,-0.071,0.2269
10,35.556,-97.514,357.45,30.119,0.46,14.317,57.96,0.005,-0.108,359.86
11,35.556,-97.514,357.49,30.124,0.45,14.317,57.96,0.005,-0.099,0.0938
12,35.556,-97.514,357.14,30.1,0.49,14.317,57.96,0.005,-0.15,0.2021
13,35.556,-97.514,356.86,30.14,0.46,14.317,57.96,0.005,-0.189,0.2648
14,35.557,-97.514,356.45,30.04,0.46,14.317,57.96,0.005,-0.221,0.1005
15,35.557,-97.514,355.98,29.812,0.48,14.317,57.96,0.005,-0.263,359.99
16,35.557,-97.514,355.79,29.526,0.75,14.317,57.73,0.005,-0.275,0.2067
17,35.558,-97.514,355.58,29.302,0.63,14.317,57.73,0.005,-0.272,0.1834
18,35.558,-97.514,354.62,29.093,0.6,14.317,39.33,0.005,-0.341,0.122
19,35.558,-97.514,354.42,28.757,0.48,14.317,39.33,0.005,-0.266,0.211
20,35.558,-97.514,354.65,28.628,0.49,14.317,39.33,0.005,-0.168,0.7577
21,35.559,-97.514,354.26,28.353,0.47,14.317,39.33,0.005,-0.182,0.2131
22,35.559,-97.514,354.01,28.09,0.46,14.317,39.33,0.005,-0.191,359.51
23,35.559,-97.514,353.4,27.891,0.4,14.317,39.33,0.005,-0.274,359.54
24,35.559,-97.514,353.36,27.633,0.4,14.317,39.33,0.005,-0.292,359.64
25,35.56,-97.514,353.13,27.623,0.45,14.317,39.33,0.005,-0.329,359.7
26,35.56,-97.514,353.34,27.671,0.41,14.317,39.33,0.005,-0.259,359.72
27,35.56,-97.514,353.25,27.77,0.51,14.317,39.33,0.005,-0.241,359.44
28,35.56,-97.514,353.16,27.894,0.48,14.317,39.33,0.005,-0.226,359.76
29,35.561,-97.514,353.23,28.1,0.41,14.317,57.73,0.005,-0.187,359.88
30,35.561,-97.514,353.64,28.322,0.41,14.317,39.33,0.005,-0.051,359.7
31,35.561,-97.514,353.65,28.597,0.46,14.317,39.33,0.005,-0.023,359.8
32,35.561,-97.514,353.9,28.814,0.43,14.317,39.33,0.005,0.051,359.89
33,35.562,-97.514,354.1,28.993,0.4,14.317,39.33,0.005,0.111,359.81
34,35.562,-97.514,354.09,28.678,0.39,14.317,39.33,0.005,0.105,359.7
35,35.562,-97.514,353.94,28.335,0.39,14.317,39.33,0.005,0.087,359.64
36,35.562,-97.514,354,28.17,0.43,14.317,39.33,0.005,0.095,359.46
37,35.563,-97.514,354.13,28.218,0.44,14.317,39.33,0.005,0.096,359.58
38,35.563,-97.514,354.58,28.042,0.47,14.317,39.33,0.005,0.135,359.84
39,35.563,-97.514,354.76,27.797,0.45,14.317,39.33,0.005,0.117,0.0591
40,35.563,-97.514,354.81,27.607,0.46,14.317,39.33,0.005,0.091,359.6
41,35.564,-97.514,354.46,27.232,0.48,14.317,39.33,0.005,0.014,359.85
42,35.564,-97.514,354.11,26.859,0.47,14.317,39.33,0.005,-0.032,359.73
43,35.564,-97.514,353.76,26.688,0.51,14.317,39.33,0.005,-0.086,359.81
44,35.564,-97.514,353.53,26.777,0.85,14.317,39.33,0.005,-0.106,359.77
45,35.565,-97.514,353.3,26.988,0.57,14.317,39.33,0.005,-0.127,0.0726
46,35.565,-97.514,353.21,27.232,0.47,14.317,39.33,0.005,-0.107,359.82
47,35.565,-97.514,353.23,27.532,0.6,14.317,39.33,0.005,-0.076,359.3
48,35.565,-97.514,353.43,27.639,0.92,14.317,39.33,0.005,-0.003,359.51
49,35.566,-97.514,353.76,28.625,1.54,14.317,39.1,0.005,0.052,357.92
50,35.566,-97.514,353.95,28.308,1.61,14.317,57.5,0.005,0.084,357.91
51,35.566,-97.514,354.6,27.791,1.05,14.317,39.33,0.005,0.169,358.82
52,35.566,-97.514,354.78,27.793,1.08,14.317,39.1,0.005,0.176,359.59
53,35.567,-97.514,355.38,27.74,0.96,14.317,39.33,0.005,0.249,359.93
54,35.567,-97.514,356.67,27.506,0.72,14.317,39.33,0.005,0.422,0.0268
55,35.567,-97.514,357.95,27.367,0.51,14.317,39.33,0.005,0.514,359.8
56,35.567,-97.514,358.85,27.3,0.45,14.317,39.1,0.005,0.591,359.61
57,35.568,-97.514,359.41,27.322,0.46,14.317,39.1,0.005,0.595,359.61
58,35.568,-97.514,359.65,27.345,0.45,14.317,39.1,0.005,0.563,359.6
59,35.568,-97.514,360.05,27.436,0.46,14.317,39.1,0.005,0.539,359.79
60,35.568,-97.514,360.57,27.579,0.54,14.317,39.1,0.005,0.529,359.64
61,35.569,-97.514,360.12,27.795,0.44,14.317,39.1,0.005,0.415,359.75
62,35.569,-97.514,359.58,28.031,0.43,14.317,39.1,0.005,0.343,359.82
63,35.569,-97.514,359.42,28.214,0.43,14.317,39.1,0.005,0.31,359.85
64,35.569,-97.514,359.11,28.345,0.46,14.317,39.1,0.005,0.248,359.63
65,35.57,-97.514,358.95,28.448,0.5,14.317,39.1,0.005,0.19,359.89
66,35.57,-97.514,358.57,28.682,0.44,14.317,39.1,0.005,0.103,359.82
67,35.57,-97.514,358.25,28.997,0.51,14.317,39.1,0.005,0.041,359.84
68,35.57,-97.514,358.22,29.213,0.54,14.317,39.1,0.005,0.05,359.65
69,35.571,-97.514,358.47,29.426,0.56,14.317,39.1,0.005,0.094,359.77
70,35.571,-97.514,358.27,29.342,0.55,14.317,46.92,0.005,0.041,359.99
71,35.571,-97.514,358.28,29.336,0.57,14.317,46.92,0.005,0.032,359.89
72,35.571,-97.514,358.19,29.06,0.93,14.317,46.92,0.005,0.006,359.92
73,35.572,-97.514,358.26,29.022,0.63,14.317,46.92,0.005,0.024,359.83
74,35.572,-97.514,358.37,29.019,0.6,14.317,46.92,0.005,0.046,359.84
75,35.572,-97.514,358.27,28.98,0.6,14.317,46.92,0.005,0.014,359.89
76,35.572,-97.514,358.03,28.936,0.58,14.317,46.92,0.005,-0.028,0.0118
77,35.573,-97.514,357.99,28.868,0.58,14.317,46.92,0.005,-0.035,359.8
78,35.573,-97.514,357.29,28.758,0.58,14.317,46.92,0.005,-0.139,359.98
79,35.573,-97.514,356.26,28.518,0.77,14.317,39.1,0.005,-0.25,359.83
80,35.574,-97.514,355.47,28.457,0.82,14.317,39.1,0.005,-0.285,359.89
81,35.574,-97.514,354.78,28.038,0.94,14.317,39.1,0.005,-0.302,0.0721
82,35.574,-97.514,354.46,27.95,0.96,14.317,39.1,0.005,-0.264,0.0531
83,35.574,-97.514,353.86,28.001,0.72,14.317,39.1,0.005,-0.283,359.65
84,35.575,-97.514,353.42,28.096,0.75,14.317,39.1,0.005,-0.295,0.0437
85,35.575,-97.514,352.85,28.063,0.52,14.317,39.1,0.005,-0.301,359.82
86,35.575,-97.514,351.36,28.175,0.47,14.317,39.1,0.005,-0.353,359.61
87,35.575,-97.514,351.28,28.141,0.51,14.317,39.1,0.005,-0.287,359.4
88,35.576,-97.514,351.15,27.871,0.56,14.317,39.1,0.005,-0.254,359.36
89,35.576,-97.514,351.48,27.475,0.79,14.317,39.1,0.005,-0.127,359.17
90,35.576,-97.514,351.59,27.49,0.71,14.317,39.1,0.005,-0.049,0.0912
91,35.576,-97.514,351.55,27.363,0.6,14.317,39.1,0.005,0.025,0.0442
92,35.577,-97.514,352.37,27.274,0.45,14.317,39.1,0.005,0.201,359.99
93,35.577,-97.514,352.88,27.234,0.45,14.317,38.87,0.005,0.275,359.78
94,35.577,-97.514,353.13,27.209,0.44,14.317,38.87,0.005,0.311,359.56
95,35.577,-97.514,353.86,27.294,0.44,14.317,38.87,0.005,0.399,359.38
96,35.578,-97.514,353.71,27.545,0.6,14.317,38.87,0.005,0.392,359.38
97,35.578,-97.514,354.15,27.734,0.42,14.317,38.87,0.005,0.454,359.37
98,35.578,-97.514,354.57,27.881,0.42,14.317,38.87,0.005,0.523,359.53
99,35.578,-97.514,355.24,28.022,0.42,14.317,38.87,0.005,0.6,359.84
100,35.579,-97.514,355.79,28.166,0.42,14.317,38.87,0.005,0.656,359.81
101,35.579,-97.514,356.19,27.737,0.42,14.317,38.87,0.005,0.638,359.6
102,35.579,-97.514,356.28,27.588,0.41,14.317,38.87,0.005,0.538,359.51
103,35.579,-97.514,356.34,27.521,0.57,14.317,38.87,0.005,0.476,359.53
104,35.58,-97.514,356.33,27.541,0.43,14.317,38.87,0.005,0.397,359.78
105,35.58,-97.514,356.42,27.578,0.47,14.317,38.87,0.005,0.328,359.89
106,35.58,-97.514,356.36,27.677,0.52,14.317,38.87,0.005,0.258,359.79
107,35.58,-97.514,356.26,27.809,0.7,14.317,38.87,0.005,0.212,359.68
108,35.581,-97.514,355.71,27.942,0.54,14.317,38.87,0.005,0.061,359.67
109,35.581,-97.514,355.34,28.256,0.58,14.317,38.87,0.005,-0.016,359.57
110,35.581,-97.514,355.17,28.421,0.74,14.317,38.87,0.005,0.027,0.2042
111,35.581,-97.514,354.37,28.139,0.47,14.317,38.87,0.005,-0.095,359.83
112,35.582,-97.514,353.57,28.254,0.51,14.317,38.87,0.005,-0.186,359.82
113,35.582,-97.514,352.94,28.222,0.48,14.317,38.87,0.005,-0.211,359.86
114,35.582,-97.514,353.14,28.558,0.72,14.317,38.87,0.005,-0.096,0.034
115,35.582,-97.514,352.74,28.085,0.93,14.317,38.87,0.005,-0.155,359.62
116,35.583,-97.514,352.31,28.004,0.96,14.317,38.87,0.005,-0.214,359.48
117,35.583,-97.514,351.71,27.831,0.6,14.317,38.87,0.005,-0.281,359.55
118,35.583,-97.514,350.88,27.661,0.54,14.317,38.87,0.005,-0.354,359.72
119,35.583,-97.514,350.22,27.452,0.54,14.317,38.87,0.005,-0.371,0.2562
120,35.584,-97.514,349.06,27.332,0.55,14.317,38.87,0.005,-0.441,0.6839
121,35.584,-97.514,348.73,27.296,0.52,14.317,38.87,0.005,-0.409,1.7586
122,35.584,-97.514,348.6,27.271,0.54,14.317,38.87,0.005,-0.375,3.475
123,35.584,-97.514,348,27.114,0.68,14.317,38.87,0.005,-0.389,4.3768
124,35.585,-97.514,348.63,26.977,1.29,14.317,38.87,0.005,-0.168,6.2717
125,35.585,-97.514,348.62,27.452,1.2,14.317,45.31,0.005,-0.141,9.1387
126,35.585,-97.514,348.89,27.401,0.97,14.317,45.31,0.005,-0.088,11.307
127,35.585,-97.514,349.66,27.499,0.71,14.317,38.87,0.005,0.033,13.664
128,35.585,-97.513,349.73,27.334,0.72,14.317,38.87,0.005,0.027,15.269
129,35.586,-97.513,350.34,27.217,0.77,14.317,38.87,0.005,0.091,16.728
130,35.586,-97.513,350.67,27.05,0.79,14.317,38.87,0.005,0.115,17.902
131,35.586,-97.513,350.85,27.04,0.82,14.317,38.87,0.005,0.148,19.541
132,35.586,-97.513,351.11,27.149,0.92,14.317,38.87,0.005,0.2,21.063
133,35.587,-97.513,351.33,26.999,0.96,14.317,38.87,0.005,0.221,23.129
134,35.587,-97.513,351.9,26.983,1.18,14.317,38.87,0.005,0.271,24.468
135,35.587,-97.513,352.05,26.435,1.1,14.317,38.87,0.005,0.236,26.478
136,35.587,-97.513,352.4,25.932,1.13,14.317,38.87,0.005,0.251,27.803
137,35.587,-97.512,352.05,25.342,1.21,14.317,38.64,0.005,0.149,29.407
138,35.588,-97.512,351.79,25.014,1.23,14.317,38.64,0.005,0.149,30.414
139,35.588,-97.512,351.04,24.656,1.01,14.317,38.64,0.005,0.118,30.13
140,35.588,-97.512,351.7,24.307,0.98,14.317,38.64,0.005,0.2,29.915
141,35.588,-97.512,352.67,23.628,0.95,14.317,38.64,0.005,0.247,30.674
142,35.588,-97.512,352.89,23.168,0.95,14.317,45.54,0.005,0.214,30.428
143,35.589,-97.512,353.42,22.712,0.95,14.317,45.54,0.005,0.311,31.015
144,35.589,-97.512,354.2,22.329,0.93,14.317,45.54,0.005,0.342,30.837
145,35.589,-97.511,355.07,22.156,0.94,14.317,38.64,0.005,0.361,30.714
146,35.589,-97.511,355.79,22.36,0.91,14.317,38.64,0.005,0.379,30.858
147,35.589,-97.511,355.83,23.183,0.84,14.317,38.64,0.005,0.261,30.296
148,35.589,-97.511,356.95,23.054,0.91,14.317,38.64,0.005,0.375,31.046
149,35.59,-97.511,357.6,22.788,0.7,14.317,38.64,0.005,0.404,30.941
150,35.59,-97.511,358.45,22.737,0.68,14.317,38.64,0.005,0.472,30.838
151,35.59,-97.511,359.13,22.573,0.7,14.317,38.64,0.005,0.51,30.396
152,35.59,-97.511,359.48,22.271,0.68,14.317,38.64,0.005,0.468,30.229
153,35.59,-97.51,358.68,22.142,0.91,14.317,38.64,0.005,0.262,30.357
154,35.591,-97.51,358.35,21.761,0.63,14.317,38.64,0.005,0.178,30.509
155,35.591,-97.51,358.63,21.365,0.92,14.317,38.64,0.005,0.227,30.642
156,35.591,-97.51,358.5,21.266,0.86,14.317,38.64,0.005,0.155,31.404
157,35.591,-97.51,357.98,20.968,0.71,14.317,38.64,0.005,0.052,34.1
158,35.591,-97.51,357.01,20.745,0.78,14.317,38.64,0.005,-0.056,37.506
159,35.591,-97.51,356.04,20.719,1.07,14.317,38.64,0.005,-0.23,40.487
160,35.591,-97.509,355.7,20.497,1.05,14.317,38.64,0.005,-0.262,43.138
161,35.592,-97.509,355.08,20.44,0.82,14.317,38.64,0.005,-0.326,46.794
162,35.592,-97.509,354.2,20.245,0.65,14.317,38.64,0.005,-0.401,49.814
163,35.592,-97.509,353.31,19.898,0.56,14.317,38.64,0.005,-0.49,54.157
164,35.592,-97.509,352.87,19.981,0.56,14.317,38.64,0.005,-0.491,57.645
165,35.592,-97.509,352.38,19.699,0.55,14.317,38.64,0.005,-0.443,61.034
166,35.592,-97.508,351.75,19.608,0.46,14.317,38.64,0.005,-0.409,62.761
167,35.592,-97.508,351.73,19.639,0.44,14.317,38.64,0.005,-0.421,63.142
168,35.592,-97.508,351.39,19.703,0.45,14.317,38.64,0.005,-0.348,62.684
169,35.592,-97.508,350.74,19.403,0.42,14.317,38.64,0.005,-0.331,61.609
170,35.592,-97.508,350.67,19.136,0.4,14.317,38.64,0.005,-0.236,61.406
171,35.592,-97.507,350.47,18.835,0.4,14.317,38.64,0.005,-0.246,61.35
172,35.593,-97.507,349.9,18.508,0.4,14.317,38.64,0.005,-0.288,61.516
173,35.593,-97.507,349.32,18.194,0.4,14.317,38.64,0.005,-0.334,61.83
174,35.593,-97.507,348.69,17.751,0.72,14.317,38.64,0.005,-0.361,61.671
175,35.593,-97.507,348.42,17.525,0.91,14.317,38.64,0.005,-0.334,55.44
176,35.593,-97.507,348.18,17.051,0.82,14.317,38.64,0.005,-0.31,47.596
177,35.593,-97.506,348.16,15.604,0.98,14.317,38.64,0.005,-0.244,41.576
178,35.593,-97.506,348.3,14.986,0.93,14.317,38.64,0.005,-0.161,34.741
179,35.593,-97.506,348.13,14.584,0.87,14.317,38.64,0.005,-0.126,28.183
180,35.593,-97.506,348.06,13.668,0.89,14.317,38.64,0.005,-0.074,22.294
181,35.593,-97.506,347.82,12.647,0.95,14.317,38.41,0.005,-0.106,16.869
182,35.594,-97.506,347.45,11.365,0.99,14.317,38.41,0.005,-0.101,11.743
183,35.594,-97.506,347.09,10.222,0.67,14.317,38.41,0.005,-0.085,6.451
184,35.594,-97.506,346.98,8.833,0.68,14.317,38.41,0.005,-0.048,2.1183
185,35.594,-97.506,346.49,7.924,1,14.317,38.41,0.005,-0.074,0.6542
186,35.594,-97.506,345.94,7.64,1.03,14.317,38.41,0.005,-0.105,1.2717
187,35.594,-97.506,345.68,7.201,0.87,14.317,45.77,0.005,-0.108,1.8562
188,35.594,-97.506,345.37,5.237,0.51,14.317,38.41,0.005,-0.1,0.2336
189,35.594,-97.506,344.75,4.45,0.61,14.317,38.41,0.005,-0.1,358.85
190,35.594,-97.506,344.03,3.476,0.47,14.317,38.41,0.005,-0.08,0.1185
191,35.594,-97.506,343.97,2.423,0.5,14.317,38.41,0.005,-0.034,1.0058
192,35.594,-97.506,343.62,1.343,0.5,14.317,38.41,0.005,-0.056,0.0827
193,35.594,-97.506,343.32,1.073,0.51,14.317,38.41,0.005,-0.073,358.96
194,35.594,-97.506,343.23,1.313,0.42,14.317,38.41,0.005,-0.03,0.7452
195,35.594,-97.506,343.03,2.272,0.4,14.317,38.41,0.005,-0.013,0.4018
196,35.594,-97.506,343.01,2.487,0.41,14.317,38.41,0.005,0.013,0.7514
197,35.594,-97.506,342.85,2.572,0.38,14.317,38.41,0.005,-0.002,0.9937
198,35.594,-97.506,343,3.652,0.41,14.317,38.41,0.005,0.019,1.3369
199,35.594,-97.506,342.89,3.119,0.51,14.317,38.41,0.005,0.008,1.7389
200,35.594,-97.506,342.75,2.038,0.38,14.317,38.41,0.005,-0.028,1.762
201,35.594,-97.506,342.83,1.632,0.38,14.317,38.41,0.005,-0.028,1.1666
202,35.594,-97.506,342.77,2.467,0.37,14.317,38.41,0.005,-0.008,1.6791
203,35.594,-97.506,342.79,2.201,0.37,14.317,38.41,0.005,0.002,1.6514
204,35.594,-97.506,342.79,0.479,0.36,14.317,38.41,0.005,0.018,1.8658
205,35.594,-97.506,342.7,0.017,0.55,14.317,38.41,0.005,0.062,344.42
206,35.594,-97.506,342.57,0.068,0.42,14.317,38.41,0.005,0.063,344.3
207,35.594,-97.506,342.31,1.962,0.4,14.317,38.41,0.005,-0.01,359.99
208,35.594,-97.506,342.27,5.097,0.54,14.317,38.41,0.005,0.015,349.97
209,35.594,-97.506,343.29,7.636,0.56,14.317,38.64,0.005,0.134,329.72
210,35.594,-97.506,344,9.87,1.22,14.317,38.41,0.005,0.315,308.96
211,35.595,-97.506,344.18,12.902,1.08,14.317,38.41,0.005,0.335,293.93
212,35.595,-97.507,345.39,15.086,0.71,14.317,38.41,0.005,0.544,281.44
213,35.595,-97.507,345.22,17.489,0.85,14.317,38.41,0.005,0.333,270.59
214,35.595,-97.507,345.8,18.047,0.68,14.317,38.41,0.005,0.369,269.12
215,35.595,-97.507,345.89,18.811,0.69,14.317,38.41,0.005,0.315,270.14
216,35.595,-97.507,345.92,18.869,1.74,14.317,38.41,0.005,0.243,270.48
217,35.595,-97.508,346.4,18.673,2.1,14.317,38.41,0.005,0.286,269.26
218,35.595,-97.508,346.21,18.993,2.51,14.317,38.41,0.005,0.207,270.81
219,35.595,-97.508,345.95,18.7,1.79,14.317,53.59,0.005,0.126,269.72
220,35.595,-97.508,346.83,18.866,1.31,14.317,45.77,0.005,0.265,270.1
221,35.595,-97.508,346.83,18.719,1.04,14.317,38.41,0.005,0.236,270.87
222,35.595,-97.509,347.32,18.185,0.96,14.317,38.41,0.005,0.257,271.32
223,35.595,-97.509,347.96,17.261,0.85,14.317,38.41,0.005,0.306,271.68
224,35.595,-97.509,347.53,14.098,0.73,14.317,38.41,0.005,0.15,272.61
225,35.595,-97.509,348.97,11.754,0.7,14.317,38.18,0.005,0.263,271.66
226,35.595,-97.509,349.27,10.242,0.72,14.317,38.18,0.005,0.208,271.64
227,35.595,-97.509,348.8,8.654,0.74,14.317,45.31,0.005,0.047,272.38
228,35.595,-97.509,347.95,7.064,0.8,14.317,45.31,0.005,-0.104,273.3
229,35.595,-97.509,348,5.979,0.84,14.317,75.67,0.005,-0.121,273.19
230,35.595,-97.51,348.19,5.594,0.63,14.317,58.65,0.005,-0.095,271.83
231,35.595,-97.51,348.24,5.272,0.68,14.317,38.18,0.005,-0.134,271.57
232,35.595,-97.51,347.73,4.349,0.83,14.317,38.18,0.005,-0.202,272.72
233,35.595,-97.51,347.48,2.881,0.85,14.317,38.18,0.005,-0.193,274.46
234,35.595,-97.51,347.69,1.707,0.73,14.317,38.18,0.005,-0.115,273.18
235,35.595,-97.51,346.97,1.894,0.68,14.317,38.18,0.005,-0.173,269.65
236,35.595,-97.51,346.97,3.218,0.57,14.317,38.18,0.005,-0.128,271.42
237,35.595,-97.51,347.09,3.112,0.6,14.317,38.18,0.005,-0.11,270.78
238,35.595,-97.51,346.94,1.68,0.81,14.317,38.18,0.005,-0.105,276.35
239,35.595,-97.51,346.75,0.248,0.92,14.317,38.18,0.005,-0.137,299.68
240,35.595,-97.51,346.48,0.39,0.77,14.317,38.18,0.005,-0.127,274.31
241,35.595,-97.51,346.31,2.487,0.88,14.317,38.18,0.005,-0.087,268.6
242,35.595,-97.51,346.32,5.585,0.73,14.317,38.18,0.005,-0.017,267.1
243,35.595,-97.51,345.81,8.045,0.7,14.317,38.18,0.005,-0.057,270.03
244,35.595,-97.51,345.79,9.7,0.79,14.317,38.18,0.005,-0.02,270.37
245,35.595,-97.51,346.34,10.914,0.6,14.317,38.18,0.005,0.103,270.06
246,35.595,-97.51,345.76,12.357,0.88,14.317,38.18,0.005,0.017,271.2
247,35.595,-97.51,346.19,13.121,0.8,14.317,38.18,0.005,0.099,269.96
248,35.595,-97.511,346.69,14.06,0.77,14.317,38.18,0.005,0.158,269.79
249,35.595,-97.511,346.63,14.728,0.75,14.317,38.18,0.005,0.106,270.14
250,35.595,-97.511,348.26,14.129,0.79,14.317,38.18,0.005,0.363,267.45
251,35.595,-97.511,347.91,14.896,0.74,14.317,38.18,0.005,0.28,268.66
252,35.595,-97.511,348.26,15.058,0.64,14.317,38.18,0.005,0.329,270.18
253,35.595,-97.511,348.72,14.586,0.84,14.317,38.18,0.005,0.343,270.34
254,35.595,-97.512,349.15,14.298,1,14.317,45.77,0.005,0.36,269.66
255,35.595,-97.512,349.42,14.656,1,14.317,45.77,0.005,0.323,271.12
256,35.595,-97.512,349.63,14.839,1.06,14.317,38.18,0.005,0.312,271.89
257,35.595,-97.512,350.17,14.147,1.07,14.317,38.18,0.005,0.362,271.14
258,35.595,-97.512,350,13.742,1.08,14.317,38.18,0.005,0.267,271.51
259,35.595,-97.512,349.71,13.245,0.89,14.317,38.18,0.005,0.161,271.42
260,35.595,-97.512,350.77,12.791,0.85,14.317,38.18,0.005,0.323,270.84
261,35.595,-97.513,350.56,12.347,0.81,14.317,38.18,0.005,0.223,270.29
262,35.595,-97.513,350.05,12.159,0.9,14.317,38.18,0.005,0.111,270.9
263,35.595,-97.513,349.45,10.793,0.79,14.317,38.18,0.005,-0.035,271.57
264,35.595,-97.513,349.13,9.507,0.7,14.317,38.18,0.005,-0.087,271.12
265,35.595,-97.513,349.21,8.859,0.9,14.317,38.18,0.005,-0.063,271.25
266,35.595,-97.513,348.58,8.438,0.85,14.317,38.18,0.005,-0.096,270.47
267,35.595,-97.513,348.67,8.508,0.93,14.317,38.18,0.005,-0.065,270.64
268,35.595,-97.513,347.94,8.97,0.77,14.317,37.95,0.005,-0.128,271.37
269,35.595,-97.513,347.64,9.262,0.73,14.317,37.95,0.005,-0.162,271.71
270,35.595,-97.514,347.82,9.516,0.74,14.317,37.95,0.005,-0.138,270.67
271,35.595,-97.514,347.86,10.256,0.76,14.317,37.95,0.005,-0.166,270.73
272,35.595,-97.514,347.81,11.029,0.79,14.317,37.95,0.005,-0.166,272.02
273,35.595,-97.514,347.77,11.134,0.81,14.317,37.95,0.005,-0.138,270.83
274,35.595,-97.514,348.18,11.265,0.86,14.317,37.95,0.005,-0.043,271.35
275,35.595,-97.514,348.56,11.162,0.81,14.317,37.95,0.005,0.042,270.04
276,35.595,-97.514,348.45,11.886,0.95,14.317,37.95,0.005,-0.006,271.26
277,35.595,-97.514,348.32,12.221,0.95,14.317,37.95,0.005,-0.05,271.15
278,35.595,-97.515,348.06,12.827,0.96,14.317,37.95,0.005,-0.091,271.39
279,35.595,-97.515,348.17,13.479,0.82,14.317,37.95,0.005,-0.062,270.87
280,35.595,-97.515,348.32,14.133,0.74,14.317,37.95,0.005,-0.021,269.96
281,35.595,-97.515,348.15,14.874,0.71,14.317,37.95,0.005,-0.019,270.67
282,35.595,-97.515,348.39,14.811,0.79,14.317,37.95,0.005,0.034,270.34
283,35.595,-97.515,348.65,14.978,0.75,14.317,37.95,0.005,0.043,270.64
284,35.595,-97.516,349.04,15.048,0.74,14.317,37.95,0.005,0.071,270.32
285,35.595,-97.516,349.07,15.091,0.73,14.317,37.95,0.005,0.076,269.98
286,35.595,-97.516,349.03,15.354,0.94,14.317,37.95,0.005,0.065,269.96
287,35.595,-97.516,349.15,15.627,0.85,14.317,37.95,0.005,0.068,270
288,35.595,-97.516,348.98,16.46,0.87,14.317,37.95,0.005,0.012,270.83
289,35.595,-97.516,349.15,16.198,1.09,14.317,37.95,0.005,0.008,270.41
290,35.595,-97.517,349.05,16.61,1.06,14.317,37.95,0.005,-0.034,271.32
291,35.595,-97.517,349.31,16.964,1.19,14.317,37.95,0.005,-0.032,270.62
292,35.595,-97.517,349.64,17.416,1.04,14.317,37.95,0.005,0.012,269.89
293,35.595,-97.517,350.38,17.675,0.96,14.317,37.95,0.005,0.133,269.41
294,35.595,-97.517,350.79,18.176,0.89,14.317,37.95,0.005,0.137,269.3
295,35.595,-97.518,351.11,18.123,1.25,14.317,37.95,0.005,0.117,268.49
296,35.595,-97.518,351.11,18.699,1.1,14.317,37.95,0.005,0.065,269.82
297,35.595,-97.518,351.26,19.462,0.9,14.317,37.95,0.005,0.066,270.44
298,35.595,-97.518,351.14,19.847,0.87,14.317,37.95,0.005,0.012,270.61
299,35.595,-97.518,351.09,19.696,0.91,14.317,37.95,0.005,0.083,269.4
300,35.595,-97.519,351.42,19.476,1.05,14.317,37.95,0.005,0.163,269.4
301,35.595,-97.519,351.33,19.942,1.01,14.317,37.95,0.005,0.153,269.47
302,35.595,-97.519,351.32,19.961,0.99,14.317,37.95,0.005,0.121,270.77
303,35.595,-97.519,351.47,19.514,0.98,14.317,37.95,0.005,0.115,270.3
304,35.595,-97.52,351.6,19.071,1,14.317,48.3,0.005,0.113,269.98
305,35.595,-97.52,352.14,18.774,1.09,14.317,37.95,0.005,0.163,270.39
306,35.595,-97.52,352.51,18.246,1.09,14.317,37.95,0.005,0.153,269.81
307,35.595,-97.52,352.67,18.4,1.13,14.317,37.95,0.005,0.177,270.03
308,35.595,-97.52,352.89,18.365,1.03,14.317,37.95,0.005,0.189,269.88
309,35.595,-97.521,353.01,18.442,0.94,14.317,37.95,0.005,0.183,270.13
310,35.595,-97.521,353.87,18.042,0.97,14.317,37.95,0.005,0.262,269.29
311,35.595,-97.521,354.33,17.797,1.07,14.317,37.95,0.005,0.27,269.66
312,35.595,-97.521,354.96,17.644,1.02,14.317,37.72,0.005,0.307,269.77
313,35.595,-97.521,355.46,17.582,0.97,14.317,37.72,0.005,0.286,269.09
314,35.595,-97.522,355.45,17.832,0.95,14.317,37.72,0.005,0.206,269.57
315,35.595,-97.522,355.28,18.185,0.9,14.317,37.72,0.005,0.144,270.14
316,35.595,-97.522,355.33,18.215,0.85,14.317,37.72,0.005,0.129,269.67
317,35.595,-97.522,355.14,18.356,0.86,14.317,37.72,0.005,0.07,269.8
318,35.595,-97.522,355.43,18.521,1,14.317,37.72,0.005,0.089,269.61
319,35.595,-97.523,355.32,18.588,0.78,14.317,37.72,0.005,0.04,269.19
320,35.595,-97.523,355.26,18.483,0.74,14.317,37.72,0.005,0.036,269.46
321,35.595,-97.523,354.69,18.843,0.65,14.317,37.72,0.005,-0.03,269.47
322,35.595,-97.523,354.41,18.814,0.66,14.317,37.72,0.005,-0.032,269.06
323,35.595,-97.523,354.36,18.832,0.72,14.317,37.72,0.005,-0.031,268.94
324,35.595,-97.524,354.14,18.537,0.62,14.317,37.72,0.005,-0.064,269.15
325,35.595,-97.524,354.04,18.4,0.68,14.317,37.72,0.005,-0.054,269.39
326,35.595,-97.524,353.68,18.126,0.67,14.317,37.72,0.005,-0.081,269.13
327,35.595,-97.524,353.47,18.025,0.81,14.317,37.72,0.005,-0.108,269.46
328,35.595,-97.524,353.27,18.077,0.7,14.317,37.72,0.005,-0.125,269.46
329,35.595,-97.525,353.11,18.093,0.77,14.317,37.72,0.005,-0.104,269.38
330,35.595,-97.525,352.97,18.122,0.64,14.317,37.72,0.005,-0.099,269.33
331,35.595,-97.525,352.64,18.123,0.61,14.317,37.72,0.005,-0.107,269.35
332,35.595,-97.525,352.46,17.934,0.6,14.317,37.72,0.005,-0.104,269.49
333,35.595,-97.525,352.13,17.982,0.65,14.317,37.72,0.005,-0.127,269.74
334,35.595,-97.526,351.94,18.038,0.63,14.317,37.72,0.005,-0.156,269.85
335,35.595,-97.526,351.72,18.341,0.95,14.317,37.72,0.005,-0.185,269.72
336,35.595,-97.526,351.6,18.567,0.79,14.317,37.72,0.005,-0.17,269.05
337,35.595,-97.526,351.53,18.941,0.67,14.317,37.72,0.005,-0.167,268.61
338,35.595,-97.526,351.49,19.501,0.61,14.317,37.72,0.005,-0.161,268.96
339,35.595,-97.527,351.32,19.804,0.58,14.317,37.72,0.005,-0.167,268.96
340,35.595,-97.527,351.01,20.135,0.59,14.317,37.72,0.005,-0.198,269.18
341,35.595,-97.527,350.64,20.009,0.73,14.317,37.72,0.005,-0.201,269.39
342,35.595,-97.527,350.32,20.036,0.59,14.317,37.72,0.005,-0.187,269.33
343,35.595,-97.528,349.89,19.879,0.78,14.317,37.72,0.005,-0.226,268.87
344,35.595,-97.528,349.49,20.13,0.68,14.317,37.72,0.005,-0.233,268.79
345,35.595,-97.528,349.31,19.913,0.76,14.317,37.72,0.005,-0.197,269.17
346,35.595,-97.528,349.2,19.689,0.63,14.317,37.72,0.005,-0.168,269.67
347,35.595,-97.528,348.9,19.405,0.64,14.317,37.72,0.005,-0.181,269.55
348,35.595,-97.529,348.82,19.116,0.77,14.317,37.72,0.005,-0.138,269.45
349,35.595,-97.529,348.93,18.781,0.71,14.317,37.72,0.005,-0.09,269.56
350,35.595,-97.529,348.95,18.227,0.7,14.317,37.72,0.005,-0.056,269.28
351,35.595,-97.529,348.68,17.749,0.66,14.317,37.72,0.005,-0.095,269.82
352,35.595,-97.529,348.9,17.181,1.01,14.317,37.72,0.005,-0.025,269.53
353,35.595,-97.53,349.05,16.397,0.73,14.317,37.72,0.005,0.004,268.7
354,35.595,-97.53,349.59,15.834,0.86,14.317,37.72,0.005,0.119,270
355,35.595,-97.53,349.77,14.804,0.87,14.317,37.49,0.005,0.113,268.74
356,35.595,-97.53,350.07,15.028,0.89,14.317,37.49,0.005,0.153,271.08
357,35.595,-97.53,350.38,14.173,0.87,14.317,37.49,0.005,0.203,270.61
358,35.595,-97.53,350.53,13.635,0.81,14.317,37.49,0.005,0.208,270.51
359,35.595,-97.531,350.42,11.54,0.83,14.317,37.49,0.005,0.123,270.23
360,35.595,-97.531,350.86,9.722,0.76,14.317,37.72,0.005,0.182,271.77
361,35.595,-97.531,350.85,8.998,0.76,14.317,37.49,0.005,0.147,271.21
362,35.595,-97.531,351.04,8.264,0.73,14.317,37.49,0.005,0.132,269.68
363,35.595,-97.531,351.13,6.077,0.72,14.317,37.49,0.005,0.122,271.84
364,35.595,-97.531,351.22,3.34,0.76,14.317,37.49,0.005,0.093,272.02
365,35.595,-97.531,351.38,1.93,0.72,14.317,37.49,0.005,0.09,271.01
366,35.595,-97.531,351.54,1.37,0.65,14.317,37.49,0.005,0.091,268.82
367,35.595,-97.531,351.7,0.689,0.65,14.317,37.49,0.005,0.07,270.92
368,35.595,-97.531,351.96,0.052,0.64,14.317,37.49,0.005,0.084,271.62
369,35.595,-97.531,351.93,0.074,0.52,14.317,37.49,0.005,0.045,293.46
370,35.595,-97.531,352.46,0.041,0.62,14.317,37.49,0.005,0.085,307.08
371,35.595,-97.531,352.65,0.088,0.55,14.317,37.49,0.005,0.083,287.81
372,35.595,-97.531,352.68,0.022,0.82,14.317,37.49,0.005,0.047,188.89
373,35.595,-97.531,352.82,0.017,0.74,14.317,37.49,0.005,0.044,289.27
374,35.595,-97.531,352.97,0.098,0.54,14.317,37.49,0.005,0.058,296.74
375,35.595,-97.531,353.03,0.065,0.87,14.317,37.49,0.005,0.043,118.21
376,35.595,-97.531,353.01,0.184,1.01,14.317,37.49,0.005,0.037,132.89
377,35.595,-97.531,352.67,0.2,1,14.317,37.49,0.005,-0.02,131.71
378,35.595,-97.531,352.33,0.175,0.95,14.317,37.49,0.005,-0.056,283.12
379,35.595,-97.531,352.29,0.236,1,14.317,37.49,0.005,-0.027,130.28
380,35.595,-97.531,352.25,0.11,1.03,14.317,37.49,0.005,0.006,135.3
381,35.595,-97.531,352.21,0.013,0.61,14.317,37.49,0.005,0.021,318.52
382,35.595,-97.531,352.12,0.059,0.95,14.317,37.49,0.005,0.011,314.13
383,35.595,-97.531,352.23,0.015,0.79,14.317,37.49,0.005,0.06,245.74
384,35.595,-97.531,352.37,0.17,0.85,14.317,37.49,0.005,0.087,310.12
385,35.595,-97.531,352.18,0.126,1.03,14.317,37.49,0.005,0.025,145.65
386,35.595,-97.531,352.18,0.247,0.92,14.317,37.49,0.005,0.039,313.15
387,35.595,-97.531,352.47,0.144,0.88,14.317,37.49,0.005,0.078,315.95
388,35.595,-97.531,352.43,0.055,0.65,14.317,37.49,0.005,0.025,219.07
389,35.595,-97.531,352.24,0.066,0.89,14.317,37.49,0.005,-0.012,127.64
390,35.595,-97.531,352.25,0.018,0.81,14.317,37.49,0.005,-0.013,147.4
391,35.595,-97.531,352.17,0.009,0.69,14.317,37.49,0.005,-0.015,100.53
392,35.595,-97.531,352.17,0.025,0.85,14.317,37.49,0.005,-0.014,126.62
393,35.595,-97.531,352.02,0.045,0.98,14.317,37.49,0.005,-0.018,326.46
394,35.595,-97.531,351.88,0.01,0.92,14.317,37.49,0.005,-0.03,336.81
395,35.595,-97.531,351.95,0.053,0.96,14.317,37.49,0.005,0.008,125
396,35.595,-97.531,352.08,0.097,0.79,14.317,37.49,0.005,0.038,268.28
397,35.595,-97.531,352.08,0.037,0.94,14.317,37.49,0.005,0.052,132.04
398,35.595,-97.531,352.07,0.062,0.76,14.317,37.49,0.005,0.052,293.34
399,35.595,-97.531,352.13,0.06,0.72,14.317,37.26,0.005,0.055,210.58
400,35.595,-97.531,352.47,0.046,0.92,14.317,37.26,0.005,0.096,133.98
401,35.595,-97.531,352.75,0.012,0.85,14.317,37.26,0.005,0.118,212.78
402,35.595,-97.531,353.15,0.029,0.8,14.317,37.26,0.005,0.137,295.09
403,35.595,-97.531,353.46,0.072,0.94,14.317,37.26,0.005,0.127,138.37
404,35.595,-97.531,353.59,0.065,0.88,14.317,37.26,0.005,0.106,192.46
405,35.595,-97.531,353.82,0.018,0.8,14.317,37.26,0.005,0.112,1.805
406,35.595,-97.531,353.96,0.138,0.99,14.317,37.26,0.005,0.101,134.34
407,35.595,-97.531,354,0.157,1,14.317,37.26,0.005,0.074,136.81
408,35.595,-97.531,354.28,0.07,0.79,14.317,37.26,0.005,0.094,296.15
409,35.595,-97.531,354.56,0.037,0.78,14.317,37.26,0.005,0.107,305.33
410,35.595,-97.531,354.81,0.066,0.77,14.317,37.26,0.005,0.099,306.91
411,35.595,-97.531,354.89,0.147,0.97,14.317,37.26,0.005,0.07,115.09
412,35.595,-97.531,355.02,0.088,1.02,14.317,37.26,0.005,0.069,134.7
413,35.595,-97.531,355.13,0.161,0.89,14.317,37.26,0.005,0.063,315.41
414,35.595,-97.531,355.29,0.041,0.75,14.317,37.26,0.005,0.058,299.6
415,35.595,-97.531,355.44,0.028,0.77,14.317,37.26,0.005,0.055,237.32
416,35.595,-97.531,355.66,0.315,0.64,14.317,37.26,0.005,0.068,267.9
417,35.595,-97.531,355.43,2.031,0.72,14.317,37.26,0.005,0.01,266.68
418,35.595,-97.531,355.51,4.278,0.87,14.317,37.26,0.005,0.064,266.09
419,35.595,-97.531,355.41,6.591,0.85,14.317,37.26,0.005,0.079,267.15
420,35.595,-97.531,355.58,7.57,0.87,14.317,37.26,0.005,0.142,266.9
421,35.595,-97.531,355.15,8.363,0.9,14.317,37.26,0.005,0.092,278.34
422,35.595,-97.531,356.42,7.549,1.38,14.317,37.26,0.005,0.374,307.8
423,35.595,-97.531,356.37,9.609,1.18,14.317,37.26,0.005,0.322,344.58
424,35.595,-97.531,356.57,11.514,1.33,14.317,37.26,0.005,0.375,359.26
425,35.595,-97.531,355.71,12.74,0.98,14.317,37.26,0.005,0.209,0.773
426,35.595,-97.531,355.66,14.638,0.91,14.317,37.26,0.005,0.254,359.45
427,35.595,-97.531,354.52,15.74,0.73,14.317,37.26,0.005,0.097,358.35
428,35.595,-97.531,355.03,16.85,0.75,14.317,37.26,0.005,0.261,357.47
429,35.596,-97.531,354.22,17.085,0.79,14.317,37.26,0.005,0.133,357.81
430,35.596,-97.531,353.48,17.731,0.73,14.317,46,0.005,0.028,358.67
431,35.596,-97.531,352.98,18.342,0.69,14.317,46,0.005,-0.042,359.7
432,35.596,-97.531,352.16,18.413,0.6,14.317,46,0.005,-0.141,359.72
433,35.596,-97.531,351.7,18.99,0.61,14.317,46,0.005,-0.174,359.49
434,35.596,-97.531,351.13,19.132,0.61,14.317,46,0.005,-0.182,359.46
435,35.597,-97.531,350.68,19.249,0.38,14.317,46,0.005,-0.227,359.78
436,35.597,-97.531,350.43,19.417,0.42,14.317,46,0.005,-0.255,359.77
437,35.597,-97.531,349.46,19.564,0.63,14.317,37.26,0.005,-0.357,359.7
438,35.597,-97.531,348.91,19.747,0.61,14.317,46,0.005,-0.372,359.89
439,35.597,-97.531,348.55,19.858,0.49,14.317,46,0.005,-0.355,359.67
440,35.597,-97.531,348.05,19.62,0.39,14.317,46,0.005,-0.348,359.61
441,35.598,-97.531,348.48,19.579,0.4,14.317,46,0.005,-0.19,359.81
442,35.598,-97.531,348.27,19.589,0.39,14.317,46,0.005,-0.169,359.79
443,35.598,-97.531,347.78,19.642,0.39,14.317,46,0.005,-0.192,359.77
444,35.598,-97.531,347.45,19.649,0.39,14.317,46,0.005,-0.184,359.94
445,35.598,-97.531,346.14,19.64,0.46,14.317,46,0.005,-0.324,359.43
446,35.598,-97.531,345.91,19.731,0.44,14.317,46,0.005,-0.262,359.49
447,35.599,-97.531,345.93,19.722,0.38,14.317,46,0.005,-0.215,359.42
448,35.599,-97.531,345.13,19.745,0.48,14.317,46,0.005,-0.283,359.6
449,35.599,-97.531,344.79,19.805,0.38,14.317,46,0.005,-0.264,359.83
450,35.599,-97.531,344.92,19.919,0.45,14.317,46,0.005,-0.183,359.83
451,35.599,-97.531,344.77,19.953,0.38,14.317,46,0.005,-0.161,359.89
452,35.6,-97.531,345.08,20.081,0.49,14.317,46,0.005,-0.099,359.53
453,35.6,-97.531,344.8,20.163,0.45,14.317,46,0.005,-0.143,359.36
454,35.6,-97.531,345.01,20.217,0.69,14.317,46,0.005,-0.082,359.42
455,35.6,-97.532,344.48,19.986,0.66,14.317,46,0.005,-0.172,359.61
456,35.6,-97.532,344.01,20.022,0.38,14.317,46,0.005,-0.189,359.72
457,35.6,-97.532,343.95,19.852,0.39,14.317,46,0.005,-0.157,359.85
458,35.601,-97.532,343.98,19.525,0.39,14.317,46,0.005,-0.165,359.8
459,35.601,-97.532,345.12,19.227,0.46,14.317,46,0.005,0.03,359.36
460,35.601,-97.532,344.81,18.967,0.48,14.317,46,0.005,0.014,359.65
461,35.601,-97.532,344.43,18.723,0.46,14.317,46,0.005,-0.022,359.35
462,35.601,-97.532,344.19,18.41,0.63,14.317,46,0.005,-0.049,359.37
463,35.601,-97.532,343.7,18.121,0.38,14.317,46,0.005,-0.109,359.41
464,35.602,-97.532,344.08,17.863,0.38,14.317,46,0.005,-0.023,359.43
465,35.602,-97.532,343.66,17.652,0.65,14.317,46,0.005,-0.055,359.53
466,35.602,-97.532,342.98,17.436,0.66,14.317,46,0.005,-0.08,359.67
467,35.602,-97.532,341.79,17.081,0.46,14.317,46,0.005,-0.201,359.21
468,35.602,-97.532,341.69,16.892,0.43,14.317,46,0.005,-0.109,359.38
469,35.602,-97.532,341.83,15.224,0.43,14.317,46,0.005,-0.031,359.75
470,35.603,-97.532,341.24,12.701,0.48,14.317,46,0.005,-0.081,0.1921
471,35.603,-97.532,340.9,12.167,0.67,14.317,46,0.005,-0.09,0.5319
472,35.603,-97.532,340.86,10.64,0.51,14.317,46,0.005,-0.053,0.5565
473,35.603,-97.532,340.67,10.246,0.75,14.317,46,0.005,-0.069,0.7946
474,35.603,-97.532,340.13,9.436,0.42,14.317,46,0.005,-0.103,1.2813
475,35.603,-97.532,340.22,7.935,0.5,14.317,46,0.005,-0.034,1.3923
476,35.603,-97.532,340.3,6.32,0.44,14.317,46,0.005,0.003,0.9893
477,35.603,-97.532,340.11,4.883,0.72,14.317,46,0.005,-0.017,0.1843
478,35.603,-97.532,340.83,4.576,0.49,14.317,46,0.005,0.034,0.3094
479,35.603,-97.532,340.96,4.306,0.47,14.317,46,0.005,0.032,359.93
480,35.603,-97.532,341.42,2.86,0.5,14.317,46,0.005,0.112,0.0745
481,35.603,-97.532,341.75,2.648,0.75,14.317,46,0.005,0.134,358.3
482,35.603,-97.532,341.79,2.365,0.5,14.317,46,0.005,0.133,359.6
483,35.603,-97.532,341.46,1.752,0.49,14.317,46,0.005,0.078,359.49
484,35.603,-97.532,341.18,1.02,0.48,14.317,46,0.005,0.035,0.3318
485,35.603,-97.532,341.15,0.553,0.69,14.317,46,0.005,0.053,357.23
486,35.603,-97.532,340.52,0.008,1.04,14.317,46,0.005,-0.023,60.206
487,35.603,-97.532,340.97,0.079,0.93,14.317,46,0.005,0.041,172.41
488,35.603,-97.532,340.86,0.234,0.72,14.317,46,0.005,-0.016,355.18
489,35.603,-97.532,340.78,0.104,0.77,14.317,46,0.005,-0.025,359.68
490,35.603,-97.532,340.74,0.055,0.61,14.317,46,0.005,-0.018,26.209
491,35.603,-97.532,340.82,0.158,0.48,14.317,46,0.005,0.003,355.72
492,35.603,-97.532,340.71,0.839,0.49,14.317,46,0.005,-0.02,0.2637
493,35.603,-97.532,340.65,2.763,0.59,14.317,46,0.005,0.024,0.8722
494,35.603,-97.532,340.34,5.262,0.45,14.317,46,0.005,0.037,359.81
495,35.603,-97.532,339.99,6.057,0.45,14.317,46,0.005,0.009,359.89
496,35.603,-97.532,339.44,6.276,0.65,14.317,46,0.005,-0.057,359.86
497,35.604,-97.532,339.94,6.263,0.71,14.317,46,0.005,0.049,358.96
498,35.604,-97.532,339.25,6.689,0.69,14.317,46,0.005,-0.031,359.71
499,35.604,-97.532,339.03,8.619,0.42,14.317,46,0.005,-0.047,359.58
500,35.604,-97.532,338.31,10.245,0.43,14.317,46,0.005,-0.155,359.9
501,35.604,-97.532,337.46,11.903,0.43,14.317,46,0.005,-0.254,0.1683
502,35.604,-97.532,337.7,13.375,0.43,14.317,46,0.005,-0.179,359.79
503,35.604,-97.532,337.55,14.677,0.37,14.317,46,0.005,-0.16,359.7
504,35.604,-97.532,338.18,15.799,0.38,14.317,46,0.005,-0.078,359.77
505,35.604,-97.532,338.76,16.834,0.47,14.317,46,0.005,-0.012,0.1515
506,35.605,-97.532,338.85,17.443,0.38,14.317,46,0.005,-0.038,0.4471
507,35.605,-97.532,338.38,17.18,0.39,14.317,46,0.005,-0.082,0.5395
508,35.605,-97.532,337.69,16.877,0.39,14.317,46,0.005,-0.19,0.8629
509,35.605,-97.532,337.61,16.581,0.61,14.317,46,0.005,-0.171,0.9644
510,35.605,-97.531,337.13,16.215,0.39,14.317,46,0.005,-0.226,1.0649
511,35.605,-97.531,337.36,14.466,0.4,14.317,46,0.005,-0.171,1.0713
512,35.605,-97.531,337.17,12.753,0.47,14.317,46,0.005,-0.185,0.9846
513,35.606,-97.531,337.8,12.096,0.49,14.317,46,0.005,-0.074,1.0951
514,35.606,-97.531,336.87,11.035,0.51,14.317,46,0.005,-0.189,1.194
515,35.606,-97.531,336.92,9.731,0.66,14.317,46,0.005,-0.147,2.2715
516,35.606,-97.531,337.23,7.994,0.63,14.317,46,0.005,-0.066,0.8898
517,35.606,-97.531,337.68,6.847,0.56,14.317,46,0.005,0.005,0.4902
518,35.606,-97.531,337.7,5.535,0.55,14.317,46,0.005,0.018,359.16
519,35.606,-97.531,337.42,4.501,0.55,14.317,46,0.005,-0.015,0.9623
520,35.606,-97.531,337.25,4.067,0.97,14.317,46,0.005,-0.03,6.2394
521,35.606,-97.531,337.43,3.628,1.1,14.317,46,0.005,-0.008,15.35
522,35.606,-97.531,337.49,3.285,1.36,14.317,46,0.005,-0.018,25.501
523,35.606,-97.531,337.78,2.432,1.18,14.317,46,0.005,0.018,26.497
524,35.606,-97.531,337.7,1.608,1.3,14.317,46,0.005,-0.031,33.7
525,35.606,-97.531,337.45,0.764,1.25,14.317,46,0.005,-0.098,31.912
526,35.606,-97.531,337.31,0.251,1.19,14.317,46,0.005,-0.167,206.45
527,35.606,-97.531,337.69,0.256,1.17,14.317,46,0.005,-0.121,112.47
528,35.606,-97.531,338.22,0.297,1.07,14.317,46,0.005,-0.081,95.45
529,35.606,-97.531,338.81,0.343,0.93,14.317,46,0.005,0.021,38.551
530,35.606,-97.531,338.74,1.62,1.02,14.317,46,0.005,0.051,45.684
531,35.606,-97.531,338.52,4.459,0.92,14.317,46,0.005,-0.008,57.183
532,35.606,-97.531,338.02,7.079,0.79,14.317,46,0.005,-0.082,81.531
533,35.606,-97.531,338.84,9.192,0.89,14.317,46,0.005,0.074,99.343
534,35.606,-97.531,339.01,11.966,0.8,14.317,46,0.005,0.065,109.63
535,35.606,-97.531,339.48,13.832,0.76,14.317,46,0.005,0.08,111.53
536,35.606,-97.531,339.34,14.757,0.77,14.317,46,0.005,0.089,111.32
537,35.606,-97.531,339.3,14.695,0.72,14.317,46,0.005,0.072,110.64
538,35.606,-97.53,339.67,14.296,0.72,14.317,46,0.005,0.099,111.28
539,35.606,-97.53,339.88,11.938,0.71,14.317,46,0.005,0.118,112.53
540,35.606,-97.53,339.79,9.993,0.73,14.317,46,0.005,0.072,112.67
541,35.606,-97.53,339.5,8.066,0.84,14.317,46,0.005,-0.032,116.85
542,35.606,-97.53,339.59,6.619,1.11,14.317,46,0.005,-0.057,137.02
543,35.606,-97.53,340.91,6.043,1.01,14.317,46,0.005,0.08,168.63
544,35.606,-97.53,341.15,5.744,0.97,14.317,46,0.005,0.128,197.46
545,35.606,-97.53,341.27,5.349,0.81,14.317,46,0.005,0.124,207.07
546,35.606,-97.53,340.5,5.111,1.06,14.317,53.36,0.005,-0.016,207.05
547,35.605,-97.53,340.1,5.227,1.17,14.317,56.12,0.005,-0.036,208.38
548,35.605,-97.53,339.55,5.332,1.05,14.317,48.3,0.005,-0.104,204.98
549,35.605,-97.53,339.64,5.43,0.76,14.317,46,0.005,-0.081,200.21
550,35.605,-97.53,339.9,5.266,0.84,14.317,46,0.005,-0.045,196.58
551,35.605,-97.53,339.51,5.172,0.97,14.317,46,0.005,-0.052,194.03
552,35.605,-97.53,340.46,4.934,1.04,14.317,46,0.005,0.031,189.36
553,35.605,-97.53,340.83,4.634,0.97,14.317,46,0.005,0.031,184.04
554,35.605,-97.53,341.01,4.144,0.87,14.317,46,0.005,0.018,184.23
555,35.605,-97.53,341.59,3.899,0.97,14.317,46,0.005,0.048,182.04
556,35.605,-97.53,341.96,3.471,0.96,14.317,46,0.005,0.068,182.13
557,35.605,-97.53,341.84,3.124,0.93,14.317,46,0.005,0.031,182.38
558,35.605,-97.53,341.92,2.773,0.87,14.317,46,0.005,0.034,183.86
559,35.605,-97.53,342.17,3.097,0.79,14.317,46,0.005,0.043,182.79
560,35.605,-97.53,342.22,2.646,0.79,14.317,46,0.005,-0.004,183.47
561,35.605,-97.53,342.61,2.279,0.76,14.317,46,0.005,-0.016,186.58
562,35.605,-97.53,342.83,1.936,0.83,14.317,46,0.005,-0.032,187.39
563,35.605,-97.53,343.1,2.076,0.87,14.317,46,0.005,0.013,179.73
565,35.605,-97.53,343.33,2.396,1.3,14.317,46,0.005,0.04,166.32
565,35.605,-97.53,343.33,2.396,1.3,14.317,46,0.005,0.04,166.32
566,35.605,-97.53,343.64,3.669,0.92,14.317,46,0.005,0.081,116.84
567,35.605,-97.53,343.45,3.766,0.82,14.317,46,0.005,0.033,103.97
568,35.605,-97.53,343.54,3.737,0.93,14.317,46,0.005,0.076,94.802
569,35.605,-97.53,343.53,3.705,0.96,14.317,46,0.005,0.026,90.096
570,35.605,-97.53,344,3.372,0.75,14.317,46,0.005,0.108,67.772
571,35.605,-97.53,344.09,2.992,0.88,14.317,46,0.005,0.127,39.526
572,35.605,-97.53,343.9,2.838,0.94,14.317,46,0.005,-0.016,23.908
573,35.605,-97.53,343.71,2.596,1.26,14.317,46,0.005,-0.039,16.617
574,35.605,-97.53,344.08,3.546,1.02,14.317,46,0.005,-0.024,6.5124
575,35.605,-97.53,343.88,4.11,0.92,14.317,46,0.005,-0.054,0.5726
576,35.605,-97.53,343.87,3.869,0.79,14.317,46,0.005,-0.035,354.35
577,35.605,-97.53,343.47,3.36,0.83,14.317,46,0.005,-0.048,356.71
578,35.605,-97.53,343.08,3.259,0.79,14.317,46,0.005,-0.044,3.142
579,35.605,-97.53,342.89,2.967,1.33,14.317,46,0.005,-0.12,5.8943
580,35.605,-97.53,343.17,3.015,1.36,14.317,46,0.005,-0.077,4.0736
581,35.605,-97.53,343.32,2.684,1.12,14.317,46,0.005,-0.021,0.9267
582,35.605,-97.53,342.99,2.322,0.95,14.317,46,0.005,-0.033,354.52
583,35.605,-97.53,342.34,2.383,0.95,14.317,46,0.005,-0.061,333.62
584,35.605,-97.53,342.98,2.195,0.95,14.317,46,0.005,0.046,309.42
585,35.605,-97.53,343.51,1.79,0.88,14.317,46,0.005,0.078,283.7
586,35.605,-97.53,342.81,1.284,1.09,14.317,46,0.005,0.009,259.24
587,35.605,-97.53,342.7,1.045,0.74,14.317,46,0.005,0.018,263.2
588,35.605,-97.53,342.39,0.857,0.63,14.317,46,0.005,0.014,271
589,35.605,-97.53,342.39,0.155,0.73,14.317,46,0.005,0.004,240.35
590,35.605,-97.53,342.64,0.048,0.88,14.317,46,0.005,0.024,210.47
591,35.605,-97.53,343.09,0.335,0.64,14.317,46,0.005,0.031,87.447
592,35.605,-97.53,342.99,0.078,1.11,14.317,46,0.005,-0.006,207.32
593,35.605,-97.53,343.14,0.197,1.32,14.317,46,0.005,-0.017,179.07
594,35.605,-97.53,342.78,0.257,1.04,14.317,46,0.005,-0.037,176.49
595,35.605,-97.53,342.51,0.039,0.81,14.317,46,0.005,-0.07,344.59
596,35.605,-97.53,342.47,0.045,0.85,14.317,46,0.005,-0.049,125.13
597,35.605,-97.53,342.49,0.084,0.61,14.317,46,0.005,-0.018,106.62
598,35.605,-97.53,342.45,0.091,0.77,14.317,46,0.005,0.002,269.31
599,35.605,-97.53,342.65,0.263,1.31,14.317,46,0.005,0.047,5.5095
600,35.605,-97.53,343.01,0.144,1.1,14.317,46,0.005,0.081,44.993
