time,lat,lng,bearing,spd,acc,alt,accx,accy,accz,stable,
0,35.553,-97.514,0.1,29.37,3,342,-0.85,-1.696,9.292,0
1,35.553,-97.514,0.3,29.55,3,342,-0.554,-1.465,9.173,0
2,35.554,-97.514,0.2,29.61,3,342,-0.545,-1.237,9.155,0
3,35.554,-97.514,0.2,29.54,3,342,-0.537,-1.487,9.179,1
4,35.554,-97.514,0.2,29.66,3,342,-0.518,-1.458,9.293,1
5,35.554,-97.514,0.3,29.72,3,341,-0.902,-1.255,9.367,1
6,35.555,-97.514,0.3,29.54,3,341,-0.518,-1.36,9.365,1
7,35.555,-97.514,0.1,29.56,3,341,-0.561,-1.569,9.136,1
8,35.555,-97.514,0.1,29.731,3,340,-0.445,-1.54,9.158,1
9,35.555,-97.514,0.1,29.91,3,340,-0.498,-1.491,9.18,1
10,35.556,-97.514,0,30.081,3,339,-0.527,-1.37,9.211,1
11,35.556,-97.514,0,30.171,3,339,-0.682,-1.206,9.328,1
12,35.556,-97.514,0.1,30.121,3,339,-0.759,-1.427,9.397,1
13,35.556,-97.514,0.2,30.151,3,339,-0.726,-1.436,9.441,1
14,35.557,-97.514,0.2,30.151,3,338,-0.704,-1.244,9.566,1
15,35.557,-97.514,0,29.931,3,338,-0.477,-1.023,9.28,1
16,35.557,-97.514,0.5,29.65,3,337,-0.509,-1.121,9.419,1
17,35.558,-97.514,0.2,29.431,3,336,-0.369,-0.878,9.257,1
18,35.558,-97.514,0.2,29.161,3,336,-0.685,-1.102,9.442,1
19,35.558,-97.514,0.2,28.921,3,336,-0.764,-1.168,9.477,1
20,35.558,-97.514,0.4,28.701,3,335,-0.511,-1.079,9.536,1
21,35.559,-97.514,0.5,28.491,3,335,-0.072,-1.064,9.455,1
22,35.559,-97.514,359.7,28.211,3,335,-0.395,-1.066,9.351,1
23,35.559,-97.514,359.6,27.981,3,335,-0.798,-1.13,9.693,1
24,35.559,-97.514,359.6,27.761,3,334,-0.675,-1.299,9.487,1
25,35.56,-97.514,359.7,27.581,3,334,-0.547,-1.252,9.346,1
26,35.56,-97.514,359.7,27.651,3,333,-0.555,-1.422,9.31,1
27,35.56,-97.514,359.6,27.71,3,333,-1.045,-1.552,9.51,1
28,35.56,-97.514,359.6,27.78,3,333,-0.665,-1.71,9.388,1
29,35.561,-97.514,0,27.95,3,333,-0.401,-1.701,9.273,1
30,35.561,-97.514,359.8,28.19,3,333,-0.599,-1.72,9.378,1
31,35.561,-97.514,359.8,28.45,3,333,-0.528,-1.68,9.218,1
32,35.561,-97.514,359.9,28.701,3,333,-0.645,-1.583,9.282,1
33,35.562,-97.514,359.9,28.901,3,333,-0.698,-1.307,9.312,1
34,35.562,-97.514,359.8,28.791,3,333,-0.548,-1.155,9.248,1
35,35.562,-97.514,359.7,28.431,3,333,-0.616,-1.417,9.212,1
36,35.562,-97.514,359.6,28.181,3,334,-0.642,-1.432,8.948,1
37,35.563,-97.514,359.6,28.131,3,334,-0.859,-1.476,9.32,1
38,35.563,-97.514,359.8,28.08,3,334,-0.824,-1.423,9.516,1
40,35.563,-97.514,0,27.89,3,333,-0.372,-1.174,9.41,1
40,35.563,-97.514,0,27.89,3,333,-0.372,-1.174,9.41,1
41,35.564,-97.514,359.6,27.37,3,334,-0.424,-1.121,9.335,1
42,35.564,-97.514,359.5,27.04,3,334,-0.526,-1.087,9.441,1
43,35.564,-97.514,359.6,26.79,3,333,-0.476,-1.214,9.187,1
44,35.564,-97.514,359.7,26.8,3,333,-0.689,-1.425,9.128,1
45,35.565,-97.514,359.9,26.941,3,333,-0.683,-1.599,9.273,1
46,35.565,-97.514,359.9,27.16,3,333,-0.488,-1.568,9.357,1
47,35.565,-97.514,359.7,27.33,3,333,-0.618,-1.63,9.433,1
48,35.565,-97.514,359.7,27.47,3,332,-0.71,-1.631,9.474,1
49,35.566,-97.514,0,27.52,3,333,-0.817,-1.585,9.273,1
50,35.566,-97.514,1,27.36,4,332,-0.798,-1.637,9.593,1
51,35.566,-97.514,359.9,27.671,3,333,-0.648,-1.548,9.551,1
52,35.566,-97.514,359.9,27.642,3,334,-0.646,-1.61,9.313,1
53,35.567,-97.514,0,27.593,3,334,-0.707,-1.68,9.632,1
54,35.567,-97.514,359.9,27.523,3,335,-0.431,-1.6,9.248,0
55,35.567,-97.514,359.9,27.413,3,335,-0.707,-1.571,9.206,0
56,35.567,-97.514,359.7,27.313,3,336,-0.793,-1.767,9.507,0
57,35.568,-97.514,359.6,27.283,3,336,-0.653,-1.773,9.269,0
58,35.568,-97.514,359.6,27.333,3,337,-0.848,-1.685,9.239,0
59,35.568,-97.514,359.7,27.381,3,336,-0.478,-1.682,9.078,0
60,35.568,-97.514,359.8,27.501,3,337,-0.59,-1.73,8.967,0
61,35.569,-97.514,359.8,27.691,3,337,-0.765,-1.854,8.858,1
62,35.569,-97.514,359.7,27.97,3,337,-0.878,-1.898,9.281,1
63,35.569,-97.514,359.8,28.21,3,337,-0.722,-1.671,9.473,1
64,35.569,-97.514,359.8,28.3,3,337,-0.895,-1.676,9.264,1
65,35.57,-97.514,359.7,28.42,3,338,-0.69,-1.708,9.145,1
66,35.57,-97.514,359.8,28.64,3,338,-0.77,-1.7,9.059,1
67,35.57,-97.514,359.8,28.91,3,338,-0.741,-1.651,9.39,1
68,35.57,-97.514,359.8,29.22,3,338,-0.673,-1.64,9.116,1
69,35.571,-97.514,359.7,29.38,3,338,-0.833,-1.301,9.414,1
70,35.571,-97.514,359.9,29.46,3,337,-0.602,-1.428,9.563,1
71,35.571,-97.514,359.9,29.37,3,337,-0.536,-1.197,9.417,1
72,35.571,-97.514,359.9,29.23,3,337,-0.588,-1.288,9.417,1
73,35.572,-97.514,359.8,29.08,3,337,-0.667,-1.345,9.38,1
74,35.572,-97.514,359.8,29,3,336,-0.651,-1.352,9.366,1
75,35.572,-97.514,359.9,28.96,3,336,-0.707,-1.349,9.212,1
76,35.572,-97.514,359.9,28.941,3,336,-0.565,-1.329,9.244,1
77,35.573,-97.514,0.1,28.981,3,336,-0.402,-1.03,9.398,1
78,35.573,-97.514,0,28.891,3,335,-0.323,-1.066,9.393,1
79,35.573,-97.514,0,28.651,3,335,-0.515,-1.093,9.542,1
80,35.574,-97.514,359.7,28.4,3,335,-0.541,-0.987,9.602,1
81,35.574,-97.514,359.8,28.232,3,334,-0.566,-1.001,9.2,1
82,35.574,-97.514,359.8,28.021,3,334,-0.448,-1.441,9.276,1
83,35.574,-97.514,359.8,27.932,3,333,-0.634,-1.374,9.455,1
85,35.575,-97.514,359.7,28.162,3,333,-0.789,-1.35,9.619,1
85,35.575,-97.514,359.7,28.162,3,333,-0.789,-1.35,9.619,1
86,35.575,-97.514,359.6,28.161,3,332,-0.545,-1.284,9.42,1
87,35.575,-97.514,359.6,28.151,3,331,-0.416,-1.192,9.298,1
88,35.576,-97.514,359.6,27.96,3,331,-0.779,-1.247,9.585,1
89,35.576,-97.514,359.7,27.63,3,331,-0.772,-1.271,9.347,1
90,35.576,-97.514,0,27.53,3,331,-0.719,-1.393,9.327,1
91,35.576,-97.514,0,27.4,3,332,-0.696,-1.436,9.543,1
92,35.577,-97.514,0,27.261,3,333,-0.601,-1.61,9.336,1
93,35.577,-97.514,359.9,27.182,3,333,-0.695,-1.624,9.489,1
94,35.577,-97.514,359.8,27.143,3,333,-0.783,-1.871,9.537,1
95,35.577,-97.514,359.5,27.164,3,334,-0.779,-1.997,9.366,1
96,35.578,-97.514,359.4,27.394,3,334,-0.696,-1.891,9.299,1
97,35.578,-97.514,359.4,27.574,3,335,-0.694,-1.873,9.299,1
98,35.578,-97.514,359.5,27.774,3,335,-0.78,-1.884,9.242,1
99,35.578,-97.514,359.7,27.964,3,336,-0.609,-1.787,9.173,1
100,35.579,-97.514,359.8,28.134,3,337,-0.65,-1.433,9.074,1
101,35.579,-97.514,359.7,27.894,3,338,-0.763,-1.593,9.463,1
102,35.579,-97.514,359.6,27.632,3,338,-0.527,-1.455,9.055,1
103,35.579,-97.514,359.5,27.561,3,339,-0.685,-1.556,9.146,1
104,35.58,-97.514,359.6,27.541,3,339,-0.82,-1.579,9.065,1
105,35.58,-97.514,359.8,27.56,3,339,-0.754,-1.629,9.48,1
106,35.58,-97.514,359.9,27.64,3,339,-0.647,-1.56,9.219,1
107,35.58,-97.514,359.9,27.77,3,339,-0.502,-1.504,9.231,1
108,35.581,-97.514,359.9,27.94,3,339,-0.919,-1.818,9.408,1
109,35.581,-97.514,359.9,28.13,3,339,-0.72,-1.532,9.436,0
110,35.581,-97.514,0,28.29,3,338,-0.613,-1.443,9.649,0
111,35.581,-97.514,359.8,28.231,3,338,-0.976,-1.441,9.589,0
112,35.582,-97.514,359.8,28.271,3,337,-0.751,-1.334,9.604,0
113,35.582,-97.514,359.8,28.362,3,337,-0.494,-1.088,9.337,0
114,35.582,-97.514,359.7,28.212,3,336,-0.8,-1.357,9.579,0
115,35.582,-97.514,0,28.163,3,336,-0.303,-1.011,9.552,0
116,35.583,-97.514,0,28.133,3,335,-0.281,-0.953,9.457,1
117,35.583,-97.514,359.7,27.972,3,334,-0.69,-0.914,9.258,1
118,35.583,-97.514,359.6,27.792,3,334,-0.8,-1.018,9.046,1
119,35.583,-97.514,0,27.582,3,333,-0.694,-1.239,9.462,1
120,35.584,-97.514,0.5,27.401,3,332,-0.84,-1.218,9.505,1
121,35.584,-97.514,1.3,27.312,3,331,-0.984,-1.342,9.459,1
122,35.584,-97.514,2.4,27.4,3,331,-1.346,-1.42,9.223,1
123,35.584,-97.514,3.4,27.17,3,330,-1.604,-1.564,9.45,1
124,35.585,-97.514,5,27.48,3,330,-1.792,-1.539,9.51,1
125,35.585,-97.514,7.4,27.35,3,330,-1.773,-1.396,9.441,1
126,35.585,-97.514,9.5,27.26,3,330,-1.376,-1.469,9.465,1
127,35.585,-97.514,11.6,27.48,4,330,-1.064,-1.359,9.567,1
128,35.585,-97.513,14.7,27.38,3,331,-0.82,-1.325,9.453,1
129,35.586,-97.513,16.2,27.25,3,331,-0.827,-1.494,9.39,1
130,35.586,-97.513,17.4,27.06,3,331,-1.196,-1.615,9.402,1
132,35.586,-97.513,18.9,26.99,3,332,-1.133,-1.608,9.469,1
132,35.586,-97.513,18.9,26.99,3,332,-1.133,-1.608,9.469,1
133,35.587,-97.513,22.3,27.21,3,332,-0.973,-1.518,9.27,1
134,35.587,-97.513,24,27.09,3,331,-1.022,-1.12,9.4,1
135,35.587,-97.513,25.9,26.552,3,331,-0.954,-1.16,9.518,1
136,35.587,-97.513,27.4,26.082,3,330,-0.971,-1.113,9.534,1
137,35.588,-97.512,28.7,25.582,3,330,-1.009,-1.037,9.61,1
138,35.588,-97.512,30,25.082,3,329,-0.797,-1.172,9.227,1
139,35.588,-97.512,30.6,24.591,3,329,-0.423,-1.227,9.458,1
140,35.588,-97.512,30.4,24.111,3,327,-0.561,-1.219,9.363,1
141,35.588,-97.512,30.6,23.671,3,327,-0.492,-1.087,9.34,1
142,35.588,-97.512,30.5,23.25,3,326,-0.616,-1.114,9.483,1
143,35.589,-97.512,30.4,22.85,3,325,-0.68,-1.21,9.499,1
144,35.589,-97.512,30.5,22.47,3,325,-0.73,-1.244,9.211,1
145,35.589,-97.511,30.5,22.22,3,324,-0.635,-1.598,9.367,1
146,35.589,-97.511,30.7,22.39,3,324,-0.679,-2.025,9.141,1
147,35.589,-97.511,30.8,22.81,3,324,-0.576,-1.855,9.239,1
148,35.59,-97.511,30.9,23.2,3,324,-0.554,-1.278,9.248,1
149,35.59,-97.511,30.8,23,3,324,-0.593,-1.323,9.214,1
150,35.59,-97.511,30.8,22.84,3,323,-0.518,-1.313,9.261,1
151,35.59,-97.511,30.6,22.69,3,323,-0.608,-1.149,9.283,1
152,35.59,-97.51,30.5,22.4,3,323,-0.549,-1.108,9.448,1
153,35.59,-97.51,30.3,22.11,3,323,-0.647,-1.171,9.327,1
154,35.591,-97.51,30.5,21.8,3,323,-0.563,-1.315,9.44,1
155,35.591,-97.51,30.7,21.53,3,323,-0.776,-1.186,9.376,1
156,35.591,-97.51,31,21.341,3,322,-1.41,-1.033,9.034,1
157,35.591,-97.51,33,21.06,3,322,-2.034,-0.959,9.243,1
158,35.591,-97.51,36,20.8,3,322,-1.844,-0.99,9.476,1
159,35.591,-97.51,39.7,20.66,3,322,-1.641,-0.856,9.231,1
160,35.591,-97.509,43.4,20.541,3,322,-1.318,-0.933,9.154,1
161,35.592,-97.509,46.2,20.431,3,320,-1.327,-0.914,9.253,1
162,35.592,-97.509,48.5,20.37,3,320,-1.551,-1.048,9.722,1
163,35.592,-97.509,52.6,20.14,3,320,-1.398,-1.164,9.798,1
164,35.592,-97.509,56.6,20.11,3,320,-1.326,-1.064,9.445,1
165,35.592,-97.509,59.8,19.99,3,320,-0.931,-1.371,9.252,1
166,35.592,-97.508,62.1,19.91,3,319,-0.453,-1.162,9.259,1
167,35.592,-97.508,63.1,19.87,3,319,-0.357,-1.166,9.261,1
168,35.592,-97.508,62.7,19.7,3,319,-0.384,-1.197,9.782,1
169,35.592,-97.508,62.1,19.52,3,319,-0.468,-1.172,9.595,1
170,35.592,-97.508,61.7,19.22,3,319,-0.591,-1.08,9.352,1
171,35.593,-97.507,61.6,18.96,3,319,-0.93,-1.111,9.417,1
172,35.593,-97.507,61.5,18.65,3,317,-1.079,-1.094,9.447,1
173,35.593,-97.507,61.8,18.33,3,318,-0.557,-1.037,9.344,1
174,35.593,-97.507,61.8,18.04,3,318,0.913,-1.414,9.85,1
176,35.593,-97.507,58.6,17.81,3,318,1.256,-0.542,9.199,1
176,35.593,-97.507,58.6,17.81,3,318,1.256,-0.542,9.199,1
177,35.593,-97.506,44.8,16.292,3,319,0.751,-0.379,9.714,1
178,35.593,-97.506,37.8,15.202,3,319,0.342,-1.031,9.571,1
179,35.593,-97.506,36.4,14.99,4,319,0.279,-0.992,9.349,1
180,35.593,-97.506,24.2,14.02,3,318,0.366,-0.483,9.713,1
181,35.593,-97.506,19.7,13.12,3,319,-0.077,-0.28,9.778,1
182,35.594,-97.506,13.4,11.95,4,319,-0.356,-0.377,9.777,1
183,35.594,-97.506,12.7,11.08,4,319,-0.265,-0.358,9.706,1
184,35.594,-97.506,3.6,9.93,4,319,-0.505,-0.621,9.634,1
185,35.594,-97.506,1.5,8.49,3,320,-0.926,-0.686,9.462,1
186,35.594,-97.506,1.5,7.82,3,320,-0.987,-1.125,9.405,1
187,35.594,-97.506,1.6,7.46,3,320,-0.822,0.034,9.781,1
188,35.594,-97.506,0.9,5.96,3,321,-0.617,-0.103,9.481,1
189,35.594,-97.506,0.2,4.66,3,320,-0.819,-0.623,9.509,1
190,35.594,-97.506,359.7,3.9,3,320,-0.766,-0.335,9.574,1
191,35.594,-97.506,0,2.8101,3,321,-0.807,-0.308,9.578,1
192,35.594,-97.506,0,1.7201,3,321,-0.824,-1.032,9.454,1
193,35.594,-97.506,0.1,1.08,3,322,-0.864,-1.578,9.305,1
194,35.594,-97.506,0.1,1.14,3,322,-0.944,-2.463,9.081,1
195,35.594,-97.506,0.4,1.93,3,323,-0.852,-1.792,9.182,1
196,35.594,-97.506,0.7,2.41,3,323,-0.799,-1.638,9.262,1
197,35.594,-97.506,0.7,2.5,3,324,-0.816,-2.464,9.076,1
198,35.594,-97.506,1.1,3.11,3,324,-0.786,-1.204,9.445,1
199,35.594,-97.506,1.2,3.49,3,324,-0.63,-0.544,9.546,1
200,35.594,-97.506,1.2,2.4905,3,324,-0.833,-0.941,9.45,1
201,35.594,-97.506,1,2.1404,3,325,-0.894,-2.261,9.106,1
202,35.594,-97.506,0.8,2.1206,4,325,-0.824,-1.668,9.224,1
203,35.594,-97.506,1.1,2.4303,4,325,-0.744,-0.156,9.622,1
204,35.594,-97.506,0.7,1.7607,5,325,-0.792,-1.168,9.395,1
205,35.594,-97.506,0,0,5,325,-0.83,-1.54,9.313,1
206,35.594,-97.506,0,0,6,326,-0.968,-3.351,8.838,1
207,35.594,-97.506,0,0,6,326,-0.229,-4.783,8.396,1
208,35.594,-97.506,0,0,6,326,1.463,-4.283,8.463,1
209,35.594,-97.506,341.1,4.1806,5,326,1.914,-4.433,8.606,1
210,35.594,-97.506,316.5,8.9901,4,326,1.839,-4.443,8.362,1
211,35.595,-97.506,300.2,11.79,5,326,2.292,-4.44,8.496,1
212,35.595,-97.507,286.7,13.682,4,325,1.618,-3.921,8.541,0
213,35.595,-97.507,282.5,13.691,4,326,-0.615,-2.006,9.075,0
214,35.595,-97.507,276.4,16.68,5,326,-1.246,-2.077,9.046,0
215,35.595,-97.507,271.5,17.94,4,326,-1.026,-1.818,9.241,0
216,35.595,-97.507,270.7,18.42,4,328,-0.935,-1.724,9.042,0
217,35.595,-97.508,271.6,19.24,5,328,-0.796,-1.349,9.29,0
218,35.595,-97.508,271.4,19.592,7,328,-0.693,-1.159,9.585,0
220,35.595,-97.508,270.4,19.861,9,331,-0.78,-1.141,9.601,1
220,35.595,-97.508,270.4,19.861,9,331,-0.78,-1.141,9.601,1
221,35.595,-97.508,269.4,18.65,8,328,-0.745,-1.095,9.542,1
222,35.595,-97.509,271.3,18.161,7,327,-0.723,-1.102,9.586,1
223,35.595,-97.509,271.7,17.6,6,328,-0.676,0.43,9.638,1
224,35.595,-97.509,271,17.01,7,329,-0.47,1.36,10.042,0
225,35.595,-97.509,268.9,15.01,8,329,-0.832,-0.368,9.539,0
226,35.595,-97.509,269.3,13.44,9,332,-0.634,-0.138,9.631,0
227,35.595,-97.509,268.8,11.83,10,331,-0.609,0.021,9.678,0
228,35.595,-97.509,265.7,10.52,10,330,-0.656,0.238,9.72,0
229,35.595,-97.51,265.8,8.73,11,330,-0.796,-0.984,9.466,0
230,35.595,-97.51,265,7.7603,11,331,-0.837,-1.269,9.391,0
231,35.595,-97.51,267.1,6.9301,11,331,-0.811,-0.896,9.386,0
232,35.595,-97.51,266.3,6.08,10,332,-0.723,-0.258,9.574,1
233,35.595,-97.51,266.3,6.08,10,332,-0.694,-0.182,9.603,1
234,35.595,-97.51,272,2.0902,7,332,-0.86,-1.196,9.485,1
235,35.595,-97.51,268.2,2.0101,6,333,-1.082,-2.46,9.033,1
236,35.595,-97.51,271,2.3208,6,334,-0.957,-1.85,9.224,1
237,35.595,-97.51,275.2,2.55,7,334,-0.747,-0.48,9.538,1
238,35.595,-97.51,265.1,2.3808,7,332,-0.718,0.1,9.685,1
239,35.595,-97.51,268.1,1.5303,6,332,-0.885,-1.159,9.383,1
240,35.595,-97.51,0,0,6,332,-1.117,-2.738,8.997,1
241,35.595,-97.51,265.2,1.3701,7,332,-1.33,-4.395,8.513,1
242,35.595,-97.51,272.7,4.2604,6,333,-1.278,-3.832,8.674,1
243,35.595,-97.51,276.6,4.88,6,333,-1.363,-3.02,8.824,1
244,35.595,-97.51,270.1,7.3903,6,334,-1.168,-2.765,8.87,1
245,35.595,-97.51,270.7,9.1302,6,333,-1.154,-2.517,9.109,1
246,35.595,-97.51,271.6,10.6,6,330,-1.048,-2.322,9.186,1
247,35.595,-97.51,271.2,11.83,6,329,-0.849,-2.287,9.021,1
248,35.595,-97.511,272.8,12.28,8,329,-1.082,-1.842,9.409,1
249,35.595,-97.511,271,13.87,7,329,-1.071,-1.706,9.805,0
250,35.595,-97.511,269.9,14.58,6,330,-0.883,-1.795,9.482,0
251,35.595,-97.511,269.6,14.81,6,330,-1.077,-1.332,9.066,0
252,35.595,-97.511,269.7,15.02,6,330,-0.902,-1.254,9.495,0
253,35.595,-97.511,269.6,14.69,7,330,-1.075,-1.437,9.436,0
254,35.595,-97.512,269.5,14.6,5,329,-0.705,-1.56,9.181,0
255,35.595,-97.512,270.1,14.53,4,330,-0.695,-1.492,9.25,0
256,35.595,-97.512,270.8,14.47,4,330,-0.76,-1.125,9.287,0
257,35.595,-97.512,271.2,14.29,3,331,-0.847,-0.987,9.444,1
258,35.595,-97.512,271.4,14.18,4,330,-0.927,-1.031,9.138,1
259,35.595,-97.512,273,13.17,5,330,-1.114,-1.037,8.914,1
260,35.595,-97.513,271.5,13.04,4,330,-0.963,-1.212,8.933,1
261,35.595,-97.513,271.3,12.72,5,330,-0.471,-0.87,9.02,1
262,35.595,-97.513,271.7,12.29,4,330,-0.538,0.209,9.655,0
263,35.595,-97.513,271,11.4,5,331,-0.614,-0.452,9.549,0
264,35.595,-97.513,272.6,9.93,5,331,-0.907,-0.655,9.387,0
266,35.595,-97.513,273.4,9.0902,5,330,-0.923,-1.037,9.271,0
266,35.595,-97.513,273.4,9.0902,5,330,-0.923,-1.037,9.271,0
267,35.595,-97.513,272.3,8.5102,5,330,-1.064,-1.366,9.209,0
268,35.595,-97.513,272.7,8.7801,6,330,-1.169,-1.511,9.323,0
269,35.595,-97.513,272.7,8.7801,6,330,-0.915,-1.47,9.539,0
270,35.595,-97.514,273.7,9.5002,7,331,-1.022,-1.905,9.48,0
271,35.595,-97.514,270.7,9.81,5,329,-0.986,-1.875,9.297,1
272,35.595,-97.514,271.7,10.45,4,329,-0.8,-1.61,9.267,1
273,35.595,-97.514,272.3,10.82,4,331,-0.661,-1.655,9,1
274,35.595,-97.514,271.5,10.87,5,329,-0.736,-1.012,9.095,1
275,35.595,-97.514,269.7,11.19,4,329,-0.941,-1.313,8.754,1
276,35.595,-97.514,269.8,11.56,4,328,-1.195,-1.582,9.132,1
277,35.595,-97.514,272.2,11.74,4,328,-0.853,-2.117,9.142,1
278,35.595,-97.515,271.9,12.71,4,328,-0.741,-2.172,9.45,1
279,35.595,-97.515,273,12.87,4,329,-0.572,-2.196,9.486,1
280,35.595,-97.515,271.3,13.5,3,329,-0.712,-2.068,9.421,1
281,35.595,-97.515,270.4,14.22,3,329,-0.791,-1.591,9.049,1
282,35.595,-97.515,270.2,14.64,3,329,-0.824,-1.585,9.29,1
283,35.595,-97.515,270.7,14.8,3,329,-1.327,-1.663,9.827,0
284,35.595,-97.516,271.2,15.17,3,329,-0.666,-1.512,8.992,0
285,35.595,-97.516,271.1,15.4,3,330,-0.824,-1.638,9.213,0
286,35.595,-97.516,269.7,15.26,3,331,-0.909,-1.652,9.163,0
287,35.595,-97.516,269.9,15.35,3,331,-0.872,-1.955,9.202,0
288,35.595,-97.516,269.6,15.92,3,331,-1.07,-1.917,9.221,0
289,35.595,-97.516,269.3,16.41,3,331,-0.977,-1.872,9.262,0
290,35.595,-97.517,270.5,16.74,3,332,-0.882,-1.819,9.31,0
291,35.595,-97.517,271,17.1,3,331,-0.807,-1.777,9.08,1
292,35.595,-97.517,270.3,17.55,3,331,-0.413,-1.884,9.253,1
293,35.595,-97.517,270.2,17.9,3,331,-0.786,-1.98,9.548,1
294,35.595,-97.517,269.7,18.302,3,330,-0.593,-1.872,9.208,1
295,35.595,-97.518,269.4,18.41,3,331,-1.047,-1.8,9.066,1
296,35.595,-97.518,269.7,18.78,3,331,-1.046,-1.796,9.293,1
297,35.595,-97.518,269.1,19.16,3,330,-0.96,-1.646,8.561,1
298,35.595,-97.518,270.4,19.54,3,331,-0.966,-1.623,9.167,1
299,35.595,-97.518,270.7,19.78,9,331,-0.73,-1.281,9.079,1
300,35.595,-97.519,270.6,19.95,9,333,-0.679,-1.31,9.441,1
301,35.595,-97.519,269.9,20.07,9,333,-0.601,-1.126,9.401,1
302,35.595,-97.519,270.4,19.84,9,329,-0.789,-0.931,9.329,1
303,35.595,-97.519,270.3,19.54,9,330,-0.656,-1.085,9.368,1
304,35.595,-97.52,270,19.19,9,330,-0.719,-0.993,9.312,1
305,35.595,-97.52,270,18.88,9,330,-0.763,-1.073,9.154,1
306,35.595,-97.52,269.5,18.47,9,329,-0.798,-1.625,9.659,1
307,35.595,-97.52,269.7,18.38,9,329,-0.76,-1.529,9.387,1
308,35.595,-97.52,270,18.45,9,329,-0.804,-1.515,9.27,1
310,35.595,-97.521,270.5,18.49,9,327,-0.788,-1.344,9.109,1
310,35.595,-97.521,270.5,18.49,9,327,-0.788,-1.344,9.109,1
311,35.595,-97.521,270.3,18.2,9,326,-0.798,-1.079,9.364,1
312,35.595,-97.521,270.6,17.88,9,325,-0.801,-1.398,9.241,1
313,35.595,-97.521,271.5,17.93,9,324,-0.827,-1.456,9.032,1
314,35.595,-97.522,270.9,18.05,10,323,-0.772,-1.42,9.08,1
315,35.595,-97.522,269.3,18.02,9,322,-0.648,-1.534,9.261,1
316,35.595,-97.522,269.5,18.13,9,322,-0.638,-1.547,9.389,1
317,35.595,-97.522,269.1,18.25,9,321,-0.887,-1.431,9.254,1
318,35.595,-97.522,270,18.42,9,321,-0.456,-1.525,9.286,1
319,35.595,-97.523,269.1,18.57,9,322,-1.119,-1.31,8.344,1
320,35.595,-97.523,269.5,18.6,9,323,-0.718,-1.555,9.17,1
321,35.595,-97.523,269.4,18.78,9,324,-0.705,-1.194,9.128,1
322,35.595,-97.523,269.4,18.8,9,324,-0.668,-1.348,9.257,1
323,35.595,-97.523,269,18.84,9,324,-0.633,-1.132,9.336,1
324,35.595,-97.524,269,18.65,9,327,-0.886,-0.902,9.094,1
325,35.595,-97.524,269.1,18.37,9,327,-0.772,-1.052,9.207,1
326,35.595,-97.524,269.3,18.22,9,326,-0.728,-1.102,9.446,1
327,35.595,-97.524,269,17.99,9,325,-0.762,-1.31,9.411,1
328,35.595,-97.524,268.8,17.96,9,325,-0.69,-1.345,9.408,1
329,35.595,-97.525,269.1,18.01,9,325,-0.582,-1.336,9.287,1
330,35.595,-97.525,269.2,18.06,9,325,-0.74,-1.264,9.189,1
331,35.595,-97.525,269.3,18.09,9,325,-0.834,-1.21,9.835,1
332,35.595,-97.525,269.4,18,3,324,-0.797,-1.253,9.385,1
333,35.595,-97.525,269.7,18.04,3,324,-0.71,-1.379,9.523,1
334,35.595,-97.526,269.5,17.96,3,323,-0.622,-1.532,9.28,1
335,35.595,-97.526,269.8,18.12,4,324,-0.645,-1.618,9.165,1
336,35.595,-97.526,269.5,18.41,4,324,-0.899,-1.68,9.043,1
337,35.595,-97.526,268.9,18.81,3,325,-0.709,-1.893,9.426,1
338,35.595,-97.526,268.9,19.26,4,325,-0.576,-1.808,9.297,1
339,35.595,-97.527,269.1,19.67,4,325,-0.803,-1.562,8.967,1
340,35.595,-97.527,269.1,19.95,4,325,-0.807,-1.19,8.907,1
341,35.595,-97.527,269.2,20.03,4,326,-0.728,-1.254,9.726,1
342,35.595,-97.527,268.6,19.88,3,325,-0.767,-1.344,9.431,1
343,35.595,-97.528,268.9,19.95,3,326,-0.77,-1.391,9.428,1
344,35.595,-97.528,269,20.081,3,325,-0.829,-0.921,9.349,1
345,35.595,-97.528,268.9,19.94,3,325,-0.708,-1.018,9.4,1
346,35.595,-97.528,269,19.68,3,325,-0.751,-1.021,9.44,1
347,35.595,-97.528,269.1,19.55,3,326,-0.61,-0.952,9.162,1
348,35.595,-97.529,269.2,19.15,4,325,-0.701,-0.918,9.365,1
349,35.595,-97.529,269.3,18.89,4,324,-0.665,-0.969,9.394,1
350,35.595,-97.529,269.5,18.55,3,324,-0.375,-0.801,9.726,1
351,35.595,-97.529,269.5,17.98,3,324,-0.464,-0.711,9.562,1
352,35.595,-97.529,269.2,17.19,3,323,-0.765,-0.996,9.532,1
354,35.595,-97.53,269.3,16.6,3,323,-0.794,-1.047,9.495,1
354,35.595,-97.53,269.3,16.6,3,323,-0.794,-1.047,9.495,1
355,35.595,-97.53,271.5,15.62,4,321,-0.662,-1.023,9.294,1
356,35.595,-97.53,271.2,15.02,3,322,-0.732,-1.052,9.514,1
357,35.595,-97.53,270.9,14.43,4,323,-0.929,-1.02,9.506,1
358,35.595,-97.53,270,13.84,4,323,-0.622,-0.315,9.248,1
359,35.595,-97.531,270.3,12.55,3,323,-0.552,0.415,9.672,1
360,35.595,-97.531,271.3,10.54,4,323,-0.621,-0.196,9.623,1
361,35.595,-97.531,271.7,9.21,4,324,-0.809,-0.95,9.648,1
362,35.595,-97.531,271,8.65,4,324,-0.496,-0.249,9.34,1
363,35.595,-97.531,270.2,7.14,3,325,-0.263,1.073,9.829,1
364,35.595,-97.531,270.3,4.2702,3,323,-0.256,0.614,9.782,0
365,35.595,-97.531,269.2,2.1302,3,324,-0.444,-0.691,9.538,0
366,35.595,-97.531,269.4,1.54,3,324,-0.541,-1.021,9.432,0
367,35.595,-97.531,269.4,1.0902,3,324,-0.452,-0.485,9.564,0
368,35.595,-97.531,269.4,1.0902,3,324,-0.608,-1.273,9.346,0
369,35.595,-97.531,0,0,3,323,-0.605,-1.456,9.325,0
370,35.595,-97.531,0,0,3,323,-0.616,-1.484,9.321,0
371,35.595,-97.531,0,0,3,323,-0.622,-1.472,9.293,1
372,35.595,-97.531,0,0,3,323,-0.61,-1.485,9.309,1
373,35.595,-97.531,0,0,3,323,-0.634,-1.485,9.303,1
374,35.595,-97.531,0,0,3,323,-0.619,-1.491,9.305,1
375,35.595,-97.531,0,0,3,323,-0.623,-1.477,9.302,1
376,35.595,-97.531,0,0,3,323,-0.621,-1.484,9.284,1
377,35.595,-97.531,0,0,3,323,-0.623,-1.491,9.306,1
378,35.595,-97.531,0,0,3,323,-0.617,-1.478,9.287,1
379,35.595,-97.531,0,0,3,323,-0.619,-1.493,9.294,1
380,35.595,-97.531,0,0,3,323,-0.615,-1.483,9.303,1
381,35.595,-97.531,0,0,3,323,-0.631,-1.485,9.284,1
382,35.595,-97.531,0,0,3,323,-0.605,-1.476,9.304,1
383,35.595,-97.531,0,0,3,323,-0.607,-1.483,9.326,1
384,35.595,-97.531,0,0,3,323,-0.623,-1.475,9.291,1
385,35.595,-97.531,0,0,3,323,-0.614,-1.478,9.31,1
386,35.595,-97.531,0,0,3,323,-0.614,-1.495,9.322,1
387,35.595,-97.531,0,0,3,323,-0.624,-1.464,9.271,1
388,35.595,-97.531,0,0,3,323,-0.614,-1.489,9.292,1
389,35.595,-97.531,0,0,3,323,-0.626,-1.49,9.301,1
390,35.595,-97.531,0,0,3,323,-0.602,-1.487,9.328,1
391,35.595,-97.531,0,0,3,323,-0.606,-1.487,9.331,1
392,35.595,-97.531,0,0,3,323,-0.615,-1.492,9.332,1
393,35.595,-97.531,0,0,3,323,-0.633,-1.476,9.287,1
394,35.595,-97.531,0,0,3,323,-0.625,-1.504,9.308,1
395,35.595,-97.531,0,0,3,323,-0.629,-1.5,9.314,1
396,35.595,-97.531,0,0,3,323,-0.607,-1.476,9.337,1
397,35.595,-97.531,0,0,3,323,-0.612,-1.497,9.334,1
398,35.595,-97.531,0,0,3,323,-0.613,-1.499,9.344,1
399,35.595,-97.531,0,0,3,323,-0.628,-1.469,9.269,1
400,35.595,-97.531,0,0,3,323,-0.626,-1.478,9.291,1
401,35.595,-97.531,0,0,3,323,-0.63,-1.484,9.293,1
402,35.595,-97.531,0,0,3,323,-0.615,-1.473,9.317,1
403,35.595,-97.531,0,0,3,323,-0.603,-1.483,9.327,1
404,35.595,-97.531,0,0,3,323,-0.615,-1.497,9.332,1
405,35.595,-97.531,0,0,3,323,-0.636,-1.478,9.266,1
406,35.595,-97.531,0,0,3,323,-0.624,-1.475,9.287,1
407,35.595,-97.531,0,0,3,323,-0.629,-1.485,9.31,1
408,35.595,-97.531,0,0,3,323,-0.617,-1.481,9.314,1
409,35.595,-97.531,0,0,3,323,-0.629,-1.476,9.298,1
410,35.595,-97.531,0,0,3,323,-0.641,-1.487,9.3,1
411,35.595,-97.531,0,0,3,323,-0.603,-1.474,9.326,1
412,35.595,-97.531,0,0,3,323,-0.605,-1.48,9.336,1
413,35.595,-97.531,0,0,3,323,-0.62,-1.491,9.312,1
414,35.595,-97.531,0,0,3,323,-0.666,-1.689,9.21,1
416,35.595,-97.531,0,0,3,323,-0.827,-2.895,8.993,1
416,35.595,-97.531,0,0,3,323,-0.827,-2.895,8.993,1
417,35.595,-97.531,268.9,1.2702,9,323,-1,-3.762,8.663,1
418,35.595,-97.531,269.4,3.68,9,322,-0.859,-3.656,8.587,1
419,35.595,-97.531,268.8,5.97,9,322,-0.874,-2.865,8.86,1
420,35.595,-97.531,267.5,7.5001,9,322,-2.093,-1.793,9.272,1
421,35.595,-97.531,270.3,8.0402,9,322,-4.649,-0.633,9.183,0
422,35.595,-97.531,287.9,7.7315,3,323,-5.027,-1.202,9.703,0
423,35.595,-97.531,303.5,6.7712,3,324,-2.684,-2.323,9.389,0
424,35.595,-97.531,356.8,10.143,3,320,0.778,-3.085,8.761,0
425,35.595,-97.531,1.5,12.101,3,320,1.26,-3.212,9.055,0
426,35.595,-97.531,0.3,13.911,3,319,1.264,-2.606,8.628,0
427,35.595,-97.531,359,15.441,3,319,0.68,-2.165,8.968,0
428,35.595,-97.531,358.1,16.232,3,320,0.26,-2.02,9.163,0
429,35.596,-97.531,358,16.881,3,319,0.149,-2.299,9.393,0
430,35.596,-97.531,358.4,17.522,3,320,-0.126,-1.611,9.045,0
431,35.596,-97.531,359.2,18.101,3,319,0.254,-1.755,9.295,1
432,35.596,-97.531,1.4,17.92,3,320,0.332,-1.682,9.248,1
433,35.596,-97.531,359.5,18.771,3,319,0.256,-1.857,9.498,1
434,35.596,-97.531,359.5,19.01,3,318,0.086,-1.516,8.964,1
435,35.597,-97.531,359.6,19.13,3,317,0.157,-1.57,9.288,1
436,35.597,-97.531,359.7,19.35,3,317,0.193,-1.758,9.548,1
437,35.597,-97.531,359.7,19.49,3,317,-0.115,-1.785,9.343,1
438,35.597,-97.531,359.6,19.66,3,316,-0.111,-1.581,9.322,1
439,35.597,-97.531,359.7,19.81,3,316,-0.177,-1.52,9.357,1
440,35.597,-97.531,359.6,19.73,3,316,-0.154,-1.544,9.138,1
441,35.598,-97.531,359.6,19.56,3,315,-0.276,-1.503,9.204,1
442,35.598,-97.531,359.7,19.57,3,315,-0.33,-1.359,9.249,1
444,35.598,-97.531,359.6,19.6,3,315,-0.128,-1.647,9.359,1
444,35.598,-97.531,359.6,19.6,3,315,-0.128,-1.647,9.359,1
445,35.598,-97.531,359.7,19.65,3,314,-0.169,-1.787,9.033,1
446,35.599,-97.531,359.3,19.67,3,314,-0.342,-1.53,9.19,1
447,35.599,-97.531,359.3,19.72,3,314,-0.537,-1.482,9.236,1
448,35.599,-97.531,359.4,19.72,3,314,-0.455,-1.427,8.6,1
449,35.599,-97.531,359.6,19.74,3,314,-0.604,-1.23,8.924,1
450,35.599,-97.531,359.7,19.82,3,313,-0.31,-1.641,9.285,1
451,35.599,-97.531,359.9,19.91,3,313,-0.288,-1.563,9.175,1
452,35.6,-97.531,359.6,19.99,3,313,-0.307,-1.679,9.139,1
453,35.6,-97.531,359.4,20.07,4,312,-0.422,-1.677,9.295,1
454,35.6,-97.531,359.4,20.24,3,311,-0.379,-1.476,9.421,1
455,35.6,-97.531,359.3,20.07,3,311,-0.114,-1.624,9.768,1
456,35.6,-97.531,359.6,20,3,311,-0.346,-1.484,9.286,0
457,35.6,-97.531,359.9,19.97,4,311,-0.119,-0.865,9.304,0
458,35.601,-97.531,359.7,19.64,4,311,-0.208,-1.271,9.623,0
459,35.601,-97.531,0,19.38,3,310,-0.254,-1.261,9.259,0
460,35.601,-97.531,0,19.08,4,310,-0.239,-1.184,9.286,0
461,35.601,-97.531,359.5,18.87,3,310,-0.301,-1.556,9.868,0
462,35.601,-97.531,359.5,18.52,4,310,-0.34,-1.083,9.31,0
463,35.602,-97.531,359.4,18.3,4,310,-0.26,-1.104,9.124,0
464,35.602,-97.531,359.3,17.96,5,309,-0.596,-0.695,8.256,0
465,35.602,-97.531,359.6,17.73,5,308,-0.618,-1.127,9.223,0
466,35.602,-97.531,359.9,17.43,5,308,-0.426,-0.93,9.079,0
467,35.602,-97.531,359.6,17.19,5,308,-0.461,-1.244,9.445,0
468,35.602,-97.531,359.6,16.96,4,308,-0.135,-0.173,9.666,0
469,35.602,-97.531,359.8,16.32,5,308,-0.46,1.053,9.977,0
470,35.603,-97.531,1.4,14.24,5,309,-0.38,-0.595,9.563,0
471,35.603,-97.531,0.5,12.4,4,307,-0.389,0.021,9.691,0
472,35.603,-97.531,1.3,11.54,4,307,-0.339,-0.796,9.518,0
473,35.603,-97.531,1.3,10.32,5,308,-0.403,-0.765,9.63,0
474,35.603,-97.531,1.3,9.8201,4,308,-0.514,-0.005,9.633,0
475,35.603,-97.531,1.2,8.6002,4,308,-0.562,0.134,9.79,0
476,35.603,-97.531,359.9,7.9502,4,307,-0.609,0.116,9.535,0
477,35.603,-97.531,358.4,6.7606,5,308,-0.708,-1.059,9.391,1
478,35.603,-97.531,3.4,5.2421,4,308,-0.705,-1.08,9.421,1
479,35.603,-97.531,1.1,4.6411,4,307,-0.618,0.033,9.716,1
480,35.603,-97.531,2.4,3.8516,4,307,-0.637,-1.004,9.435,1
481,35.603,-97.531,3.7,3.0211,4,310,-0.716,-1.273,9.447,1
482,35.603,-97.531,1.5,2.6307,4,309,-0.743,-0.699,9.513,1
483,35.603,-97.531,2.5,2.33,4,309,-0.732,-0.79,9.524,1
484,35.603,-97.531,7.1,1.8047,5,309,-0.737,-0.892,9.508,1
485,35.603,-97.531,10.6,1.2516,6,309,-0.769,-1.146,9.455,1
486,35.603,-97.531,10.6,1.2516,6,309,-0.764,-1.374,9.375,1
488,35.603,-97.531,10.6,1.2516,6,309,-0.766,-1.5,9.327,1
488,35.603,-97.531,10.6,1.2516,6,309,-0.766,-1.5,9.327,1
489,35.603,-97.531,0,0,11,309,-0.789,-1.282,9.396,1
490,35.603,-97.531,0,0,11,309,-0.792,-1.388,9.362,1
491,35.603,-97.531,0,0,11,309,-0.841,-1.737,9.251,1
492,35.603,-97.531,0,0,11,309,-0.883,-2.255,9.083,1
493,35.603,-97.531,352.7,1.4927,10,308,-1.008,-3.706,8.669,1
494,35.603,-97.531,353.3,3.4233,10,308,-0.974,-3.367,8.788,1
495,35.604,-97.531,0,5.9701,10,306,-0.705,-2.035,9.249,1
496,35.604,-97.531,359.6,6.22,9,306,-0.495,-1.666,9.437,1
497,35.604,-97.531,358.6,6.2102,9,308,-0.549,-1.389,9.233,1
498,35.604,-97.531,359.3,6.25,9,308,-0.706,-2.758,8.934,1
499,35.604,-97.531,359,7.4102,9,308,-0.889,-3.202,8.935,1
500,35.604,-97.531,359.7,9.07,9,307,-0.52,-2.903,8.758,1
501,35.604,-97.531,359,10.84,9,308,-0.729,-3.158,9.223,1
502,35.604,-97.531,359.5,12.48,9,309,-0.742,-2.801,8.767,1
503,35.604,-97.531,359.8,13.89,9,307,-0.693,-2.791,9.109,1
504,35.604,-97.531,359.6,14.99,9,308,-0.799,-2.496,8.669,1
505,35.604,-97.531,359.6,16.1,9,307,-1.157,-2.243,8.491,0
506,35.605,-97.531,0,16.96,9,307,-0.829,-1.54,9.228,0
507,35.605,-97.531,0.3,17.29,9,307,-0.822,-1.264,9.385,0
508,35.605,-97.531,0.6,17.12,9,308,-0.644,-1.176,9.514,0
509,35.605,-97.531,1,16.77,9,308,-0.56,-1.216,9.399,0
510,35.605,-97.531,1.1,16.41,9,308,-0.379,0.012,9.609,0
511,35.605,-97.531,0.9,15.36,9,309,-0.447,0.48,9.749,0
512,35.605,-97.531,1.3,13.53,9,309,-0.938,-0.409,8.385,1
513,35.606,-97.531,1.8,12.7,9,309,-0.598,-0.428,10.111,0
514,35.606,-97.531,1.7,11.78,9,309,-0.6,-0.23,10.116,0
515,35.606,-97.531,2.2,10.59,9,309,-0.671,0.233,9.823,0
516,35.606,-97.531,2.5,8.9503,9,309,-0.751,-0.188,9.658,0
517,35.606,-97.531,3.3,7.7616,9,308,-0.575,-0.219,9.632,0
518,35.606,-97.531,1.9,6.2604,10,309,-0.763,-0.558,9.614,0
519,35.606,-97.531,0,5.27,10,310,-1.094,-0.671,9.528,0
520,35.606,-97.531,6.8,4.7302,9,310,-1.248,-0.951,9.538,0
521,35.606,-97.531,7.3,3.7905,10,309,-1.064,-0.938,9.459,0
522,35.606,-97.531,17.3,3.5701,10,309,-0.848,-0.278,9.701,1
523,35.606,-97.531,19.6,2.81,10,309,-0.732,-0.467,9.657,1
524,35.606,-97.531,28.1,1.617,9,310,-0.593,-0.559,9.556,1
525,35.606,-97.531,28.1,1.617,9,310,-0.641,-1.284,9.336,1
526,35.606,-97.531,28.1,1.617,9,310,-0.639,-1.493,9.388,1
527,35.606,-97.531,28.1,1.617,9,310,-0.673,-1.592,9.296,1
528,35.606,-97.531,27.8,0.15811,10,312,-0.649,-1.631,9.266,1
529,35.606,-97.531,27.8,0.27019,9,312,-1.379,-3.524,8.671,1
530,35.606,-97.531,27.8,1.0108,9,313,-2.966,-3.648,8.675,1
531,35.606,-97.531,55.1,3.7334,9,313,-4.271,-3.037,8.525,0
532,35.606,-97.531,73.9,6.4404,9,315,-3.398,-3.717,8.589,0
534,35.606,-97.531,97.1,8.6307,9,316,-1.722,-3.777,8.565,0
534,35.606,-97.531,97.1,8.6307,9,316,-1.722,-3.777,8.565,0
535,35.606,-97.531,111.9,13.5,3,314,-0.831,-2.859,9.077,0
536,35.606,-97.531,111.6,14.54,3,315,-0.661,-2.062,9.078,0
537,35.606,-97.531,111.3,14.79,3,315,-0.405,-1.221,9.143,0
538,35.606,-97.531,111.2,14.46,3,316,-0.917,-0.653,9.623,0
539,35.606,-97.53,111.8,12.89,3,315,-0.811,0.914,9.748,0
540,35.606,-97.53,112.3,10.38,3,316,-0.976,0.104,9.585,1
541,35.606,-97.53,114.3,8.9,3,317,-2.215,0.243,9.381,1
542,35.606,-97.53,126.2,7.2208,3,317,-4.169,0.002,9.611,0
543,35.606,-97.53,156.2,6.5,3,317,-4.28,-0.557,9.365,0
544,35.606,-97.53,186.6,6.0004,3,316,-2.913,-1.123,9.288,0
545,35.606,-97.53,200.7,6.0007,3,316,-1.563,-1.35,9.282,0
546,35.606,-97.53,207.1,5.29,3,315,-1.186,-1.878,9.112,0
547,35.605,-97.53,207.5,5.3101,3,315,-1.029,-1.578,9.249,0
548,35.605,-97.53,206,5.4001,3,314,-0.699,-1.448,9.356,0
549,35.605,-97.53,201.3,5.2724,3,315,-0.713,-1.36,9.399,0
550,35.605,-97.53,197.9,5.39,3,315,-0.728,-1.396,9.434,0
551,35.605,-97.53,195.5,5.21,3,315,-0.702,-1.373,9.326,1
552,35.605,-97.53,192,4.98,3,314,-0.794,-1.141,9.408,1
553,35.605,-97.53,187.8,4.89,3,314,-0.861,-1.275,9.395,1
554,35.605,-97.53,186,4.2703,3,313,-0.919,-1.312,9.329,1
555,35.605,-97.53,185.3,4.2778,3,314,-1.075,-1.306,9.378,1
556,35.605,-97.53,180.6,3.58,3,314,-1.131,-1.271,9.367,1
557,35.605,-97.53,181,3.3702,3,314,-1.167,-1.453,9.313,1
558,35.605,-97.53,181.7,3.0801,3,314,-1.192,-1.549,9.272,1
559,35.605,-97.53,182.1,3.1001,3,314,-1.052,-1.148,9.399,1
560,35.605,-97.53,183.3,2.7503,3,314,-1.076,-1.281,9.351,1
561,35.605,-97.53,184.9,2.31,3,314,-0.978,-1.308,9.378,1
562,35.605,-97.53,188,2.0602,4,313,-0.672,-1.683,9.24,1
563,35.605,-97.53,184,1.881,3,313,-0.27,-1.653,9.291,1
564,35.605,-97.53,179.8,2.3913,3,314,0.107,-2.065,9.188,1
565,35.605,-97.53,149.5,2.8218,3,314,0.169,-2.084,9.224,1
566,35.605,-97.53,146.4,3.34,3,313,-0.228,-1.78,9.22,1
567,35.605,-97.53,126.5,3.6,3,313,-0.553,-1.393,9.349,1
568,35.605,-97.53,110.6,3.881,3,313,-0.333,-1.202,9.398,1
569,35.605,-97.53,99.2,3.5304,3,314,0.222,-1.105,9.519,1
570,35.605,-97.53,88.7,3.1827,3,315,0.201,-1.143,9.407,1
571,35.605,-97.53,73.7,2.9402,3,315,-0.224,-1.282,9.385,1
572,35.605,-97.53,29,2.6942,3,316,-0.463,-1.279,9.363,1
573,35.605,-97.53,32.7,3.0303,3,317,-0.702,-1.902,9.187,1
574,35.605,-97.53,17.5,3.1845,4,317,-0.636,-1.553,9.357,1
575,35.605,-97.53,8.5,3.87,4,317,-0.755,-1.078,9.454,1
577,35.605,-97.53,2.2,3.9206,4,317,-1.232,-0.947,9.452,1
577,35.605,-97.53,2.2,3.9206,4,317,-1.232,-0.947,9.452,1
578,35.605,-97.53,357.2,3.6209,4,317,-1.181,-1.182,9.34,1
579,35.605,-97.53,359.8,3.53,5,316,-1.008,-1.333,9.367,1
580,35.605,-97.53,2.6,3.48,5,316,-0.816,-0.962,9.478,1
581,35.605,-97.53,4.1,3.1201,5,316,-0.613,-0.809,9.51,1
582,35.605,-97.53,353.6,2.5894,4,316,-0.312,-1.159,9.413,1
583,35.605,-97.53,341.7,2.38,4,317,-0.047,-1.189,9.436,1
584,35.605,-97.53,338.9,2.1202,4,316,-0.012,-1.049,9.485,1
585,35.605,-97.53,323.2,2.23,4,316,-0.245,-0.978,9.425,1
586,35.605,-97.53,303.4,1.66,4,315,-0.829,-1.232,9.355,1
587,35.605,-97.53,288.9,1.1302,4,315,-1.038,-1.378,9.34,1
588,35.605,-97.53,338,0.86,4,314,-0.923,-1.152,9.442,1
589,35.605,-97.53,338,0.86,4,314,-0.94,-1.292,9.382,1
590,35.605,-97.53,0,0,3,315,-0.951,-1.155,9.385,1
591,35.605,-97.53,0,0,3,315,-0.994,-1.833,9.173,1
592,35.605,-97.53,0,0,3,315,-0.968,-1.647,9.265,1
593,35.605,-97.53,0,0,3,315,-0.935,-1.623,9.315,1
594,35.605,-97.53,0,0,3,315,-0.972,-1.59,9.252,1
595,35.605,-97.53,0,0,3,315,-0.986,-1.588,9.245,1
596,35.605,-97.53,0,0,3,315,-0.971,-1.595,9.294,1
597,35.605,-97.53,0,0,3,315,-0.95,-1.607,9.276,1
598,35.605,-97.53,0,0,3,315,-0.952,-1.606,9.257,1
599,35.605,-97.53,0,0,3,315,-1.559,-1.444,9.052,1
600,35.605,-97.53,0,0,3,315,-4.528,-1.021,8.448,1
