time,lat,lng,bearing,spd,acc,alt,accx,accy,accz,stable,
0,35.233,-97.456,0,0,3,339,-0.49,9.691,4.095,0
1,35.233,-97.456,0,0,3,339,-0.509,9.768,4.197,0
2,35.233,-97.456,0,0,3,339,-0.488,9.699,4.052,0
3,35.233,-97.456,0,0,3,339,-0.535,9.798,4.199,0
4,35.233,-97.456,0,0,3,339,-0.528,9.821,4.171,0
5,35.233,-97.456,0,0,3,339,-0.495,9.713,4.083,0
6,35.233,-97.456,0,0,3,339,-0.544,9.82,4.2,0
7,35.233,-97.456,0,0,3,339,-0.518,9.723,4.172,0
8,35.233,-97.456,0,0,3,339,-0.462,9.608,4.122,0
9,35.233,-97.456,0,0,3,339,-0.484,9.749,4.042,0
10,35.233,-97.456,0,0,3,339,-0.466,9.932,3.719,0
11,35.233,-97.456,0,0,3,339,-0.528,10.291,3.07,0
12,35.233,-97.456,90.7,2.0901,3,337,-0.336,10.58,2.3,0
13,35.233,-97.455,89.4,4.1008,3,336,-0.451,10.69,2.638,0
14,35.233,-97.455,90.5,5.7302,3,336,-0.542,10.385,2.83,0
15,35.233,-97.455,90.7,7.0905,3,337,-0.548,10.277,2.964,0
16,35.233,-97.455,90.8,8.1703,3,337,-0.581,10.263,3.816,0
17,35.233,-97.455,90.6,8.8105,3,337,-0.509,9.944,3.906,0
18,35.233,-97.455,90.9,9.0402,3,338,-0.776,10.1,3.435,0
19,35.233,-97.455,90.8,9.6603,3,338,-0.623,10.104,3.997,0
20,35.233,-97.455,90.8,10.04,3,338,-0.552,9.904,3.488,0
21,35.233,-97.455,90.9,10.461,3,338,-0.626,10.032,3.635,0
23,35.233,-97.455,91.2,11.01,3,338,-0.409,9.837,3.677,0
24,35.233,-97.454,91.7,11.51,3,338,-0.452,9.83,3.553,0
25,35.233,-97.454,91.6,11.92,3,338,-0.73,10.298,4.454,0
26,35.233,-97.454,91.1,11.9,3,338,-0.567,9.837,4.099,0
27,35.233,-97.454,90.9,11.84,3,338,-0.714,9.805,3.997,0
28,35.233,-97.454,90.7,11.91,3,338,-0.632,9.444,3.847,0
29,35.233,-97.454,90.5,11.97,3,337,-0.581,9.564,3.576,0
30,35.233,-97.454,90.3,12.45,3,337,-0.755,9.997,3.541,0
31,35.233,-97.453,89.9,13.221,3,337,-0.471,9.814,3.628,0
32,35.233,-97.453,89.7,14.092,3,337,-0.393,10.778,4.332,0
33,35.233,-97.453,90.2,14.802,3,337,-0.542,9.654,4.532,0
34,35.233,-97.453,90.4,15.246,3,336,-0.563,9.556,4.271,0
35,35.233,-97.453,90.5,15.547,3,335,-0.572,10.425,5.001,0
36,35.233,-97.453,90.7,16.113,3,334,-0.944,10.092,4.901,0
37,35.233,-97.452,90.6,16.392,3,333,-0.455,9.128,4.037,0
38,35.233,-97.452,90.2,16.394,3,333,-0.629,9.999,4.463,0
39,35.233,-97.452,90,16.763,3,332,0.055,9.288,4.319,0
40,35.233,-97.452,90.1,16.982,3,332,-0.332,9.672,4.233,0
41,35.233,-97.452,90.3,17.011,3,332,-0.433,9.591,4.043,0
42,35.233,-97.452,90.2,17.18,3,331,-0.467,10.651,5.28,0
43,35.233,-97.451,90,16.782,3,332,-0.54,10.359,3.866,0
44,35.233,-97.451,89.8,17.01,4,332,-0.581,10.246,3.708,0
45,35.233,-97.451,90.7,17.86,4,333,-0.767,10.316,3.825,0
46,35.233,-97.451,90.3,18.532,4,332,-0.472,10.34,3.759,0
47,35.233,-97.451,89.9,19.043,3,332,-0.047,9.805,3.418,0
48,35.233,-97.45,90.1,19.515,3,332,-0.466,9.962,4.262,0
49,35.233,-97.45,90.4,19.555,3,333,-0.586,9.712,4.653,0
50,35.233,-97.45,90.6,18.956,3,333,-0.538,9.509,4.192,0
51,35.233,-97.45,90.6,18.275,3,333,-0.516,9.512,4.197,0
52,35.233,-97.45,90.2,17.625,3,333,-0.7,9.717,4.316,0
53,35.233,-97.449,90,17.123,3,334,-0.412,9.687,4.418,0
54,35.233,-97.449,91,16.773,3,334,-0.171,9.474,4.553,0
55,35.233,-97.449,89.9,15.841,3,336,-0.472,9.202,4.145,0
56,35.233,-97.449,90,15.54,3,337,-0.422,9.573,4.067,0
57,35.233,-97.448,90.2,15.44,3,337,-0.193,9.754,4.516,0
58,35.233,-97.448,90.4,15.53,3,337,-0.38,9.637,3.946,0
59,35.233,-97.448,90.6,15.46,3,337,-0.366,9.773,4.133,0
60,35.233,-97.448,90.6,15.52,3,337,-0.501,9.726,4.523,0
61,35.233,-97.448,90.7,15.35,3,337,-0.389,9.784,4.58,0
62,35.233,-97.448,90.1,15.34,3,337,-0.626,9.713,4.462,0
63,35.233,-97.447,90.2,15.31,3,336,-0.164,9.478,4.199,0
64,35.233,-97.447,89.9,15.39,3,336,-0.389,9.474,4.546,0
65,35.233,-97.447,90,15.19,3,336,-0.45,9.597,4.488,0
66,35.233,-97.447,90.3,15.07,3,336,-0.381,9.584,4.463,0
67,35.233,-97.447,90.8,14.99,3,336,-0.426,9.682,4.311,0
68,35.233,-97.447,90.3,15.04,3,336,-0.493,9.639,4.321,0
69,35.233,-97.446,90,15.15,3,336,-0.609,9.879,4.117,0
70,35.233,-97.446,89.9,15.4,3,336,-0.336,9.553,3.865,0
71,35.233,-97.446,90.5,15.61,3,336,-0.374,9.547,3.945,0
72,35.233,-97.446,91.4,15.78,3,337,-0.446,9.767,4.284,0
73,35.233,-97.446,91.9,15.89,3,337,-0.344,9.558,4.366,0
74,35.233,-97.446,92,15.82,3,337,-0.32,9.424,4.57,0
75,35.233,-97.445,91.9,15.61,3,337,-0.78,9.491,3.996,0
76,35.233,-97.445,91.4,15.49,3,336,-0.658,9.477,4.339,0
77,35.233,-97.445,90.8,15.31,3,336,-0.54,9.536,4.402,0
78,35.233,-97.445,90.7,15.16,3,336,-0.658,9.793,4.626,0
79,35.233,-97.445,90.3,15.06,3,336,-0.464,9.618,4.253,0
80,35.233,-97.445,89.6,15.05,3,336,-0.351,9.288,4.169,0
81,35.233,-97.444,89.9,14.95,3,335,-0.385,9.412,4.449,0
83,35.233,-97.444,90.4,14.65,3,335,-0.433,9.438,4.488,0
84,35.233,-97.444,90.7,14.27,3,335,-0.561,9.499,4.562,0
85,35.233,-97.444,90.8,13.92,3,336,-0.565,9.514,4.587,0
86,35.233,-97.444,90.3,13.54,3,336,-0.471,8.91,5.638,0
87,35.233,-97.444,90.3,12.06,3,336,-0.688,9.046,5.416,0
88,35.233,-97.444,90.2,10.58,3,336,-0.439,9.572,4.431,0
89,35.233,-97.443,88.9,10.351,3,336,-0.404,9.768,4.031,0
90,35.233,-97.443,90.6,10.48,3,336,-0.67,9.976,3.799,0
91,35.233,-97.443,90.5,10.85,3,336,-0.189,9.814,3.779,0
92,35.233,-97.443,91.3,11.29,3,336,-0.432,9.922,3.913,0
93,35.233,-97.443,90.7,11.81,3,336,-0.394,9.893,3.643,0
94,35.233,-97.443,90.6,12.49,3,336,-0.54,9.76,4.185,0
95,35.233,-97.443,90.9,12.69,3,337,-0.597,9.478,4.496,0
96,35.233,-97.443,90.9,12.5,4,337,-0.681,9.296,4.439,0
97,35.233,-97.442,90.5,11.98,3,336,-0.692,9.4,4.471,0
98,35.233,-97.442,90.1,11.65,3,336,-0.542,9.586,4.826,0
99,35.233,-97.442,90.3,11.27,3,336,-0.629,9.288,5.262,0
100,35.233,-97.442,90.4,10.37,3,336,-0.725,9.044,5.4,0
101,35.233,-97.442,90.5,9,3,336,-0.529,9.003,5.23,0
102,35.233,-97.442,90.1,7.8002,3,337,-0.584,9.077,5.561,0
103,35.233,-97.442,90.4,6.57,3,337,-0.677,9.139,5.373,0
104,35.233,-97.442,90,5.2201,3,336,-0.413,9.213,4.949,0
105,35.233,-97.442,91.1,4.42,3,336,-0.636,9.33,4.855,0
106,35.233,-97.442,91,3.7101,3,337,-0.589,9.329,4.879,0
107,35.233,-97.442,91.8,2.9724,3,336,-0.563,9.367,4.793,0
108,35.233,-97.442,90.3,2.29,3,337,-0.593,9.518,4.57,0
109,35.233,-97.442,91.2,1.78,3,337,-0.607,9.573,4.41,0
110,35.233,-97.442,91.1,1.51,3,337,-0.548,9.598,4.369,0
111,35.233,-97.442,91.6,1.32,3,337,-0.578,9.551,4.554,0
112,35.233,-97.442,91.6,1.1102,3,337,-0.569,9.568,4.482,0
113,35.233,-97.442,91.6,1.1102,3,337,-0.548,9.502,4.58,0
114,35.233,-97.442,91.6,1.1102,3,337,-0.541,9.578,4.428,0
115,35.233,-97.442,91.6,1.1102,3,337,-0.544,9.685,4.192,0
116,35.233,-97.442,91.6,1.1102,3,337,-0.533,9.663,4.153,0
117,35.233,-97.442,91.6,1.1102,3,337,-0.562,9.748,4.274,0
118,35.233,-97.442,91.6,1.1102,3,337,-0.533,9.638,4.18,0
119,35.233,-97.442,0,0,3,339,-0.547,9.704,4.175,0
120,35.233,-97.442,0,0,3,339,-0.523,9.642,4.173,0
121,35.233,-97.442,0,0,3,339,-0.523,9.633,4.205,0
122,35.233,-97.442,0,0,3,339,-0.532,9.656,4.211,0
123,35.233,-97.442,0,0,3,339,-0.582,9.799,4.245,0
124,35.233,-97.442,0,0,3,339,-0.508,9.611,4.155,0
125,35.233,-97.442,0,0,3,339,-0.577,9.761,4.268,0
126,35.233,-97.442,0,0,3,339,-0.499,9.599,4.153,0
127,35.233,-97.442,0,0,3,339,-0.599,9.817,4.236,0
128,35.233,-97.442,0,0,3,339,-0.628,9.864,4.269,0
129,35.233,-97.442,0,0,3,339,-0.613,9.836,4.287,0
130,35.233,-97.442,0,0,3,339,-0.503,9.6,4.177,0
131,35.233,-97.442,0,0,3,339,-0.584,9.803,4.22,0
132,35.233,-97.442,0,0,3,339,-0.507,9.607,4.161,0
133,35.233,-97.442,0,0,3,339,-0.586,9.823,4.255,0
134,35.233,-97.442,0,0,3,339,-0.514,9.629,4.146,0
135,35.233,-97.442,0,0,3,339,-0.55,9.699,4.263,0
136,35.233,-97.442,0,0,3,339,-0.587,9.787,4.297,0
137,35.233,-97.442,0,0,3,339,-0.58,9.776,4.271,0
138,35.233,-97.442,0,0,3,339,-0.568,9.748,4.198,0
139,35.233,-97.442,0,0,3,339,-0.576,9.756,4.227,0
140,35.233,-97.442,0,0,3,339,-0.509,9.595,4.184,0
141,35.233,-97.442,0,0,3,339,-0.517,9.646,4.164,0
142,35.233,-97.442,0,0,3,339,-0.512,9.629,4.161,0
143,35.233,-97.442,0,0,3,339,-0.532,9.659,4.24,0
144,35.233,-97.442,0,0,3,339,-0.545,9.683,4.211,0
146,35.233,-97.442,0,0,3,339,-0.557,9.748,4.245,0
147,35.233,-97.442,0,0,3,339,-0.57,9.76,4.294,0
148,35.233,-97.442,0,0,3,339,-0.573,9.783,4.277,0
149,35.233,-97.442,0,0,3,339,-0.579,9.784,4.27,0
150,35.233,-97.442,0,0,3,339,-0.587,9.795,4.287,0
151,35.233,-97.442,0,0,3,339,-0.571,9.793,4.273,0
152,35.233,-97.442,0,0,3,339,-0.583,9.8,4.245,0
153,35.233,-97.442,0,0,3,339,-0.581,9.775,4.288,0
154,35.233,-97.442,0,0,3,339,-0.559,9.751,4.232,0
155,35.233,-97.442,0,0,3,339,-0.549,9.727,4.191,0
156,35.233,-97.442,0,0,3,339,-0.59,9.794,4.275,0
157,35.233,-97.442,0,0,3,339,-0.541,9.705,4.184,0
158,35.233,-97.442,0,0,3,339,-0.538,9.697,4.159,0
159,35.233,-97.442,0,0,3,339,-0.552,9.693,4.19,0
160,35.233,-97.442,0,0,3,339,-0.522,9.612,4.156,0
161,35.233,-97.442,0,0,3,339,-0.539,9.68,4.219,0
162,35.233,-97.442,0,0,3,339,-0.585,9.797,4.279,0
163,35.233,-97.442,0,0,3,339,-0.543,9.685,4.18,0
164,35.233,-97.442,0,0,3,339,-0.523,9.62,4.201,0
165,35.233,-97.442,0,0,3,339,-0.603,9.821,4.295,0
166,35.233,-97.442,0,0,3,339,-0.518,9.638,4.147,0
167,35.233,-97.442,0,0,3,339,-0.559,9.721,4.254,0
168,35.233,-97.442,0,0,3,339,-0.512,9.644,4.131,0
169,35.233,-97.442,0,0,3,339,-0.6,9.853,4.27,0
170,35.233,-97.442,0,0,3,339,-0.485,9.578,4.149,0
171,35.233,-97.442,0,0,3,339,-0.588,9.833,4.254,0
172,35.233,-97.442,0,0,3,339,-0.563,9.71,4.26,0
173,35.233,-97.442,0,0,3,339,-0.528,9.672,4.155,0
174,35.233,-97.442,0,0,3,339,-0.601,9.844,4.278,0
175,35.233,-97.442,0,0,3,339,-0.553,9.689,4.263,0
176,35.233,-97.442,0,0,3,339,-0.497,9.597,4.135,0
177,35.233,-97.442,0,0,3,339,-0.617,9.847,4.27,0
178,35.233,-97.442,0,0,3,339,-0.59,9.777,4.287,0
179,35.233,-97.442,0,0,3,339,-0.496,9.593,4.155,0
180,35.233,-97.442,0,0,3,339,-0.538,9.656,4.227,0
181,35.233,-97.442,0,0,3,339,-0.561,9.769,4.268,0
182,35.233,-97.442,0,0,3,339,-0.581,9.794,4.276,0
183,35.233,-97.442,0,0,3,339,-0.581,9.793,4.301,0
184,35.233,-97.442,0,0,3,339,-0.581,9.802,4.27,0
185,35.233,-97.442,0,0,3,339,-0.558,9.754,4.189,0
186,35.233,-97.442,0,0,3,339,-0.532,9.66,4.165,0
187,35.233,-97.442,0,0,3,339,-0.564,9.745,4.195,0
188,35.233,-97.442,0,0,3,339,-0.573,9.787,4.223,0
189,35.233,-97.442,0,0,3,339,-0.555,9.734,4.219,0
190,35.233,-97.442,0,0,3,339,-0.571,9.782,4.221,0
191,35.233,-97.442,0,0,3,339,-0.585,9.798,4.291,0
192,35.233,-97.442,0,0,3,339,-0.577,9.782,4.286,0
193,35.233,-97.442,0,0,3,339,-0.561,9.745,4.264,0
194,35.233,-97.442,0,0,3,339,-0.559,9.775,4.073,0
195,35.233,-97.442,0,0,3,339,-0.53,9.87,3.917,0
196,35.233,-97.442,0,0,3,339,-0.419,10.369,2.922,0
197,35.233,-97.441,92.5,2.2504,3,339,-0.373,10.358,2.696,0
198,35.233,-97.441,91.2,3.9003,3,339,-0.344,10.437,2.866,0
199,35.233,-97.441,91.9,5.36,3,339,-0.203,10.578,3.24,0
200,35.233,-97.441,91.1,6.8501,3,338,-0.203,10.492,2.786,0
201,35.233,-97.441,90.9,8.5701,3,339,-0.318,10.478,2.564,0
202,35.233,-97.441,89.8,10.43,3,339,-0.465,10.538,2.359,0
203,35.233,-97.441,89.3,12.31,3,339,-0.204,10.751,3.053,0
204,35.233,-97.441,90.9,13.81,3,339,0.088,10.447,3.231,0
205,35.233,-97.441,92.9,14.78,3,339,-0.42,10.242,3.425,0
206,35.233,-97.44,93.4,15.57,3,339,-1.207,10.161,3.683,0
207,35.233,-97.44,92.4,16.33,3,340,-1.038,10.036,3.909,0
208,35.233,-97.44,91.1,16.73,3,341,-0.666,9.655,3.932,0
210,35.233,-97.44,90.3,16.96,3,341,-0.521,9.655,3.606,0
211,35.233,-97.44,90.1,17.52,3,340,-0.679,9.918,3.658,0
212,35.233,-97.439,90.3,17.89,3,339,-0.255,9.861,4.184,0
213,35.233,-97.439,89.8,18.221,3,339,-0.471,9.666,4.169,0
214,35.233,-97.439,90.7,18.37,3,338,-0.582,9.901,4.474,0
215,35.233,-97.439,90.2,18.4,3,339,-0.554,9.552,3.747,0
216,35.233,-97.439,89.9,18.49,3,339,-0.458,9.452,4.243,0
217,35.233,-97.438,89.9,18.41,3,339,-0.634,9.749,4.502,0
218,35.233,-97.438,89.9,18.38,3,339,-0.525,9.339,4.448,0
219,35.233,-97.438,90,18.26,3,339,-0.471,9.345,4.282,0
220,35.233,-97.438,90,18,3,338,-0.301,9.311,4.14,0
221,35.233,-97.438,90.2,17.83,3,339,-0.607,9.747,4.295,0
222,35.233,-97.437,90.2,17.82,3,339,-0.661,9.2,3.864,0
223,35.233,-97.437,90.1,17.84,3,339,-0.593,9.889,4.102,0
224,35.233,-97.437,90,18,3,339,-0.462,9.854,3.954,0
225,35.233,-97.437,90.1,18.27,3,339,-0.547,10.032,4.078,0
226,35.233,-97.437,90.2,18.52,3,339,-0.454,9.867,3.96,0
227,35.233,-97.436,90.4,18.86,3,339,-0.559,10.032,3.824,0
228,35.233,-97.436,90.2,19.36,3,339,-0.689,9.863,3.721,0
229,35.233,-97.436,90,19.79,3,340,-0.456,9.782,3.894,0
230,35.233,-97.436,89.7,20.02,3,340,-0.389,9.796,4.102,0
231,35.233,-97.436,89.7,20.13,3,340,-0.568,9.701,3.959,0
232,35.233,-97.435,90,20.29,3,340,-0.889,9.857,4.163,0
233,35.233,-97.435,90.3,20.18,3,341,-0.755,9.672,4.359,0
234,35.233,-97.435,90.1,19.971,3,341,-0.377,9.367,4.456,0
235,35.233,-97.435,89.9,19.76,3,341,-0.614,9.484,4.215,0
236,35.233,-97.435,89.9,19.56,3,341,-0.57,9.289,3.751,0
237,35.233,-97.434,90,19.521,3,341,-0.214,9.529,4.381,0
238,35.233,-97.434,90.2,19.571,3,341,-0.684,9.802,4.227,0
239,35.233,-97.434,90.6,19.68,3,340,-0.66,9.628,4.356,0
240,35.233,-97.434,90.4,19.831,3,340,-0.646,9.551,4.416,0
241,35.233,-97.433,90.1,19.811,3,339,-0.813,9.776,4.387,0
242,35.233,-97.433,90.2,19.7,3,339,-0.661,9.575,4.43,0
243,35.233,-97.433,90.5,19.68,3,339,-0.86,9.727,4.212,0
244,35.233,-97.433,90.1,19.61,3,338,-0.772,9.744,3.997,0
245,35.233,-97.432,89.9,19.97,3,338,-0.46,9.609,4.286,0
246,35.233,-97.432,89.6,19.99,3,338,-0.299,9.517,4.204,0
247,35.233,-97.432,90.3,19.88,3,338,-0.682,9.775,4.295,0
248,35.233,-97.432,90.2,19.97,3,338,-0.8,9.769,4.049,0
249,35.233,-97.431,90,20.14,3,338,-0.56,9.741,3.991,0
250,35.233,-97.431,90,20.16,3,338,-0.781,9.708,4.176,0
251,35.233,-97.431,90,20.09,3,338,-0.532,9.655,4.134,0
252,35.233,-97.431,90.1,20.07,3,338,-0.837,9.629,4.061,0
253,35.233,-97.431,89.9,20.1,3,338,-0.861,9.734,4.327,0
254,35.233,-97.43,89.7,19.96,3,338,-0.81,9.752,4.061,0
255,35.233,-97.43,89.4,19.99,3,337,-0.818,9.849,4.031,0
256,35.233,-97.43,89.1,20.1,3,337,-0.725,9.798,4.072,0
257,35.233,-97.43,89,20.22,3,337,-0.769,9.714,4.077,0
258,35.233,-97.429,89.1,20.34,3,337,-0.469,9.713,4.058,0
259,35.233,-97.429,89.4,20.44,3,336,-0.753,9.673,4.031,0
260,35.233,-97.429,89.2,20.44,3,336,-0.649,9.586,4.184,0
261,35.233,-97.429,88.8,20.36,3,336,-0.686,9.742,4.316,0
262,35.233,-97.429,88.4,20.32,3,336,-0.59,9.746,4.32,0
263,35.233,-97.428,89,20.16,3,336,-0.397,9.647,4.517,0
264,35.233,-97.428,89.7,19.76,3,336,-0.39,9.465,4.737,0
265,35.233,-97.428,89.8,19.35,3,337,-0.597,9.556,4.754,0
266,35.233,-97.428,89.6,18.94,3,337,-0.678,9.526,4.099,0
267,35.233,-97.428,89.5,18.77,3,337,-0.628,9.633,4.004,0
268,35.233,-97.427,89.5,18.74,3,337,-0.564,9.806,4.16,0
269,35.233,-97.427,89.6,18.8,3,338,-0.548,9.744,4,0
270,35.233,-97.427,90,18.86,3,338,-0.473,9.797,4.064,0
271,35.233,-97.427,90.9,18.91,3,338,-0.473,9.778,4.288,0
273,35.233,-97.426,91.4,18.85,3,338,-0.715,9.88,4.258,0
274,35.233,-97.426,91.7,18.86,3,338,-0.341,9.367,4.047,0
275,35.233,-97.426,91.9,18.93,3,338,-0.542,9.572,4.174,0
276,35.233,-97.426,91.7,19.05,3,338,-0.847,9.896,4.116,0
277,35.233,-97.426,91.4,19.2,3,338,-0.749,9.467,3.993,0
278,35.233,-97.425,91.5,19.3,3,338,-0.334,10.03,4.379,0
279,35.233,-97.425,91.3,19.36,3,338,-0.341,9.05,4.018,0
280,35.233,-97.425,90.8,19.13,3,339,-0.685,9.691,4.645,0
281,35.233,-97.425,90.4,18.79,3,339,-0.756,9.278,4.475,0
282,35.233,-97.425,89.8,18.38,3,339,-0.657,9.309,4.287,0
283,35.233,-97.424,89.9,17.971,3,339,-0.713,9.146,5.091,0
284,35.233,-97.424,90,17.19,3,339,-0.986,8.923,6.124,0
285,35.233,-97.424,89.7,15.341,3,340,-0.793,8.135,6.526,0
286,35.233,-97.424,89.7,12.58,3,340,-0.564,8.229,6.834,0
287,35.233,-97.424,89.9,9.4804,3,340,0.345,9.123,5.534,0
288,35.233,-97.424,92.7,7.3622,3,340,2.446,9.171,4.513,0
289,35.233,-97.424,112.3,6.65,3,340,3.384,10.043,3.407,0
290,35.233,-97.424,141.8,6.8905,3,340,1.647,10.172,3.07,0
291,35.233,-97.424,165.9,8.4905,3,340,1.244,10.324,3.224,0
292,35.233,-97.424,175.3,10.131,3,339,-0.326,10.327,2.794,0
293,35.232,-97.424,178.8,11.771,3,339,-0.117,9.911,2.867,0
294,35.232,-97.424,180.1,13.22,3,339,-0.611,10.088,2.733,0
295,35.232,-97.424,180.5,14.621,3,339,-0.853,10.106,2.953,0
296,35.232,-97.424,179.7,15.911,3,338,-0.399,10.243,3.319,0
297,35.232,-97.424,179.4,17.09,3,338,0.362,10.128,3.459,0
298,35.232,-97.424,180.4,18.15,3,338,-0.158,10.147,3.567,0
299,35.232,-97.424,181.7,19.13,3,338,-0.896,10.228,3.86,0
300,35.231,-97.424,181.2,19.91,3,338,-1.059,9.392,3.894,0
301,35.231,-97.424,180.7,19.89,3,338,-1.086,9.666,4.274,0
302,35.231,-97.424,179.9,19.71,3,338,-1.12,9.547,4.057,0
303,35.231,-97.424,178.5,19.68,3,338,-0.816,9.667,4.121,0
304,35.231,-97.424,177.7,19.77,3,338,-0.574,9.665,4.104,0
305,35.23,-97.424,177.4,19.91,3,338,-0.858,9.726,4.083,0
306,35.23,-97.424,177.5,20.04,3,338,-0.497,9.748,4.136,0
307,35.23,-97.424,177.9,20.36,3,338,-0.44,9.49,4.209,0
308,35.23,-97.424,178.5,20.37,3,337,-0.461,9.663,4.311,0
309,35.23,-97.424,179.3,20.39,3,337,-0.549,9.654,4.203,0
310,35.229,-97.424,180.2,20.47,3,337,-0.479,9.718,4.128,0
311,35.229,-97.424,180.3,20.58,3,337,-0.472,9.72,4.345,0
312,35.229,-97.424,180.5,20.64,3,337,-0.311,9.668,4.162,0
313,35.229,-97.424,181.1,20.78,3,337,-0.369,9.823,4.292,0
314,35.229,-97.424,181.4,20.85,3,337,-0.597,9.577,4.488,0
315,35.228,-97.424,181,20.641,3,336,-0.592,9.349,4.322,0
316,35.228,-97.424,181.3,20.43,3,336,-0.717,9.645,4.357,0
317,35.228,-97.424,180.8,20.43,3,336,-0.497,9.758,4.175,0
318,35.228,-97.424,180.7,20.601,3,335,-0.421,9.78,4.193,0
319,35.228,-97.424,180.7,20.77,3,336,-0.588,9.6,4.282,0
320,35.228,-97.424,180.5,20.61,3,336,-0.326,9.621,4.536,0
321,35.227,-97.424,180.3,20.34,3,336,-0.543,9.511,4.453,0
322,35.227,-97.424,180.3,20.06,3,335,-0.412,9.494,4.633,0
323,35.227,-97.424,180.5,19.8,3,336,-0.661,9.516,4.488,0
324,35.227,-97.424,180.5,19.52,3,335,-0.754,9.623,4.524,0
325,35.227,-97.424,180.7,19.28,3,336,-0.524,9.409,4.372,0
326,35.226,-97.424,180.7,19.04,3,335,-0.628,9.693,4.125,0
327,35.226,-97.424,180.6,19.141,3,335,-0.534,9.565,4.36,0
328,35.226,-97.424,180.1,19.07,3,334,-0.434,9.556,4.558,0
329,35.226,-97.424,179.9,18.86,3,334,-0.388,9.744,4.405,0
330,35.226,-97.424,180.2,18.86,3,333,-0.421,9.647,4.457,0
331,35.226,-97.424,180.2,18.83,3,333,-0.404,9.472,4.198,0
332,35.225,-97.424,180.1,18.84,3,334,-0.572,9.715,4.168,0
333,35.225,-97.424,180.3,18.99,3,334,-0.335,9.756,4.303,0
335,35.225,-97.424,180.7,19.14,3,333,-0.463,9.695,4.342,0
336,35.225,-97.424,180.4,19.29,3,333,-0.533,9.709,4.268,0
337,35.225,-97.424,180.3,19.43,3,333,-0.271,9.501,4.207,0
338,35.225,-97.424,180.3,19.55,3,333,-0.147,9.504,4.146,0
339,35.224,-97.424,180.4,19.68,3,333,-0.443,9.674,4.209,0
340,35.224,-97.424,180.5,19.79,3,332,0.049,9.588,4.403,0
341,35.224,-97.424,180.5,19.89,3,332,-0.454,9.619,4.599,0
342,35.224,-97.424,180.6,19.731,3,332,-0.602,9.477,4.238,0
343,35.224,-97.424,180.6,19.54,3,332,-0.496,9.563,4.513,0
344,35.224,-97.424,180.8,19.38,3,333,-0.636,9.454,4.572,0
345,35.223,-97.424,180.2,19.1,3,333,-0.973,9.602,4.531,0
346,35.223,-97.424,179.7,18.87,3,332,-0.876,9.756,4.542,0
347,35.223,-97.424,179.2,18.681,3,332,-0.678,9.591,4.475,0
348,35.223,-97.424,179.3,18.49,3,332,-0.289,9.444,4.544,0
349,35.223,-97.424,179.7,18.27,3,331,-0.27,9.575,4.475,0
350,35.223,-97.424,180.2,18.08,3,332,-0.612,9.459,4.386,0
351,35.222,-97.424,180.4,17.88,3,332,-0.753,9.584,4.476,0
352,35.222,-97.424,180.2,17.69,3,331,-0.612,9.882,4.836,0
353,35.222,-97.424,180.1,17.46,3,331,-0.696,9.422,4.938,0
354,35.222,-97.424,180.2,16.98,3,331,-0.623,9.06,5.19,0
355,35.222,-97.424,180.5,15.97,3,331,-0.516,9.098,5.464,0
356,35.222,-97.424,180.8,14.81,3,330,-0.482,8.395,5.197,0
357,35.221,-97.424,181.2,13.63,3,330,-0.465,9.141,5.679,0
358,35.221,-97.424,181.5,12.44,3,330,-0.293,9.117,5.65,0
359,35.221,-97.424,182.4,11.08,3,329,-0.434,8.905,5.364,0
360,35.221,-97.424,182.9,9.9702,3,329,-0.746,9.184,5.471,0
361,35.221,-97.424,182.8,8.94,3,329,-0.659,9.366,5.227,0
362,35.221,-97.424,182.1,7.8001,3,329,-0.593,9.232,5.238,0
363,35.221,-97.424,181.7,7.03,3,329,-0.437,9.002,5.526,0
364,35.221,-97.424,181.3,5.99,3,329,-0.399,8.979,5.364,0
365,35.221,-97.424,180.4,3.92,3,328,-0.626,9.004,5.228,0
366,35.221,-97.424,180,2.91,3,328,-0.573,9.198,5.147,0
367,35.221,-97.424,180,2.1201,3,328,-0.594,9.256,5.013,0
368,35.221,-97.424,180,1.4801,3,328,-0.536,9.424,4.795,0
369,35.221,-97.424,179.1,1.12,3,328,-0.54,9.509,4.614,0
370,35.221,-97.424,179.1,1.12,3,328,-0.541,9.504,4.483,0
371,35.221,-97.424,179.1,0.76007,3,328,-0.48,9.65,4.289,0
372,35.221,-97.424,179.1,0.76007,3,328,-0.461,9.778,3.997,0
373,35.221,-97.424,179.2,1.42,3,328,-0.446,10.134,3.326,0
374,35.221,-97.424,179.4,2.99,3,328,-0.372,10.483,2.544,0
375,35.221,-97.424,179.7,4.9103,3,327,-0.409,10.582,2.648,0
376,35.221,-97.424,179.9,6.4301,3,327,-0.557,9.799,3.637,0
377,35.221,-97.424,179.4,7.0301,3,327,-0.436,10.078,3.451,0
378,35.22,-97.424,180,8.04,3,327,-0.374,10.209,3.425,0
379,35.22,-97.424,180.5,9.0903,3,327,-0.354,9.841,3.828,0
380,35.22,-97.424,180.6,9.61,3,327,-0.598,9.826,3.817,0
381,35.22,-97.424,180.9,9.9701,3,328,-0.524,9.418,3.93,0
382,35.22,-97.424,180.9,10.19,3,327,-0.465,9.009,3.468,0
383,35.22,-97.424,180.5,10.482,3,327,-0.722,9.537,4.013,0
384,35.22,-97.424,180.1,10.8,3,327,-0.717,9.318,3.989,0
385,35.22,-97.424,180.2,10.85,3,328,-0.545,9.592,4.646,0
386,35.22,-97.424,180.3,10.62,3,327,-0.44,9.703,5.192,0
387,35.22,-97.424,180.3,10.05,3,327,-0.506,9.386,5.478,0
388,35.22,-97.424,180.3,8.9303,3,328,-0.54,9.423,5.524,0
389,35.219,-97.424,180.5,8.0204,3,328,-0.653,9.166,5.35,0
390,35.219,-97.424,180.4,6.8402,3,329,-0.775,8.898,5.658,0
391,35.219,-97.424,180.4,5.4,3,329,-0.337,9.448,5.114,0
392,35.219,-97.424,180.6,4.55,3,329,-0.667,8.834,5.797,0
393,35.219,-97.424,180.9,2.9202,3,329,-0.644,9.129,5.181,0
394,35.219,-97.424,180.8,1.8513,3,329,-0.558,9.312,4.94,0
396,35.219,-97.424,180.8,1.8513,3,329,-0.532,9.48,4.616,0
397,35.219,-97.424,179.5,0.91005,3,329,-0.497,9.554,4.52,0
398,35.219,-97.424,179.5,0.91005,3,329,-0.529,9.378,4.8,0
399,35.219,-97.424,179.5,0.91005,3,329,-0.496,9.624,4.462,0
400,35.219,-97.424,179.5,0.91005,3,329,-0.487,9.648,4.391,0
401,35.219,-97.424,179.5,0.91005,3,329,-0.471,9.612,4.313,0
402,35.219,-97.424,179.5,0.91005,3,329,-0.497,9.68,4.359,0
403,35.219,-97.424,179.5,0.91005,3,329,-0.456,9.598,4.286,0
404,35.219,-97.424,179.5,0.91005,3,329,-0.46,9.595,4.31,0
405,35.219,-97.424,179.5,0.91005,3,329,-0.499,9.68,4.351,0
406,35.219,-97.424,179.5,0.91005,3,329,-0.496,9.689,4.395,0
407,35.219,-97.424,179.5,0.91005,3,329,-0.436,9.558,4.318,0
408,35.219,-97.424,179.5,0.91005,3,329,-0.518,9.682,4.272,0
409,35.219,-97.424,179.5,0.91005,3,329,-0.525,9.715,4.27,0
410,35.219,-97.424,179.5,0.91005,3,329,-0.535,9.744,4.281,0
411,35.219,-97.424,179.5,0.91005,3,329,-0.517,9.714,4.393,0
412,35.219,-97.424,179.5,0.91005,3,329,-0.469,9.629,4.279,0
413,35.219,-97.424,179.5,0.91005,3,329,-0.455,9.598,4.342,0
414,35.219,-97.424,179.5,0.91005,3,329,-0.521,9.71,4.343,0
415,35.219,-97.424,179.5,0.91005,3,329,-0.457,9.569,4.29,0
416,35.219,-97.424,179.5,0.91005,3,329,-0.465,9.597,4.375,0
417,35.219,-97.424,179.5,0.91005,3,329,-0.521,9.704,4.351,0
418,35.219,-97.424,179.5,0.91005,3,329,-0.432,9.574,4.296,0
419,35.219,-97.424,179.5,0.91005,3,329,-0.458,9.614,4.335,0
420,35.219,-97.424,179.5,0.91005,3,329,-0.496,9.701,4.353,0
421,35.219,-97.424,179.5,0.91005,3,329,-0.482,9.635,4.277,0
422,35.219,-97.424,179.5,0.91005,3,329,-0.473,9.627,4.371,0
423,35.219,-97.424,179.5,0.91005,3,329,-0.496,9.67,4.375,0
424,35.219,-97.424,179.5,0.91005,3,329,-0.44,9.708,4.086,0
425,35.219,-97.424,179.5,0.91005,3,329,-0.477,9.844,3.954,0
426,35.219,-97.424,179.5,0.91005,3,329,-0.478,9.832,3.931,0
427,35.219,-97.424,179.9,0.83006,3,330,-0.44,9.753,3.877,0
428,35.219,-97.424,179.8,1.24,3,330,-0.481,9.576,4.418,0
429,35.219,-97.424,180.7,1.4001,3,331,-0.465,9.483,4.602,0
430,35.219,-97.424,180.7,1.04,3,331,-0.549,9.482,4.626,0
431,35.219,-97.424,180.7,0.29,3,331,-0.531,9.486,4.565,0
432,35.219,-97.424,180.7,0.29,3,331,-0.505,9.661,4.393,0
433,35.219,-97.424,180.7,0.29,3,331,-0.5,9.691,4.325,0
434,35.219,-97.424,180.7,0.29,3,331,-0.466,9.61,4.296,0
435,35.219,-97.424,180.7,0.29,3,331,-0.452,9.608,4.266,0
436,35.219,-97.424,180.7,0.29,3,331,-0.502,9.696,4.306,0
437,35.219,-97.424,180.7,0.29,3,331,-0.491,9.69,4.334,0
438,35.219,-97.424,180.7,0.29,3,331,-0.502,9.693,4.359,0
439,35.219,-97.424,180.7,0.29,3,331,-0.467,9.636,4.303,0
440,35.219,-97.424,180.7,0.29,3,331,-0.466,9.633,4.331,0
441,35.219,-97.424,180.7,0.29,3,331,-0.467,9.643,4.327,0
442,35.219,-97.424,180.7,0.29,3,331,-0.458,9.603,4.256,0
443,35.219,-97.424,180.7,0.29,3,331,-0.456,9.593,4.296,0
444,35.219,-97.424,180.7,0.29,3,331,-0.477,9.623,4.245,0
445,35.219,-97.424,180.7,0.29,3,331,-0.455,9.601,4.28,0
446,35.219,-97.424,180.7,0.29,3,331,-0.371,10.348,2.986,0
447,35.219,-97.424,180.7,0.29,3,331,-0.335,10.655,2.246,0
448,35.219,-97.424,180.1,3.76,3,333,-0.443,10.643,2.208,0
449,35.219,-97.424,180.6,5.84,3,333,-0.234,10.191,2.357,0
450,35.219,-97.424,180.4,7.75,3,333,0.07,10.027,3.232,0
451,35.219,-97.424,180.3,9.01,3,333,-0.033,10.091,3.684,0
452,35.219,-97.424,180.3,9.94,3,334,-0.265,9.777,3.605,0
453,35.219,-97.424,181.2,10.46,3,334,-0.471,9.9,3.728,0
455,35.219,-97.424,179.8,10.932,3,333,-0.525,10.067,3.958,0
456,35.219,-97.424,180,11.5,3,332,-0.574,9.948,3.987,0
457,35.218,-97.424,179.6,11.98,3,332,-0.561,9.994,4.04,0
458,35.218,-97.424,179.9,12.46,3,332,-0.168,9.628,3.707,0
459,35.218,-97.424,180,13.001,3,331,-0.462,9.511,3.83,0
460,35.218,-97.424,180.2,13.231,3,331,-0.629,9.461,3.937,0
461,35.218,-97.424,179.7,13.56,3,331,-0.209,9.963,4.078,0
462,35.218,-97.424,179.7,14.051,3,330,-0.461,10.579,4.2,0
463,35.218,-97.424,179.8,14.521,3,330,-0.58,9.92,4.192,0
464,35.218,-97.424,180,14.901,3,329,-0.24,9.304,4.065,0
465,35.217,-97.424,180,15.191,3,329,-0.754,9.956,4.147,0
466,35.217,-97.424,180,15.671,3,329,-1.031,10.212,4.466,0
467,35.217,-97.424,179.9,16.091,3,328,-0.506,10.412,5.01,0
468,35.217,-97.424,180.4,16.34,3,328,-0.248,9.739,4.176,0
469,35.217,-97.424,180.8,16.631,3,328,-0.536,10.504,4.808,0
470,35.217,-97.424,180.4,17.03,3,328,-0.327,9.586,3.777,0
471,35.217,-97.424,180.1,17.43,3,327,-0.524,9.904,4.154,0
472,35.216,-97.424,179.9,17.85,3,327,-0.536,9.966,4.082,0
473,35.216,-97.424,179.8,18.17,3,327,-0.649,9.719,4.291,0
474,35.216,-97.424,179.9,18.09,3,327,-0.536,9.836,4.223,0
475,35.216,-97.424,179.9,18.27,3,327,-0.4,9.689,4.458,0
476,35.216,-97.424,180,18.17,3,328,-0.35,9.941,3.912,0
477,35.216,-97.424,180.8,18.41,3,328,-0.625,10.165,3.508,0
478,35.215,-97.424,181.2,19.03,3,328,-1.208,9.833,3.569,0
479,35.215,-97.424,180.3,19.64,3,328,-0.85,9.627,4.268,0
480,35.215,-97.424,178.8,19.63,3,328,-0.497,9.373,4.237,0
481,35.215,-97.424,179,19.42,3,328,-0.662,8.957,5.366,0
482,35.215,-97.424,179.6,18.99,3,328,-0.611,9.041,5.897,0
483,35.215,-97.424,179.8,17.38,3,328,-0.635,9.032,5.957,0
484,35.214,-97.424,180,15.71,3,328,-0.594,9.503,4.785,0
485,35.214,-97.424,180.1,14.98,3,327,-0.43,9.495,4.578,0
486,35.214,-97.424,180.1,14.8,3,327,-0.747,9.633,4.234,0
487,35.214,-97.424,180,14.65,3,327,-0.499,9.802,4.288,0
488,35.214,-97.424,180,14.7,3,327,-0.622,9.941,3.917,0
489,35.214,-97.424,180.1,14.97,3,327,-0.551,9.816,3.924,0
490,35.214,-97.424,180.2,15.16,3,328,-0.491,9.621,3.524,0
491,35.213,-97.424,180.3,15.47,3,328,-0.561,9.842,4.01,0
492,35.213,-97.424,180.2,16.03,3,329,-0.759,9.556,4.316,0
493,35.213,-97.424,179.9,15.7,3,329,-0.784,9.548,4.555,0
494,35.213,-97.424,179.7,15.32,3,329,-0.842,9.607,4.33,0
495,35.213,-97.424,179.7,14.78,3,329,-0.45,9.088,5.176,0
496,35.213,-97.424,179.8,13.26,3,329,-0.645,8.892,5.646,0
497,35.213,-97.424,180.1,11.37,3,329,-0.628,8.884,5.764,0
498,35.212,-97.424,180.2,9.9,3,329,-0.882,9.166,5.237,0
499,35.212,-97.424,179.7,8.9903,3,330,-0.521,9.369,4.673,0
500,35.212,-97.424,180,8.5401,3,330,-0.634,9.605,4.642,0
501,35.212,-97.424,179.9,8.25,3,330,-0.307,9.774,3.892,0
502,35.212,-97.424,179.9,8.64,3,330,-0.348,9.998,3.747,0
503,35.212,-97.424,179.9,9.27,3,331,-0.411,9.923,3.507,0
504,35.212,-97.424,179.8,9.8301,3,331,-0.372,9.937,3.668,0
505,35.212,-97.424,179.2,10.41,3,331,-0.39,9.857,3.714,0
506,35.212,-97.424,179.9,10.93,3,331,-0.457,9.769,3.569,0
507,35.212,-97.424,180,11.44,3,331,-0.367,9.701,3.449,0
508,35.212,-97.424,180,12.02,3,330,-0.335,9.985,3.718,0
509,35.211,-97.424,180.1,12.59,3,331,-0.43,10.114,3.721,0
510,35.211,-97.424,180.3,13.19,3,330,-0.711,10.077,3.673,0
511,35.211,-97.424,180.3,13.67,3,330,-0.491,9.878,4.297,0
512,35.211,-97.424,180.1,13.72,3,330,-0.382,9.872,4.021,0
513,35.211,-97.424,181.4,14.015,3,331,-0.245,9.84,4.087,0
514,35.211,-97.424,181.4,14.13,3,331,-0.251,9.862,3.942,0
515,35.211,-97.424,182.2,14.45,3,331,-0.273,9.53,4.274,0
516,35.211,-97.424,182.7,14.42,3,331,-0.639,9.503,4.464,0
517,35.21,-97.424,181.7,14.141,3,330,-0.754,9.685,4.403,0
519,35.21,-97.424,180.4,14.16,3,330,-0.538,9.761,4.144,0
520,35.21,-97.424,179.5,14.43,3,330,-0.397,9.642,3.775,0
521,35.21,-97.424,179.4,14.96,3,330,-0.471,9.802,3.906,0
522,35.21,-97.424,179.6,15.32,3,330,-0.446,10.069,4.039,0
523,35.21,-97.424,180.3,15.82,3,330,-0.555,9.905,4.056,0
524,35.21,-97.424,180.4,16.1,3,330,-0.838,9.761,4.153,0
525,35.209,-97.424,180.1,16.21,3,330,-0.534,9.557,4.173,0
526,35.209,-97.424,179.7,16.26,3,329,-0.595,9.857,4.308,0
527,35.209,-97.424,179.6,16.46,3,329,-0.805,9.853,4.369,0
528,35.209,-97.424,179.5,16.44,3,329,-0.717,9.705,3.905,0
529,35.209,-97.424,179.7,16.62,3,328,-0.678,10.197,2.793,0
530,35.209,-97.424,178.6,17.811,3,328,-0.669,10.372,2.776,0
531,35.209,-97.424,177.6,19.52,3,327,-0.152,10.492,2.71,0
532,35.208,-97.424,177.1,21.28,3,326,0.045,10.147,3.436,0
533,35.208,-97.424,178.3,22.72,3,326,0.076,9.837,4.175,0
534,35.208,-97.424,179.5,23.251,3,325,-0.253,9.829,4.542,0
535,35.208,-97.424,179.8,23.271,3,325,-0.501,9.632,4.81,0
536,35.208,-97.424,180,23.101,3,325,-0.27,9.307,4.476,0
537,35.207,-97.424,179.9,22.84,3,325,-0.14,9.509,4.665,0
538,35.207,-97.424,180,22.58,3,324,-0.5,8.941,5.405,0
539,35.207,-97.424,180,21.64,3,325,-0.68,8.985,5.256,0
540,35.207,-97.424,179.8,20.28,3,325,-0.472,9.271,4.592,0
541,35.207,-97.424,179.6,19.78,3,324,-0.599,9.483,4.42,0
542,35.206,-97.424,179.7,19.55,3,324,-0.797,9.613,4.593,0
543,35.206,-97.424,179.7,19.34,3,323,-0.986,10.742,5.541,0
544,35.206,-97.424,179.7,19.16,3,324,-0.268,10.408,5.892,0
545,35.206,-97.424,180.2,18.87,3,324,-0.665,9.124,4.888,0
546,35.206,-97.424,180.1,18.29,3,324,-0.727,8.343,3.804,0
547,35.206,-97.424,179.7,17.61,3,324,-0.854,9.039,4.356,0
548,35.205,-97.424,178.1,17.29,3,324,-0.295,9.237,4.345,0
549,35.205,-97.424,177.4,17.06,3,323,-0.205,9.536,4.276,0
550,35.205,-97.424,177.8,16.83,3,323,-0.125,9.986,4.754,0
551,35.205,-97.424,178.4,16.56,3,322,0.374,9.288,5.573,0
552,35.205,-97.424,179.7,14.75,3,322,0.106,8.354,5.494,0
553,35.205,-97.424,180.2,12.75,3,323,0.071,8.804,6.714,0
554,35.204,-97.424,180.1,10.28,3,323,0.085,8.537,6.516,0
555,35.204,-97.424,180,7.92,3,323,-0.305,8.605,6.442,0
556,35.204,-97.424,179.4,5.82,3,324,-0.463,8.865,6.135,0
557,35.204,-97.424,179.3,3.92,3,324,-0.071,8.709,6.109,0
558,35.204,-97.424,179.3,2.17,3,324,-0.105,9.025,5.356,0
559,35.204,-97.424,179.3,2.17,3,324,-0.139,8.994,5.51,0
560,35.204,-97.424,0,0,3,325,-0.082,9.496,4.531,0
561,35.204,-97.424,0,0,3,325,-0.053,9.602,4.312,0
562,35.204,-97.424,0,0,3,325,-0.047,9.646,4.372,0
563,35.204,-97.424,0,0,3,325,-0.028,9.618,4.324,0
564,35.204,-97.424,0,0,3,325,-0.034,9.605,4.277,0
565,35.204,-97.424,0,0,3,325,-0.046,9.668,4.366,0
566,35.204,-97.424,0,0,3,325,-0.056,9.649,4.379,0
567,35.204,-97.424,0,0,3,325,-0.057,9.681,4.372,0
568,35.204,-97.424,0,0,3,325,-0.076,9.674,4.257,0
569,35.204,-97.424,0,0,3,325,-0.093,9.653,4.281,0
570,35.204,-97.424,0,0,3,325,0.026,9.626,4.325,0
571,35.204,-97.424,0,0,3,325,-0.048,9.689,4.262,0
572,35.204,-97.424,0,0,3,325,0.001,9.672,4.235,0
573,35.204,-97.424,178.2,0.36014,3,324,0.014,9.891,3.659,0
574,35.204,-97.424,178.2,1.18,3,324,-0.072,10.517,2.449,0
575,35.204,-97.424,179.4,3.21,3,324,-0.221,10.615,2.664,0
576,35.204,-97.424,179.4,4.98,3,324,-0.014,10.496,2.952,0
577,35.204,-97.424,181.1,6.3203,3,324,-0.036,10.258,4.004,0
579,35.204,-97.424,180.7,7.0701,3,325,-0.055,9.829,3.931,0
580,35.204,-97.424,178.9,7.42,3,325,-1.2,9.48,4.319,0
581,35.204,-97.424,170.1,7.32,3,324,-2.626,10.543,4.181,0
582,35.204,-97.424,153.3,7.61,3,324,-3.905,9.627,3.341,0
583,35.204,-97.423,130,7.9518,3,325,-4.539,9.924,3.114,0
584,35.204,-97.423,103.1,8.8102,3,325,-2.458,9.956,3.353,0
585,35.204,-97.423,92.6,9.76,3,325,-0.677,10.379,2.831,0
586,35.204,-97.423,89.3,11.071,3,325,-0.246,10.076,3.636,0
587,35.204,-97.423,88.9,12.29,3,325,-0.899,9.691,3.398,0
588,35.204,-97.423,87.6,12.78,3,325,-1.162,10.262,3.779,0
589,35.204,-97.423,86.1,13.271,3,326,-0.147,9.815,4.152,0
590,35.204,-97.423,86.6,13.49,3,326,0.366,9.78,4.159,0
591,35.204,-97.422,87.6,13.68,3,326,0.362,9.986,4.061,0
592,35.204,-97.422,88.7,14.06,3,326,-0.099,9.59,4.024,0
593,35.204,-97.422,89.4,14.39,3,326,-0.396,9.465,3.95,0
594,35.204,-97.422,90.1,14.7,3,326,-0.608,9.417,3.954,0
595,35.204,-97.422,90.1,14.59,3,326,-0.436,9.521,4.222,0
596,35.204,-97.422,89.9,14.58,3,326,-0.664,9.359,4.59,0
597,35.204,-97.421,89.7,14.26,3,326,-0.266,9.407,4.581,0
598,35.204,-97.421,89.8,13.89,3,326,-0.432,9.615,4.417,0
599,35.204,-97.421,90.5,13.55,3,326,-0.443,9.364,4.345,0
600,35.204,-97.421,90.2,13.21,3,326,-0.509,9.704,4.729,0
601,35.204,-97.421,89.7,12.85,3,326,-0.095,8.807,4.589,0
602,35.204,-97.421,88.5,12.45,3,325,-0.762,8.606,4.7,0
603,35.204,-97.421,86.9,11.63,3,326,-0.315,8.674,5.374,0
604,35.204,-97.421,86.1,10.31,3,327,0.537,8.44,5.724,0
605,35.204,-97.42,88.7,8.68,3,327,-0.013,8.597,5.942,0
606,35.204,-97.42,89.7,7.0001,3,327,-0.07,8.825,6.062,0
607,35.204,-97.42,89.4,5.1812,3,327,-0.847,9.073,5.958,0
608,35.204,-97.42,90.3,3.29,3,327,-0.499,9.082,5.533,0
609,35.204,-97.42,91.7,1.6701,3,327,-0.39,9.177,5.195,0
610,35.204,-97.42,91.7,1.6701,3,327,-0.327,9.613,4.418,0
