time,lat,lng,bearing,spd,acc,alt,accx,accy,accz,stable,
0,35.233,-97.455,0,0,13.653,322,-0.304,2.093,9.445,1
1,35.233,-97.455,0,0,13.653,322,-0.306,2.096,9.445,1
2,35.233,-97.455,0,0,13.653,322,-0.302,2.093,9.442,1
3,35.233,-97.455,0,0,13.653,322,-0.304,2.093,9.445,1
4,35.233,-97.455,0,0,13.653,322,-0.304,2.097,9.446,1
5,35.233,-97.455,0,0,13.653,322,-0.304,2.098,9.443,1
6,35.233,-97.455,0,0,13.653,322,-0.3,2.097,9.442,1
7,35.233,-97.455,0,0,13.653,322,-0.301,2.099,9.441,1
8,35.233,-97.455,0,0,13.653,322,-0.298,2.096,9.445,1
9,35.233,-97.455,0,0,13.653,322,-0.297,2.107,9.44,1
10,35.233,-97.455,0,0,13.653,322,-0.282,2.289,9.398,1
11,35.233,-97.455,0,0,13.653,322,-0.242,2.742,9.286,1
12,35.233,-97.455,90,0.7,15.17,321,-0.133,3.78,8.968,1
13,35.233,-97.455,91.1,1.98,15.17,321,-0.121,3.873,8.918,1
14,35.233,-97.455,91.3,3.95,15.17,322,-0.156,3.73,8.985,1
15,35.233,-97.455,91.5,5.59,15.17,322,-0.162,3.403,9.061,1
16,35.233,-97.455,92.1,6.91,15.17,321,-0.225,3.159,9.126,1
17,35.233,-97.455,91.9,8.17,15.17,321,-0.303,2.561,9.302,1
18,35.233,-97.455,91.8,8.74,13.653,322,-0.322,2.58,9.307,1
19,35.233,-97.455,90.8,8.99,13.653,323,-0.32,2.677,9.297,1
20,35.233,-97.455,91,9.45,13.653,324,-0.292,2.402,9.361,1
21,35.233,-97.455,90.9,9.8,13.653,326,-0.28,2.576,9.277,1
22,35.233,-97.455,91.3,10.38,13.653,326,-0.208,2.587,9.311,1
23,35.233,-97.454,91.7,10.75,13.653,326,-0.248,2.555,9.289,1
24,35.233,-97.454,93.1,11.45,13.653,324,-0.432,2.281,9.407,1
26,35.233,-97.454,91.7,11.8,13.653,336,-0.456,2.046,9.441,1
27,35.233,-97.454,91.4,11.98,13.653,333,-0.371,2.075,9.404,1
28,35.233,-97.454,91.9,11.87,13.653,331,-0.407,2.024,9.414,1
29,35.233,-97.454,91.7,11.98,13.653,329,-0.36,2.046,9.307,1
31,35.233,-97.454,90.4,12.49,13.653,328,-0.307,2.615,9.24,1
32,35.233,-97.453,89.4,13.14,13.653,326,-0.204,2.475,9.162,1
33,35.233,-97.453,88.8,13.8,13.653,326,-0.198,2.207,9.076,1
34,35.233,-97.453,89.2,14.48,13.653,327,-0.272,1.883,9.412,1
35,35.233,-97.453,88.4,14.8,13.653,327,-0.394,1.912,9.456,1
36,35.233,-97.453,88.7,14.95,15.17,334,-0.4,1.895,9.505,1
37,35.233,-97.453,88.8,15.46,15.17,332,-0.38,1.768,9.614,1
38,35.233,-97.452,89,15.99,15.17,331,-0.353,1.875,9.557,1
39,35.233,-97.452,87.3,17.1,15.17,330,-0.318,2.004,9.539,1
40,35.233,-97.452,89.6,16.98,15.17,330,-0.265,1.865,9.758,1
41,35.233,-97.452,90.1,16.96,15.17,329,-0.272,1.986,9.713,1
42,35.233,-97.451,90.8,17.05,13.653,328,-0.262,1.957,9.544,1
43,35.233,-97.451,90.8,16.77,15.17,327,-0.281,1.826,9.631,1
44,35.233,-97.451,92.1,16.77,13.653,328,-0.26,2.561,9.483,1
45,35.233,-97.451,89.5,17.99,13.653,328,-0.313,2.782,9.42,1
46,35.233,-97.451,90.7,18.43,13.653,327,-0.382,2.774,9.366,1
47,35.233,-97.45,91.2,18.83,13.653,327,-0.217,2.751,9.428,1
48,35.233,-97.45,91.5,19.33,13.653,328,-0.139,2.649,9.364,1
49,35.233,-97.45,91.3,19.4,13.653,328,-0.244,1.994,9.506,1
50,35.233,-97.45,92,18.86,13.653,328,-0.319,1.77,9.564,1
51,35.233,-97.45,90.9,18.25,13.653,328,-0.385,1.687,9.488,1
52,35.233,-97.449,90.1,17.64,13.653,328,-0.377,1.725,9.474,1
53,35.233,-97.449,90.4,17.04,13.653,328,-0.3,1.846,9.422,1
54,35.233,-97.449,90.7,16.66,13.653,328,-0.287,1.798,9.44,1
55,35.233,-97.449,89.6,16.47,13.653,328,-0.297,1.681,9.463,1
56,35.233,-97.449,89.8,15.75,15.17,329,-0.308,1.758,9.487,1
57,35.233,-97.449,86.9,15.68,13.653,329,-0.249,1.886,9.434,1
58,35.233,-97.448,89.5,15.43,13.653,329,-0.173,2.074,9.478,1
59,35.233,-97.448,89.7,15.66,13.653,329,-0.224,1.933,9.38,1
60,35.233,-97.448,90.5,15.46,13.653,328,-0.244,1.998,9.305,1
61,35.233,-97.448,90.6,15.65,13.653,327,-0.274,1.785,9.47,1
62,35.233,-97.448,91,15.34,13.653,327,-0.372,1.911,9.509,1
63,35.233,-97.448,90.2,15.26,13.653,328,-0.387,1.862,9.483,1
64,35.233,-97.447,90.2,15.28,13.653,327,-0.296,2.01,9.473,1
65,35.233,-97.447,89.8,15.38,13.653,327,-0.286,1.808,9.5,1
66,35.233,-97.447,90.1,15.29,13.653,326,-0.166,1.748,9.533,1
67,35.233,-97.447,91.4,15.01,13.653,326,-0.193,1.812,9.519,1
68,35.233,-97.447,91.3,15.08,13.653,326,-0.321,1.919,9.504,1
69,35.233,-97.447,90.8,15.18,13.653,326,-0.368,1.965,9.473,1
70,35.233,-97.446,90.7,15.13,13.653,327,-0.323,2.13,9.441,1
71,35.233,-97.446,90.2,15.31,13.653,326,-0.201,2.102,9.352,1
72,35.233,-97.446,89.5,15.29,13.653,328,-0.038,2.09,9.43,1
73,35.233,-97.446,90.9,15.68,13.653,328,-0.109,1.982,9.451,1
74,35.233,-97.446,91.1,15.83,13.653,327,-0.261,1.887,9.504,1
75,35.233,-97.446,91.6,15.95,13.653,327,-0.345,1.73,9.511,1
76,35.233,-97.445,91.9,15.5,13.653,325,-0.399,1.806,9.494,1
77,35.233,-97.445,91.6,15.61,13.653,324,-0.463,1.735,9.557,1
78,35.233,-97.445,91.5,15.41,13.653,323,-0.422,1.793,9.536,1
79,35.233,-97.445,90.6,15.22,13.653,325,-0.398,1.854,9.595,1
80,35.233,-97.445,90,15,13.653,324,-0.368,1.932,9.522,1
81,35.233,-97.445,90.1,14.95,13.653,324,-0.327,1.985,9.49,1
82,35.233,-97.444,90.3,14.9,13.653,324,-0.27,1.767,9.53,1
83,35.233,-97.444,89.4,14.69,13.653,322,-0.287,1.677,9.549,1
84,35.233,-97.444,90.6,14.46,13.653,322,-0.317,1.66,9.554,1
85,35.233,-97.444,90.7,14.05,13.653,322,-0.367,1.66,9.567,1
86,35.233,-97.444,90.5,13.6,13.653,322,-0.447,0.535,9.88,1
87,35.233,-97.444,91.9,12.49,13.653,323,-0.428,0.846,9.774,1
88,35.233,-97.443,91.6,10.95,13.653,323,-0.352,1.597,9.565,1
89,35.233,-97.443,90,10.34,13.653,323,-0.287,2.152,9.427,1
90,35.233,-97.443,89.9,10.49,13.653,322,-0.255,2.375,9.384,1
91,35.233,-97.443,90.1,10.86,13.653,324,-0.247,2.455,9.354,1
92,35.233,-97.443,91.2,11.33,13.653,324,-0.24,2.487,9.361,1
93,35.233,-97.443,91.3,11.71,13.653,325,-0.228,2.636,9.29,1
94,35.233,-97.443,91.4,12.38,13.653,326,-0.27,2.12,9.421,1
95,35.233,-97.443,91.3,12.61,15.17,325,-0.409,1.765,9.518,1
96,35.233,-97.442,91.1,12.51,15.17,324,-0.43,1.686,9.55,1
97,35.233,-97.442,90.2,12,15.17,326,-0.331,1.662,9.56,1
98,35.233,-97.442,90.1,11.69,13.653,326,-0.308,1.653,9.558,1
99,35.233,-97.442,90.8,11.37,13.653,327,-0.386,1.11,9.687,1
100,35.233,-97.442,91.1,10.66,13.653,327,-0.457,0.724,9.794,1
101,35.233,-97.442,92.4,9.33,13.653,327,-0.457,0.881,9.777,1
102,35.233,-97.442,92,8.05,13.653,326,-0.442,0.749,9.815,1
103,35.233,-97.442,92.6,6.92,13.653,326,-0.438,0.758,9.79,1
104,35.233,-97.442,93.8,5.49,13.653,326,-0.405,1.197,9.68,1
105,35.233,-97.442,89.7,4.45,13.653,326,-0.396,1.264,9.657,1
106,35.233,-97.442,88.7,3.79,13.653,327,-0.396,1.274,9.666,1
107,35.233,-97.442,88.8,3,13.653,326,-0.4,1.356,9.63,1
108,35.233,-97.442,90.2,2.58,13.653,326,-0.382,1.532,9.592,1
109,35.233,-97.442,91.2,2.11,13.653,327,-0.377,1.741,9.544,1
110,35.233,-97.441,90.2,1.61,13.653,328,-0.359,1.823,9.519,1
111,35.233,-97.441,90.6,1.37,13.653,329,-0.358,1.73,9.546,1
112,35.233,-97.441,96.1,1.15,13.653,329,-0.375,1.717,9.547,1
114,35.233,-97.441,89.2,0.58,13.653,329,-0.371,1.7,9.545,1
115,35.233,-97.441,89.2,0.58,13.653,329,-0.351,1.939,9.484,1
116,35.233,-97.441,89.2,0.58,13.653,329,-0.344,1.998,9.47,1
117,35.233,-97.441,89.2,0.58,13.653,329,-0.344,2.007,9.47,1
118,35.233,-97.441,89.2,0.58,13.653,329,-0.34,2.008,9.469,1
119,35.233,-97.441,89.2,0.58,13.653,329,-0.344,2.008,9.467,1
120,35.233,-97.441,89.2,0.58,13.653,329,-0.34,2.01,9.466,1
121,35.233,-97.441,89.2,0.58,13.653,329,-0.342,2.01,9.467,1
123,35.233,-97.441,89.2,0.58,13.653,329,-0.342,2.012,9.466,1
124,35.233,-97.441,89.2,0.58,13.653,329,-0.34,2.009,9.469,1
125,35.233,-97.441,89.2,0.58,13.653,329,-0.338,2.008,9.47,1
126,35.233,-97.441,89.2,0.58,13.653,329,-0.339,2.01,9.466,1
127,35.233,-97.441,89.2,0.58,13.653,329,-0.338,2.013,9.469,1
128,35.233,-97.441,89.2,0.58,13.653,329,-0.336,2.013,9.467,1
129,35.233,-97.441,89.2,0.58,13.653,329,-0.336,2.011,9.467,1
130,35.233,-97.441,89.2,0.58,13.653,329,-0.337,2.011,9.467,1
131,35.233,-97.441,89.2,0.58,13.653,329,-0.335,2.011,9.467,1
132,35.233,-97.441,89.2,0.58,13.653,329,-0.336,2.013,9.467,1
133,35.233,-97.441,89.2,0.58,13.653,329,-0.338,2.01,9.467,1
134,35.233,-97.441,89.2,0.58,13.653,329,-0.339,2.011,9.468,1
135,35.233,-97.441,89.2,0.58,13.653,329,-0.338,2.012,9.468,1
136,35.233,-97.441,89.2,0.58,13.653,329,-0.339,2.013,9.465,1
137,35.233,-97.441,89.2,0.58,13.653,329,-0.339,2.012,9.467,1
138,35.233,-97.441,89.2,0.58,13.653,329,-0.341,2.012,9.467,1
139,35.233,-97.441,89.2,0.58,13.653,329,-0.342,2.012,9.467,1
140,35.233,-97.441,89.2,0.58,13.653,329,-0.342,2.013,9.467,1
141,35.233,-97.441,89.2,0.58,13.653,329,-0.339,2.01,9.465,1
142,35.233,-97.441,89.2,0.58,13.653,329,-0.339,2.012,9.47,1
143,35.233,-97.441,89.2,0.58,13.653,329,-0.341,2.013,9.468,1
144,35.233,-97.441,89.2,0.58,13.653,329,-0.342,2.013,9.467,1
145,35.233,-97.441,89.2,0.58,13.653,329,-0.342,2.016,9.466,1
146,35.233,-97.441,89.2,0.58,13.653,329,-0.342,2.018,9.464,1
147,35.233,-97.441,89.2,0.58,13.653,329,-0.342,2.016,9.466,1
148,35.233,-97.441,89.2,0.58,13.653,329,-0.341,2.013,9.467,1
149,35.233,-97.441,89.2,0.58,13.653,329,-0.343,2.015,9.469,1
150,35.233,-97.441,89.2,0.58,13.653,329,-0.342,2.015,9.464,1
151,35.233,-97.441,89.2,0.58,13.653,329,-0.343,2.012,9.47,1
152,35.233,-97.441,0,0,13.653,329,-0.345,2.012,9.47,1
153,35.233,-97.441,0,0,13.653,329,-0.344,2.013,9.467,1
154,35.233,-97.441,0,0,13.653,329,-0.342,2.016,9.47,1
155,35.233,-97.441,0,0,13.653,328,-0.343,2.013,9.467,1
156,35.233,-97.441,0,0,13.653,328,-0.344,2.014,9.469,1
157,35.233,-97.441,0,0,13.653,328,-0.342,2.015,9.468,1
158,35.233,-97.441,0,0,13.653,326,-0.342,2.013,9.468,1
159,35.233,-97.441,0,0,13.653,326,-0.342,2.016,9.466,1
160,35.233,-97.441,0,0,13.653,326,-0.343,2.016,9.466,1
161,35.233,-97.441,0,0,13.653,326,-0.339,2.013,9.47,1
162,35.233,-97.441,0,0,13.653,326,-0.341,2.016,9.467,1
163,35.233,-97.441,0,0,13.653,326,-0.342,2.015,9.465,1
164,35.233,-97.441,0,0,13.653,326,-0.342,2.013,9.467,1
165,35.233,-97.441,0,0,13.653,326,-0.342,2.016,9.467,1
166,35.233,-97.441,0,0,13.653,326,-0.339,2.018,9.468,1
167,35.233,-97.441,0,0,13.653,326,-0.338,2.016,9.468,1
168,35.233,-97.441,0,0,13.653,326,-0.34,2.015,9.464,1
169,35.233,-97.441,0,0,13.653,326,-0.339,2.014,9.468,1
170,35.233,-97.441,0,0,13.653,326,-0.338,2.016,9.47,1
171,35.233,-97.441,0,0,13.653,326,-0.339,2.013,9.47,1
172,35.233,-97.441,0,0,13.653,326,-0.339,2.015,9.469,1
173,35.233,-97.441,0,0,13.653,326,-0.336,2.016,9.469,1
174,35.233,-97.441,0,0,13.653,326,-0.339,2.016,9.467,1
175,35.233,-97.441,0,0,13.653,326,-0.337,2.017,9.467,1
176,35.233,-97.441,0,0,13.653,326,-0.339,2.019,9.472,1
177,35.233,-97.441,0,0,13.653,326,-0.339,2.017,9.471,1
178,35.233,-97.441,0,0,13.653,326,-0.335,2.013,9.47,1
179,35.233,-97.441,0,0,13.653,326,-0.336,2.016,9.47,1
180,35.233,-97.441,0,0,13.653,326,-0.337,2.015,9.468,1
181,35.233,-97.441,0,0,13.653,326,-0.34,2.017,9.468,1
182,35.233,-97.441,0,0,13.653,326,-0.339,2.016,9.47,1
183,35.233,-97.441,0,0,13.653,326,-0.34,2.018,9.467,1
184,35.233,-97.441,0,0,13.653,326,-0.343,2.015,9.467,1
185,35.233,-97.441,0,0,13.653,326,-0.342,2.013,9.468,1
186,35.233,-97.441,0,0,13.653,326,-0.342,2.016,9.467,1
187,35.233,-97.441,0,0,13.653,326,-0.342,2.018,9.465,1
188,35.233,-97.441,0,0,13.653,326,-0.344,2.018,9.467,1
189,35.233,-97.441,0,0,13.653,326,-0.342,2.02,9.467,1
190,35.233,-97.441,0,0,13.653,326,-0.343,2.022,9.466,1
191,35.233,-97.441,0,0,13.653,326,-0.342,2.022,9.47,1
192,35.233,-97.441,0,0,13.653,326,-0.343,2.024,9.467,1
193,35.233,-97.441,0,0,13.653,326,-0.342,2.021,9.47,1
194,35.233,-97.441,0,0,13.653,326,-0.342,2.019,9.467,1
195,35.233,-97.441,0,0,13.653,326,-0.328,2.22,9.417,1
196,35.233,-97.441,0,0,13.653,326,-0.28,2.594,9.303,1
197,35.233,-97.441,0,0,13.653,326,-0.158,3.534,9.052,1
198,35.233,-97.441,93.9,2.01,4.551,328,-0.17,3.506,9.042,1
199,35.233,-97.441,94.9,3.6,4.551,329,-0.187,3.512,9.02,1
200,35.233,-97.441,92.6,5.09,4.551,330,-0.163,3.568,9.033,1
201,35.233,-97.441,93.2,6.66,4.551,330,-0.284,3.782,9.004,1
202,35.233,-97.441,93,8.39,4.551,330,-0.356,3.9,8.931,1
203,35.233,-97.441,89.9,10.36,4.551,330,-0.158,3.836,8.979,1
204,35.233,-97.441,89.6,12.38,4.551,331,0.283,3.516,9.05,1
205,35.233,-97.441,91,13.76,4.551,331,0.194,3.09,9.149,1
206,35.233,-97.441,92.8,14.81,4.551,331,-0.28,2.847,9.271,1
207,35.233,-97.44,94,15.63,4.551,330,-0.646,2.595,9.333,1
208,35.233,-97.44,93,16.21,4.551,329,-0.782,2.394,9.356,1
209,35.233,-97.44,91.3,16.72,4.551,330,-0.55,2.443,9.393,1
210,35.233,-97.44,90,16.94,4.551,330,-0.519,2.633,9.314,1
211,35.233,-97.44,90.1,17.5,4.551,329,-0.404,2.364,9.342,1
212,35.233,-97.439,89.5,17.96,4.551,330,-0.135,2.337,9.348,1
213,35.233,-97.439,91,18.02,4.551,332,-0.438,2.145,9.412,1
214,35.233,-97.439,90.6,18.35,4.551,334,-0.49,2.165,9.465,1
216,35.233,-97.439,90.2,18.32,4.551,334,-0.422,2.112,9.446,1
217,35.233,-97.439,89.9,18.45,4.551,334,-0.421,1.902,9.393,1
218,35.233,-97.438,89.8,18.36,4.551,335,-0.43,1.954,9.376,1
219,35.233,-97.438,89.8,18.44,4.551,333,-0.418,1.785,9.564,1
220,35.233,-97.438,90.3,18.38,4.551,333,-0.422,1.681,9.527,1
221,35.233,-97.438,90.4,18.02,4.551,333,-0.383,1.918,9.627,1
222,35.233,-97.438,89.9,17.81,4.551,334,-0.385,1.972,9.551,1
223,35.233,-97.437,90.2,17.86,4.551,334,-0.414,2.122,9.53,1
224,35.233,-97.437,90.1,17.85,4.551,335,-0.358,2.264,9.431,1
225,35.233,-97.437,89.3,18.14,4.551,334,-0.345,2.278,9.401,1
226,35.233,-97.437,89.9,18.28,4.551,335,-0.354,2.322,9.368,1
227,35.233,-97.437,90.1,18.49,4.551,334,-0.356,2.483,9.348,1
228,35.233,-97.436,89.9,19.26,4.551,333,-0.439,2.533,9.307,1
229,35.233,-97.436,92,19.51,4.551,332,-0.478,2.4,9.375,1
230,35.233,-97.436,90,19.89,4.551,333,-0.426,2.239,9.388,1
231,35.233,-97.436,89.5,20.16,4.551,334,-0.331,2.214,9.399,1
232,35.233,-97.435,90,20.27,4.551,334,-0.303,2.072,9.448,1
233,35.233,-97.435,89.9,20.23,4.551,334,-0.335,1.89,9.48,1
234,35.233,-97.435,90,20,4.551,334,-0.518,1.798,9.35,1
235,35.233,-97.435,89.8,19.8,13.653,334,-0.448,1.673,9.372,1
236,35.233,-97.434,89.8,19.5,13.653,336,-0.405,1.757,9.418,1
237,35.233,-97.434,90,19.49,13.653,336,-0.395,1.871,9.459,1
238,35.233,-97.434,89.9,19.32,13.653,337,-0.289,1.921,9.474,1
239,35.233,-97.434,90.2,19.68,15.17,336,-0.437,2.021,9.479,1
240,35.233,-97.434,90.1,19.59,15.17,337,-0.494,1.946,9.508,1
241,35.233,-97.433,92.3,19.47,15.17,336,-0.456,1.791,9.582,1
242,35.233,-97.433,89.3,19.52,15.17,338,-0.401,1.896,9.539,1
243,35.233,-97.433,90.4,19.84,13.653,338,-0.456,1.816,9.57,1
244,35.233,-97.433,90.2,19.71,13.653,338,-0.494,2.035,9.464,1
245,35.233,-97.433,88.7,19.41,13.653,336,-0.49,2.149,9.38,1
246,35.233,-97.432,88.7,19.95,13.653,337,-0.458,1.974,9.447,1
247,35.233,-97.432,89.7,20.04,13.653,337,-0.285,1.887,9.603,1
248,35.233,-97.432,89.6,19.96,13.653,337,-0.429,2.081,9.506,1
249,35.233,-97.432,90.2,19.9,13.653,337,-0.492,2.166,9.426,1
250,35.233,-97.431,90.2,20.03,13.653,337,-0.483,2.104,9.445,1
251,35.233,-97.431,88.9,19.67,13.653,337,-0.517,1.986,9.446,1
252,35.233,-97.431,89.7,19.98,13.653,337,-0.462,1.998,9.488,1
253,35.233,-97.431,90.4,20.03,13.653,337,-0.552,2.09,9.477,1
254,35.233,-97.431,90,20.16,13.653,338,-0.57,1.918,9.546,1
255,35.233,-97.43,89.6,19.94,13.653,338,-0.578,2.039,9.464,1
256,35.233,-97.43,89.4,20,13.653,339,-0.615,2.129,9.424,1
257,35.233,-97.43,89,20.04,13.653,339,-0.564,2.161,9.455,1
258,35.233,-97.43,89,20.2,13.653,338,-0.493,2.17,9.44,1
259,35.233,-97.429,88.7,20.27,13.653,338,-0.421,2.152,9.445,1
260,35.233,-97.429,89.4,20.38,13.653,338,-0.53,2.074,9.45,1
261,35.233,-97.429,89.2,20.42,13.653,338,-0.628,1.998,9.491,1
262,35.233,-97.429,88.9,20.37,13.653,338,-0.63,2.027,9.464,1
263,35.233,-97.429,88.6,20.4,13.653,339,-0.369,1.99,9.562,1
264,35.233,-97.428,88.9,20.13,13.653,338,-0.275,1.726,9.552,1
265,35.233,-97.428,89.6,19.76,13.653,338,-0.428,1.676,9.551,1
266,35.233,-97.428,89.9,19.3,13.653,336,-0.502,1.673,9.537,1
267,35.233,-97.428,89.8,18.86,13.653,337,-0.514,1.881,9.454,1
268,35.233,-97.427,89.3,18.62,13.653,337,-0.472,1.999,9.426,1
269,35.233,-97.427,89.5,18.71,13.653,337,-0.417,2.098,9.449,1
270,35.233,-97.427,89.7,18.72,13.653,337,-0.284,2.107,9.456,1
271,35.233,-97.427,90.1,18.81,13.653,337,-0.178,2.105,9.439,1
272,35.233,-97.427,91,18.81,13.653,337,-0.239,2.013,9.481,1
273,35.233,-97.426,91.3,18.82,13.653,336,-0.315,2.052,9.445,1
274,35.233,-97.426,91.9,18.84,13.653,337,-0.363,2.103,9.496,1
275,35.233,-97.426,92,18.93,13.653,337,-0.374,2.125,9.329,1
276,35.233,-97.426,92.3,18.95,13.653,337,-0.41,2.158,9.478,1
277,35.233,-97.426,91.3,19.2,13.653,337,-0.32,2.127,9.488,1
278,35.233,-97.425,91.5,19.3,13.653,336,-0.536,2.071,9.432,1
279,35.233,-97.425,91,19.41,13.653,335,-0.469,1.763,9.327,1
280,35.233,-97.425,90.8,19.13,13.653,335,-0.557,1.741,9.641,1
281,35.233,-97.425,90.5,18.83,13.653,335,-0.478,1.709,9.705,1
282,35.233,-97.425,90.3,18.42,13.653,334,-0.388,1.68,9.613,1
283,35.233,-97.424,90,18.01,13.653,335,-0.442,1.329,9.588,1
284,35.233,-97.424,90,17.24,13.653,335,-0.587,0.236,9.977,1
285,35.233,-97.424,89.6,15.51,13.653,335,-0.583,-0.49,10.199,0
286,35.233,-97.424,89.9,12.8,13.653,336,-0.569,-0.861,10.184,0
287,35.233,-97.424,89.8,9.7,13.653,335,0.225,0.054,10.013,0
288,35.233,-97.424,89.4,7.6,13.653,336,2.036,0.896,9.665,0
289,35.233,-97.424,103.5,6.86,13.653,335,3.321,1.982,9.361,0
290,35.233,-97.424,131.8,6.74,13.653,338,2.118,2.994,9.062,0
291,35.233,-97.424,139.1,6.77,13.653,339,1.544,3.294,8.926,0
292,35.233,-97.424,176.4,10,13.653,337,0.486,3.307,9.08,0
293,35.232,-97.424,178.5,11.79,13.653,336,0.144,3.239,9.084,0
294,35.232,-97.424,180.2,13.2,13.653,338,-0.213,3.195,9.143,0
295,35.232,-97.424,180.2,14.67,13.653,337,-0.302,3.09,9.185,0
296,35.232,-97.424,180.3,15.76,13.653,337,-0.233,3,9.247,0
297,35.232,-97.424,179.6,17.05,13.653,338,0.376,2.873,9.279,0
298,35.232,-97.424,180.5,18.12,13.653,338,-0.041,2.885,9.265,0
299,35.232,-97.424,181.7,19.08,13.653,337,-0.43,2.766,9.421,1
300,35.231,-97.424,181.5,20.03,13.653,337,-0.435,1.979,9.639,1
301,35.231,-97.424,180.5,19.92,13.653,339,-0.727,1.899,9.367,1
302,35.231,-97.424,179.8,19.66,13.653,339,-0.702,1.993,9.386,1
303,35.231,-97.424,178.6,19.59,13.653,339,-0.595,2.077,9.389,1
304,35.231,-97.424,177.8,19.74,13.653,340,-0.469,2.087,9.396,1
305,35.23,-97.424,177.5,19.85,13.653,340,-0.345,2.076,9.425,1
306,35.23,-97.424,178,19.99,13.653,341,-0.302,2.071,9.438,1
307,35.23,-97.424,178.2,20.23,13.653,340,-0.331,2.049,9.404,1
308,35.23,-97.424,177.8,20.4,13.653,339,-0.06,1.94,9.512,1
309,35.23,-97.424,178.3,20.35,13.653,338,-0.057,1.932,9.495,1
310,35.23,-97.424,178.8,20.36,13.653,339,-0.033,1.964,9.449,1
311,35.229,-97.424,179.8,20.51,13.653,339,-0.278,1.996,9.478,1
312,35.229,-97.424,180.3,20.59,13.653,339,-0.232,2.001,9.478,1
313,35.229,-97.424,180.5,20.67,13.653,339,-0.078,1.983,9.476,1
314,35.229,-97.424,181,20.76,13.653,338,-0.312,1.928,9.509,1
315,35.229,-97.424,181.5,20.83,13.653,337,-0.384,1.736,9.542,1
316,35.228,-97.424,181.2,20.65,13.653,337,-0.328,1.707,9.528,1
318,35.228,-97.424,181.5,20.45,13.653,337,-0.464,1.979,9.485,1
319,35.228,-97.424,181.1,20.39,13.653,336,-0.345,2.076,9.469,1
320,35.228,-97.424,180.8,20.58,13.653,335,-0.39,2.007,9.516,1
321,35.228,-97.424,180.7,20.79,13.653,336,-0.423,1.738,9.565,1
322,35.227,-97.424,181,20.53,13.653,336,-0.384,1.669,9.573,1
323,35.227,-97.424,180.1,20.39,13.653,336,-0.332,1.663,9.61,1
324,35.227,-97.424,180.1,20.06,13.653,335,-0.344,1.666,9.58,1
325,35.227,-97.424,180.2,19.81,13.653,335,-0.321,1.657,9.538,1
326,35.227,-97.424,180.5,19.52,13.653,335,-0.295,1.676,9.572,1
327,35.227,-97.424,180.9,19.14,13.653,334,-0.279,1.875,9.462,1
328,35.226,-97.424,181.2,18.97,13.653,335,-0.361,1.979,9.469,1
329,35.226,-97.424,180.5,19.18,13.653,335,-0.388,1.727,9.508,1
330,35.226,-97.424,180,18.77,13.653,334,-0.263,1.81,9.446,1
332,35.226,-97.424,180.3,18.66,13.653,333,-0.322,1.865,9.477,1
333,35.225,-97.424,180.3,18.82,13.653,334,-0.336,1.979,9.467,1
334,35.225,-97.424,180.2,18.99,13.653,333,-0.115,2.012,9.455,1
335,35.225,-97.424,180.1,19.06,13.653,333,-0.286,2.042,9.455,1
336,35.225,-97.424,180.5,19.4,13.653,332,-0.329,2.036,9.485,1
337,35.225,-97.424,180.3,19.4,13.653,332,-0.294,2.004,9.453,1
338,35.225,-97.424,180.5,19.46,13.653,331,-0.24,2.008,9.502,1
339,35.224,-97.424,180.4,19.7,13.653,332,-0.197,2.012,9.465,1
340,35.224,-97.424,180.7,19.81,13.653,331,-0.212,1.983,9.485,1
341,35.224,-97.424,180.4,19.94,13.653,330,-0.243,1.867,9.488,1
342,35.224,-97.424,180.1,19.78,13.653,330,-0.256,1.701,9.531,1
343,35.224,-97.424,180.3,19.48,13.653,331,-0.319,1.686,9.585,1
344,35.223,-97.424,180.5,19.35,13.653,331,-0.396,1.669,9.545,1
345,35.223,-97.424,180,19.07,13.653,329,-0.465,1.687,9.595,1
346,35.223,-97.424,179.7,18.85,13.653,330,-0.499,1.69,9.517,1
347,35.223,-97.424,179.7,18.67,13.653,329,-0.3,1.7,9.585,1
348,35.223,-97.424,179.7,18.45,13.653,329,-0.195,1.7,9.574,1
349,35.223,-97.424,179.8,18.22,13.653,329,-0.075,1.669,9.561,1
350,35.222,-97.424,180.1,17.98,13.653,328,-0.193,1.681,9.561,1
351,35.222,-97.424,180.4,17.96,13.653,328,-0.354,1.701,9.551,1
352,35.222,-97.424,180.4,17.53,13.653,328,-0.353,1.683,9.514,1
353,35.222,-97.424,179.7,17.55,13.653,328,-0.334,1.543,9.576,1
354,35.222,-97.424,180,16.92,13.653,328,-0.324,1.072,9.737,1
355,35.222,-97.424,180,15.96,13.653,329,-0.341,0.817,9.769,1
356,35.222,-97.424,180.1,14.87,13.653,329,-0.345,0.716,9.778,1
357,35.221,-97.424,180.2,13.68,13.653,330,-0.316,0.659,9.882,1
358,35.221,-97.424,181.5,12.31,13.653,329,-0.266,0.62,9.85,1
359,35.221,-97.424,182.9,10.92,13.653,329,-0.258,0.74,9.85,1
360,35.221,-97.424,183.8,9.9,13.653,330,-0.383,0.862,9.828,1
361,35.221,-97.424,183.3,8.95,13.653,331,-0.44,0.742,9.799,1
362,35.221,-97.424,183.1,7.83,13.653,330,-0.459,1.071,9.72,1
363,35.221,-97.424,181.9,7,13.653,330,-0.446,0.937,9.687,1
364,35.221,-97.424,180.4,6.03,13.653,329,-0.434,0.909,9.756,1
365,35.221,-97.424,179.9,5.16,13.653,329,-0.423,0.831,9.812,1
366,35.221,-97.424,178.3,4.18,13.653,329,-0.394,0.881,9.769,1
367,35.221,-97.424,177.4,2.87,13.653,327,-0.367,1.049,9.744,1
368,35.221,-97.424,175,2.21,13.653,328,-0.349,1.239,9.683,1
369,35.221,-97.424,183.7,1.5,13.653,327,-0.326,1.428,9.627,1
370,35.221,-97.424,183.4,1.23,13.653,327,-0.306,1.617,9.564,1
371,35.221,-97.424,183.6,0.91,13.653,328,-0.307,1.671,9.562,1
372,35.221,-97.424,183.6,0.81,13.653,328,-0.283,1.952,9.485,1
373,35.221,-97.424,177.1,0.99,13.653,327,-0.263,2.243,9.399,1
374,35.221,-97.424,177,1.34,13.653,328,-0.174,3.259,9.12,1
375,35.221,-97.424,180.5,3.07,13.653,328,-0.154,3.63,9.008,1
376,35.221,-97.424,178.9,5,13.653,329,-0.194,3.362,9.084,1
377,35.221,-97.424,179.5,6.53,13.653,328,-0.253,2.594,9.318,1
378,35.221,-97.424,179.7,6.98,13.653,328,-0.209,2.879,9.244,1
379,35.22,-97.424,179.7,8.07,13.653,328,-0.124,2.911,9.227,1
380,35.22,-97.424,181.6,9.09,13.653,328,-0.184,2.387,9.355,1
381,35.22,-97.424,180.6,9.61,13.653,328,-0.209,2.29,9.367,1
382,35.22,-97.424,180.6,10.01,13.653,328,-0.299,2.144,9.497,1
383,35.22,-97.424,180.6,10.21,13.653,328,-0.321,2.155,9.446,1
384,35.22,-97.424,180.7,10.56,13.653,328,-0.295,2.188,9.454,1
385,35.22,-97.424,180.4,10.87,13.653,328,-0.256,1.919,9.481,1
386,35.22,-97.424,180.6,10.9,13.653,328,-0.25,1.71,9.559,1
387,35.22,-97.424,180.3,10.63,13.653,327,-0.275,1.273,9.629,1
388,35.22,-97.424,179.6,10.03,13.653,327,-0.318,0.883,9.75,1
389,35.22,-97.424,181.6,9.28,13.653,328,-0.264,1.041,9.72,1
390,35.219,-97.424,180.2,8,13.653,327,-0.357,0.687,9.842,1
391,35.219,-97.424,180.5,6.85,13.653,327,-0.362,0.598,9.846,1
392,35.219,-97.424,181.6,5.41,13.653,327,-0.336,1.042,9.727,1
393,35.219,-97.424,179.9,4.54,13.653,328,-0.392,0.428,9.901,1
394,35.219,-97.424,183.3,2.85,13.653,328,-0.363,0.913,9.748,1
395,35.219,-97.424,185,1.95,13.653,328,-0.318,1.323,9.652,1
396,35.219,-97.424,184.6,1.27,13.653,329,-0.303,1.593,9.588,1
397,35.219,-97.424,184.7,0.91,13.653,329,-0.284,1.612,9.57,1
398,35.219,-97.424,180.6,0.69,13.653,329,-0.317,1.374,9.644,1
399,35.219,-97.424,180.6,0.69,13.653,329,-0.271,1.817,9.522,1
400,35.219,-97.424,180.6,0.69,13.653,329,-0.266,1.883,9.502,1
401,35.219,-97.424,180.6,0.69,13.653,329,-0.266,1.899,9.5,1
402,35.219,-97.424,0,0,13.653,329,-0.263,1.901,9.499,1
403,35.219,-97.424,0,0,13.653,329,-0.266,1.903,9.498,1
404,35.219,-97.424,0,0,13.653,329,-0.265,1.903,9.499,1
405,35.219,-97.424,0,0,13.653,329,-0.262,1.902,9.501,1
406,35.219,-97.424,0,0,13.653,329,-0.263,1.901,9.496,1
407,35.219,-97.424,0,0,13.653,329,-0.263,1.9,9.498,1
408,35.219,-97.424,0,0,13.653,329,-0.259,1.904,9.501,1
409,35.219,-97.424,0,0,13.653,329,-0.259,1.904,9.501,1
410,35.219,-97.424,0,0,13.653,329,-0.259,1.902,9.503,1
411,35.219,-97.424,0,0,13.653,329,-0.26,1.904,9.499,1
412,35.219,-97.424,0,0,13.653,329,-0.262,1.904,9.502,1
414,35.219,-97.424,0,0,13.653,329,-0.26,1.904,9.502,1
415,35.219,-97.424,0,0,13.653,329,-0.262,1.904,9.502,1
416,35.219,-97.424,0,0,13.653,329,-0.262,1.904,9.5,1
417,35.219,-97.424,0,0,13.653,329,-0.262,1.904,9.5,1
418,35.219,-97.424,0,0,13.653,329,-0.262,1.904,9.501,1
419,35.219,-97.424,0,0,13.653,329,-0.262,1.904,9.5,1
420,35.219,-97.424,0,0,13.653,329,-0.262,1.904,9.504,1
421,35.219,-97.424,0,0,13.653,329,-0.262,1.904,9.498,1
422,35.219,-97.424,0,0,13.653,329,-0.26,1.904,9.501,1
423,35.219,-97.424,0,0,13.653,329,-0.262,1.904,9.502,1
424,35.219,-97.424,0,0,13.653,329,-0.262,1.902,9.502,1
425,35.219,-97.424,0,0,13.653,329,-0.245,2.072,9.458,1
426,35.219,-97.424,0,0,13.653,329,-0.231,2.274,9.401,1
427,35.219,-97.424,185.1,0.81,13.653,330,-0.221,2.316,9.387,1
428,35.219,-97.424,180,1.33,13.653,330,-0.21,2.326,9.364,1
429,35.219,-97.424,179.7,1.34,13.653,331,-0.264,1.863,9.52,1
430,35.219,-97.424,181.9,1.14,13.653,331,-0.277,1.643,9.564,1
431,35.219,-97.424,181.9,1.14,13.653,331,-0.313,1.578,9.597,1
432,35.219,-97.424,182,0.15,13.653,332,-0.31,1.559,9.592,1
433,35.219,-97.424,182,0.15,13.653,332,-0.277,1.87,9.514,1
434,35.219,-97.424,182,0.15,13.653,332,-0.272,1.923,9.496,1
435,35.219,-97.424,182,0.15,13.653,332,-0.269,1.932,9.494,1
436,35.219,-97.424,182,0.15,13.653,332,-0.268,1.936,9.493,1
437,35.219,-97.424,182,0.15,13.653,332,-0.271,1.939,9.495,1
438,35.219,-97.424,182,0.15,13.653,332,-0.272,1.94,9.496,1
439,35.219,-97.424,182,0.15,13.653,332,-0.268,1.939,9.49,1
440,35.219,-97.424,182,0.15,13.653,332,-0.269,1.939,9.491,1
441,35.219,-97.424,182,0.15,13.653,332,-0.269,1.941,9.493,1
442,35.219,-97.424,182,0.15,13.653,332,-0.269,1.938,9.492,1
443,35.219,-97.424,182,0.15,13.653,332,-0.266,1.942,9.496,1
444,35.219,-97.424,182,0.15,13.653,332,-0.268,1.939,9.497,1
445,35.219,-97.424,182,0.15,13.653,332,-0.269,1.941,9.492,1
446,35.219,-97.424,182,0.15,13.653,332,-0.263,1.955,9.487,1
447,35.219,-97.424,182,0.15,13.653,332,-0.153,3.112,9.191,1
448,35.219,-97.424,182,0.15,13.653,332,-0.088,3.911,8.947,1
449,35.219,-97.424,181.8,3.73,13.653,333,-0.09,3.965,8.903,1
450,35.219,-97.424,180.4,5.9,13.653,334,-0.161,3.86,8.93,1
451,35.219,-97.424,181.6,7.83,13.653,334,-0.205,3.325,9.135,1
452,35.219,-97.424,180.6,9.07,13.653,334,-0.266,3,9.225,1
453,35.219,-97.424,180.9,9.88,13.653,334,-0.189,2.669,9.273,1
454,35.219,-97.424,181.7,10.52,13.653,333,-0.229,2.448,9.334,1
455,35.219,-97.424,178.7,11.05,13.653,333,-0.28,2.419,9.29,1
456,35.219,-97.424,179.8,11.49,13.653,332,-0.254,2.427,9.374,1
457,35.218,-97.424,179.1,11.95,13.653,332,-0.118,2.432,9.304,1
458,35.218,-97.424,179,12.47,13.653,331,0.023,2.38,9.018,1
459,35.218,-97.424,180,12.83,13.653,332,-0.068,2.058,9.333,1
460,35.218,-97.424,180.7,13.12,13.653,330,-0.255,2.088,9.487,1
461,35.218,-97.424,180,13.57,13.653,329,-0.246,2.331,9.449,1
462,35.218,-97.424,179.5,14.16,13.653,329,-0.189,2.243,9.362,1
463,35.218,-97.424,179.2,14.58,13.653,329,-0.135,2.24,9.386,1
464,35.218,-97.424,180,14.84,13.653,330,-0.201,2.143,9.448,1
465,35.217,-97.424,179.9,15.21,13.653,330,-0.226,2.234,9.369,1
466,35.217,-97.424,179.7,15.69,13.653,329,-0.202,2.269,9.369,1
467,35.217,-97.424,180.6,16.22,13.653,331,-0.043,2.099,9.492,1
468,35.217,-97.424,180.9,16.38,13.653,331,-0.173,2.175,9.456,1
469,35.217,-97.424,181.8,16.51,13.653,330,-0.256,2.286,9.446,1
470,35.217,-97.424,180.3,17.06,13.653,330,-0.345,2.311,9.417,1
471,35.217,-97.424,180,17.41,13.653,330,-0.339,2.321,9.441,1
472,35.216,-97.424,179.9,17.81,13.653,330,-0.326,2.292,9.474,1
473,35.216,-97.424,180.4,18.11,13.653,330,-0.32,1.93,9.544,1
474,35.216,-97.424,180.1,18.04,13.653,330,-0.309,2.181,9.511,1
475,35.216,-97.424,179.8,18.29,13.653,329,-0.306,1.987,9.492,1
476,35.216,-97.424,180.5,18.17,13.653,329,-0.033,2.321,9.491,1
477,35.216,-97.424,180.8,18.41,13.653,329,-0.163,2.589,9.334,1
478,35.215,-97.424,181.4,19,13.653,330,-0.628,2.714,9.298,1
479,35.215,-97.424,180.4,19.62,13.653,330,-0.865,2.121,9.47,1
480,35.215,-97.424,179.4,19.54,13.653,330,-0.392,1.903,9.361,1
481,35.215,-97.424,179.4,19.42,13.653,329,-0.314,1.574,9.515,1
482,35.215,-97.424,179.9,18.91,13.653,329,-0.439,0.459,9.782,1
483,35.215,-97.424,180.3,17.24,13.653,328,-0.451,0.331,9.868,1
484,35.214,-97.424,179.4,15.72,13.653,328,-0.386,1.217,9.68,1
485,35.214,-97.424,180.4,14.93,13.653,328,-0.424,1.588,9.574,1
486,35.214,-97.424,180.4,14.77,13.653,328,-0.358,1.724,9.563,1
487,35.214,-97.424,180.1,14.62,13.653,326,-0.368,1.96,9.536,1
488,35.214,-97.424,180,14.68,13.653,326,-0.331,2.277,9.574,1
489,35.214,-97.424,180.3,14.96,13.653,326,-0.378,2.193,9.461,1
490,35.214,-97.424,180,15.14,13.653,325,-0.332,2.405,9.383,1
491,35.213,-97.424,180.2,15.43,13.653,325,-0.313,2.452,9.356,1
492,35.213,-97.424,180.7,15.97,13.653,325,-0.393,2.135,9.456,1
493,35.213,-97.424,180.3,15.99,13.653,325,-0.408,1.814,9.552,1
494,35.213,-97.424,179,15.75,13.653,324,-0.384,1.713,9.532,1
495,35.213,-97.424,179.5,15.32,13.653,323,-0.36,1.347,9.648,1
496,35.213,-97.424,179.1,14.87,13.653,323,-0.377,0.615,9.841,1
497,35.213,-97.424,179.6,13.28,13.653,323,-0.414,0.249,9.953,1
498,35.213,-97.424,180.2,11.37,13.653,324,-0.406,0.725,9.815,1
499,35.212,-97.424,180.5,9.85,13.653,323,-0.361,1.224,9.693,1
500,35.212,-97.424,178.8,9.01,13.653,324,-0.344,1.556,9.589,1
501,35.212,-97.424,179.3,8.55,13.653,324,-0.304,1.897,9.494,1
502,35.212,-97.424,181.8,8.11,13.653,323,-0.27,2.479,9.353,1
503,35.212,-97.424,179.3,8.68,13.653,324,-0.259,2.622,9.329,1
504,35.212,-97.424,180,9.29,13.653,324,-0.242,2.613,9.314,1
505,35.212,-97.424,180.1,9.88,13.653,325,-0.311,2.598,9.323,1
506,35.212,-97.424,180.5,10.26,13.653,325,-0.281,2.584,9.327,1
507,35.212,-97.424,180,10.84,13.653,323,-0.23,2.607,9.285,1
508,35.212,-97.424,180.8,11.41,13.653,322,-0.252,2.609,9.288,1
509,35.212,-97.424,179.7,12.1,13.653,322,-0.222,2.604,9.304,1
510,35.211,-97.424,180.3,12.6,13.653,322,-0.236,2.698,9.296,1
511,35.211,-97.424,179.7,13.19,13.653,322,-0.324,2.335,9.369,1
513,35.211,-97.424,179.7,13.89,13.653,322,-0.281,2.302,9.42,1
514,35.211,-97.424,181,13.67,13.653,322,-0.143,2.193,9.387,1
515,35.211,-97.424,180.5,13.87,13.653,321,-0.076,2.273,9.358,1
516,35.211,-97.424,181.4,14,13.653,322,-0.097,2.279,9.383,1
517,35.211,-97.424,182,14.55,13.653,322,-0.412,1.849,9.487,1
518,35.211,-97.424,182.4,14.37,13.653,322,-0.608,1.953,9.478,1
519,35.21,-97.424,181.2,14,13.653,323,-0.548,2.02,9.434,1
520,35.21,-97.424,179.8,14.24,13.653,322,-0.38,2.381,9.333,1
521,35.21,-97.424,179.5,14.95,13.653,322,-0.294,2.325,9.371,1
522,35.21,-97.424,179,15.33,13.653,321,-0.194,2.391,9.39,1
523,35.21,-97.424,180.7,15.83,13.653,322,-0.158,2.248,9.425,1
524,35.21,-97.424,182.3,15.98,13.653,322,-0.319,2.121,9.462,1
525,35.209,-97.424,179.7,16.21,13.653,323,-0.392,2.075,9.484,1
526,35.209,-97.424,179,16.23,13.653,323,-0.402,2.072,9.431,1
527,35.209,-97.424,179.1,16.52,13.653,323,-0.311,1.979,9.463,1
528,35.209,-97.424,180.3,16.46,13.653,323,-0.284,1.958,9.456,1
529,35.209,-97.424,180.3,16.46,13.653,323,-0.402,2.496,9.346,1
530,35.209,-97.424,179.8,17.4,15.17,324,-0.561,3.384,9.112,1
531,35.209,-97.424,177.6,19.6,13.653,325,-0.547,3.628,9.086,1
532,35.208,-97.424,176.7,21.34,13.653,324,0.093,3.595,9.045,1
533,35.208,-97.424,177.8,22.94,13.653,323,0.28,2.881,9.197,1
534,35.208,-97.424,179.6,23.18,13.653,322,0.107,2.317,9.413,1
535,35.208,-97.424,180.3,23.24,13.653,321,-0.067,1.889,9.505,1
536,35.207,-97.424,179.8,23.11,13.653,321,-0.319,1.717,9.566,1
537,35.207,-97.424,180.1,23.03,13.653,322,-0.293,1.692,9.582,1
538,35.207,-97.424,179.5,22.37,13.653,322,-0.269,1.586,9.616,1
539,35.207,-97.424,180,21.63,13.653,321,-0.473,0.694,9.844,1
540,35.207,-97.424,179.5,19.97,13.653,320,-0.474,1.129,9.679,1
541,35.207,-97.424,180.4,19.73,13.653,319,-0.367,1.569,9.592,1
542,35.206,-97.424,180,19.61,13.653,318,-0.336,1.675,9.556,1
543,35.206,-97.424,179.6,19.25,13.653,318,-0.372,1.709,9.575,1
544,35.206,-97.424,180.1,19.16,13.653,317,-0.212,1.621,9.563,1
545,35.206,-97.424,179.6,18.95,13.653,318,-0.13,1.428,9.588,1
546,35.206,-97.424,179.7,18.24,13.653,318,-0.363,1.171,9.768,1
547,35.205,-97.424,180.9,17.55,13.653,317,-0.706,1.565,9.604,1
548,35.205,-97.424,177.4,17.22,13.653,317,-0.722,1.667,9.524,1
549,35.205,-97.424,176.5,17,13.653,317,-0.337,1.684,9.555,1
550,35.205,-97.424,176.9,16.75,13.653,317,0.191,1.654,9.519,1
552,35.205,-97.424,178.6,16.47,13.653,317,0.323,0.786,9.775,1
553,35.205,-97.424,179.4,14.75,13.653,318,0.059,0.202,9.879,0
554,35.205,-97.424,179.2,13.44,13.653,318,-0.037,-0.333,10.037,0
555,35.204,-97.424,179.4,10.34,13.653,318,-0.077,-0.378,10.038,0
556,35.204,-97.424,179,7.99,13.653,318,-0.081,-0.234,10.071,0
557,35.204,-97.424,177.1,6.06,13.653,319,-0.077,0.047,9.972,0
558,35.204,-97.424,183.1,3.86,13.653,319,-0.002,0.112,9.925,0
559,35.204,-97.424,177.5,2.15,13.653,320,0.071,0.736,9.787,0
560,35.204,-97.424,177,1.18,13.653,321,0.063,0.624,9.831,0
561,35.204,-97.424,177,1.18,13.653,321,0.154,1.677,9.547,0
562,35.204,-97.424,177,1.18,13.653,321,0.172,1.859,9.505,0
563,35.204,-97.424,177,1.18,13.653,321,0.175,1.901,9.49,0
564,35.204,-97.424,177,1.18,13.653,321,0.172,1.91,9.486,0
565,35.204,-97.424,177,1.18,13.653,321,0.175,1.913,9.485,0
566,35.204,-97.424,177,1.18,13.653,321,0.173,1.91,9.486,1
567,35.204,-97.424,0,0,15.17,321,0.174,1.914,9.483,1
568,35.204,-97.424,0,0,15.17,321,0.171,1.914,9.487,1
569,35.204,-97.424,0,0,15.17,321,0.172,1.971,9.472,1
570,35.204,-97.424,0,0,15.17,321,0.17,1.902,9.486,1
571,35.204,-97.424,0,0,15.17,321,0.175,2,9.461,1
572,35.204,-97.424,0,0,15.17,321,0.183,1.987,9.466,1
573,35.204,-97.424,0,0,15.17,321,0.194,2.018,9.454,1
574,35.204,-97.424,177.8,0.37,13.653,323,0.221,2.521,9.297,1
575,35.204,-97.424,182.1,1.11,13.653,324,0.28,3.647,8.977,1
576,35.204,-97.424,182.2,3.14,13.653,325,0.229,3.66,9.003,1
577,35.204,-97.424,177.2,5.07,13.653,325,0.363,3.425,9.076,1
578,35.204,-97.424,180.8,6.4,13.653,325,0.253,2.615,9.326,1
579,35.204,-97.424,180,6.9,13.653,325,-0.05,2.402,9.413,1
580,35.204,-97.424,178.6,7.46,13.653,325,-1.203,2.006,9.528,1
581,35.204,-97.424,176.3,7.04,13.653,326,-2.317,2.432,9.505,0
582,35.204,-97.424,151.5,7.49,13.653,325,-3.538,2.648,9.312,0
583,35.204,-97.424,125.3,8.36,13.653,325,-4.143,2.711,9.294,0
584,35.204,-97.423,99.8,9.08,13.653,325,-2.343,2.674,9.336,0
585,35.204,-97.423,89.4,9.41,13.653,326,-0.619,3.578,9.074,0
586,35.204,-97.423,89,11,13.653,325,-0.291,3.072,9.137,0
587,35.204,-97.423,88.8,12.16,13.653,325,-0.506,2.609,9.242,0
588,35.204,-97.423,87.6,12.74,13.653,325,-0.482,2.51,9.334,0
589,35.204,-97.423,86.5,13.17,13.653,325,-0.123,2.175,9.369,0
590,35.204,-97.423,87.1,13.48,13.653,325,0.14,2.234,9.442,0
591,35.204,-97.422,87.5,13.63,13.653,324,0.226,2.334,9.407,0
592,35.204,-97.422,88.7,14.03,13.653,324,0.214,2.321,9.315,0
593,35.204,-97.422,89.6,14.35,13.653,325,0.106,2.253,9.369,1
594,35.204,-97.422,89.8,14.74,13.653,324,-0.097,1.952,9.618,1
595,35.204,-97.422,90,14.63,13.653,326,-0.191,1.903,9.44,1
596,35.204,-97.422,89.7,14.58,13.653,326,-0.153,1.707,9.513,1
597,35.204,-97.421,89.9,14.26,13.653,325,-0.062,1.667,9.636,1
598,35.204,-97.421,89.9,13.93,13.653,325,-0.04,1.652,9.527,1
599,35.204,-97.421,90.4,13.59,13.653,325,-0.165,1.668,9.572,1
600,35.204,-97.421,90.2,13.16,13.653,326,-0.299,1.672,9.555,1
601,35.204,-97.421,89.2,12.86,13.653,324,-0.458,1.668,9.553,1
602,35.204,-97.421,88.6,12.44,13.653,325,-0.579,1.118,9.68,1
603,35.204,-97.421,86.6,11.7,13.653,326,-0.181,0.597,9.838,1
604,35.204,-97.421,85.8,10.39,13.653,327,0.159,0.444,9.922,1
605,35.204,-97.42,88.4,8.8,13.653,327,-0.067,0.307,9.918,1
606,35.204,-97.42,90.3,7,13.653,326,-0.125,0.116,9.921,1
607,35.204,-97.42,90.1,5.04,13.653,326,-0.198,0.298,9.938,1
608,35.204,-97.42,92.6,3.37,13.653,326,-0.241,0.449,9.854,1
609,35.204,-97.42,92.3,1.51,13.653,325,-0.178,0.956,9.764,1
610,35.204,-97.42,92.3,1.51,13.653,325,-0.107,1.676,9.562,1
