time,lat,lng,bearing,spd,acc,alt,accx,accy,accz,stable
0,35.34681396,-97.47545543,278.1,3.09,13.653,346,-0.619,2.561,9.262,1
1,35.34681912,-97.47549728,278.4,3.75,13.653,345,-0.634,2.329,9.332,1
2,35.34682671,-97.4755455,279.4,4.22,13.653,346,-0.538,1.885,9.445,1
3,35.34683492,-97.47559761,279.2,4.34,13.653,346,-0.398,1.681,9.551,1
4,35.3468423,-97.47564856,278.1,4.23,13.653,347,-0.404,1.566,9.519,1
5,35.34685065,-97.47569614,278.5,3.86,13.653,348,-0.395,1.669,9.485,1
6,35.34685734,-97.47573809,279.6,3.49,13.653,348,-0.404,2.024,9.431,1
7,35.34687653,-97.47582004,283.7,3.88,13.653,349,-0.178,2.06,9.463,1
8,35.34688895,-97.47586413,286.4,3.96,13.653,350,-0.26,2.203,9.403,1
9,35.34690287,-97.47590844,289.2,4.29,13.653,350,-0.31,2.169,9.449,1
10,35.34692081,-97.47595677,292.6,4.79,13.653,350,-0.328,2.334,9.365,1
11,35.34694944,-97.47600926,295.5,5.01,13.653,351,-0.674,2.224,9.401,1
12,35.34696472,-97.47605712,291.8,5.04,13.653,351,-1.037,2.144,9.425,1
13,35.34697328,-97.47612535,284.1,5.55,13.653,351,-1.233,2.094,9.353,1
14,35.34698015,-97.47617584,276.2,5.47,13.653,350,-1.068,2.018,9.395,1
15,35.34697861,-97.47623506,271.8,5.53,13.653,351,-0.556,2.097,9.307,1
16,35.34697771,-97.47629722,271.6,5.81,13.653,352,-0.54,1.916,9.449,1
17,35.34698164,-97.47635532,270.3,5.69,13.653,352,-0.51,1.701,9.473,1
18,35.34698291,-97.47641458,269,5.36,13.653,352,-0.421,0.972,9.689,1
19,35.3469862,-97.47645572,271.1,3.9,13.653,352,-0.436,0.971,9.79,1
20,35.34698327,-97.47648942,266.1,3.05,13.653,352,-0.431,1.797,9.519,1
22,35.34698679,-97.47657189,269.4,3.92,13.653,352,-0.302,2.206,9.406,1
23,35.34699136,-97.4766219,271.5,3.88,13.653,352,-0.333,1.814,9.529,1
24,35.34699208,-97.47666504,271.7,3.35,13.653,351,-0.347,1.639,9.585,1
25,35.34698846,-97.4766916,267.4,2.56,13.653,352,-0.344,2.289,9.407,1
26,35.34699237,-97.4767173,269.3,2.45,13.653,352,-0.305,1.234,9.613,1
27,35.34699331,-97.47673027,268.7,1.21,13.653,353,-0.273,1.341,9.58,1
28,35.34699331,-97.47673027,268.7,1.21,13.653,353,-0.284,1.467,9.564,1
29,35.34699331,-97.47673027,268.7,1.21,13.653,353,-0.275,1.488,9.559,1
30,35.34699331,-97.47673027,268.7,1.21,13.653,353,-0.279,1.58,9.541,1
31,35.34699912,-97.47673924,269.6,0.28,13.653,354,-0.289,1.889,9.484,1
32,35.34699912,-97.47673924,269.6,0.28,13.653,354,0.306,2.923,9.178,1
33,35.34700393,-97.47676582,291.8,2.74,13.653,353,1.807,2.416,9.228,1
34,35.34701615,-97.47679271,302.3,2.6,13.653,353,1.994,2.912,9.122,1
35,35.34704706,-97.47681606,323.1,4.22,13.653,353,0.762,3.273,9.047,1
36,35.34714708,-97.47680062,357.7,5.68,13.653,352,-0.619,3.207,9.08,1
37,35.34721142,-97.47678176,5.2,7.13,13.653,352,-0.953,3.02,9.193,1
38,35.34731774,-97.47679854,359.9,9.78,13.653,352,-0.852,2.323,9.32,1
39,35.34741211,-97.47679736,359.7,9.99,13.653,352,-0.828,1.641,9.518,1
40,35.34749979,-97.47679274,0.6,9.88,13.653,352,-0.757,1.601,9.563,1
41,35.34758923,-97.47679554,359.9,9.76,13.653,353,-0.897,0.622,9.825,1
42,35.34766195,-97.47679122,359.2,8.31,13.653,353,-0.897,0.118,9.917,1
43,35.34772573,-97.47678965,0.3,6.99,13.653,352,-0.852,-0.15,9.928,0
44,35.34776205,-97.47679925,0.6,4.57,13.653,352,-0.845,0.438,9.814,0
45,35.34778682,-97.47679505,0.1,3.36,13.653,353,-0.772,1.22,9.589,0
46,35.34782164,-97.47679391,359.3,3.29,13.653,351,-0.656,1.986,9.426,0
47,35.3478579,-97.47679653,359,3.83,13.653,351,-0.579,2.796,9.262,0
48,35.34790831,-97.47679796,0.1,5.12,13.653,351,-0.572,2.784,9.192,0
49,35.34796585,-97.47680289,359.1,6.09,13.653,352,-0.608,2.481,9.336,0
50,35.34802749,-97.4767968,359.7,6.91,13.653,352,-0.56,2.514,9.284,0
51,35.34809556,-97.47679194,359.9,7.67,13.653,352,-0.581,2.465,9.335,0
52,35.34817129,-97.47679579,359.1,8.5,13.653,352,-0.65,2.012,9.453,1
53,35.34825272,-97.47680067,359.3,8.8,13.653,352,-0.648,1.942,9.432,1
54,35.34833574,-97.47680163,359.1,9.17,13.653,352,-0.604,1.678,9.534,1
55,35.34841684,-97.47679988,0.2,9.26,13.653,352,-0.669,1.62,9.527,1
56,35.34849903,-97.47679976,359.9,9.05,13.653,352,-0.564,1.164,9.628,1
58,35.34858129,-97.47680172,0.4,8.64,15.17,351,0.292,0.71,9.734,1
59,35.34864132,-97.4767951,4,7.27,6.068,352,2.182,0.52,9.658,0
60,35.34868493,-97.47675189,34,5.91,6.068,351,2.554,1.823,9.46,0
61,35.34871157,-97.47669161,61.8,6.82,6.068,349,2.033,2.69,9.163,0
62,35.34872784,-97.47660458,79.5,8.22,4.5509996,349,0.792,2.884,9.217,0
63,35.34873607,-97.47649038,86.8,9.66,4.5509996,347,0.186,2.796,9.3,0
64,35.34874113,-97.47637168,87.7,10.77,4.5509996,348,-0.195,2.681,9.293,0
65,35.34874495,-97.47623645,89.2,11.95,4.5509996,348,-0.572,2.683,9.404,0
66,35.34874848,-97.47608994,88.9,13.12,4.5509996,348,-0.723,2.547,9.313,0
67,35.34875454,-97.47593253,88.6,14.02,4.5509996,348,-0.775,2.311,9.377,0
68,35.34876561,-97.47577262,87.6,14.72,4.5509996,348,-0.432,2.233,9.389,0
69,35.34877386,-97.47560158,88.4,15.25,4.5509996,348,-0.211,2.213,9.367,1
70,35.34877325,-97.47541959,89.8,15.87,4.5509996,348,-0.435,2.175,9.304,1
71,35.34876969,-97.47523635,90.3,16.38,4.5509996,348,-0.522,2.174,9.413,1
72,35.34876884,-97.47504795,90.6,16.87,4.5509996,348,-0.611,2.154,9.346,1
73,35.34877061,-97.47486125,90.9,17.33,4.5509996,349,-0.592,2.148,9.391,1
74,35.34877503,-97.47467641,90.3,17.76,4.5509996,350,-0.573,1.872,9.481,1
75,35.34876907,-97.47447541,90.3,18.19,4.5509996,349,-0.502,1.517,9.463,1
76,35.34876666,-97.47427607,90.3,18.03,4.5509996,349,-0.504,1.356,9.444,1
77,35.3487686,-97.47408371,90.5,17.79,4.5509996,350,-0.564,1.31,9.424,1
78,35.34876788,-97.47389781,90.7,17.37,4.5509996,350,-0.631,1.313,9.377,1
79,35.34877334,-97.47370956,90.1,17.44,4.5509996,350,-0.598,1.346,9.513,1
80,35.34876246,-97.47349819,90.6,17.72,4.5509996,348,-0.599,1.363,9.601,1
81,35.34875911,-97.47329585,90.3,17.71,4.5509996,348,-0.462,1.421,9.864,1
82,35.34876039,-97.47310102,90.4,17.69,4.5509996,348,-0.41,1.369,9.638,0
83,35.34875795,-97.47290569,91.2,17.57,4.5509996,347,-0.559,1.351,9.638,0
84,35.3487529,-97.47271471,91.1,17.29,4.5509996,347,-0.586,1.396,9.744,0
85,35.34875106,-97.47252601,91.1,17.15,4.5509996,347,-0.593,1.394,9.716,0
86,35.34874629,-97.47234761,90.7,16.78,4.5509996,346,-0.594,1.374,9.587,0
87,35.34874364,-97.4721587,90.5,16.64,4.5509996,345,-0.603,1.671,9.495,0
88,35.34873804,-97.47197598,90.4,16.48,4.5509996,345,-0.549,1.752,9.467,0
89,35.34873665,-97.47179349,90.3,16.52,4.5509996,345,-0.433,1.757,9.396,0
90,35.34873171,-97.47160513,90.5,16.7,4.5509996,345,-0.552,1.883,9.392,0
91,35.34873091,-97.4714155,90.5,16.99,4.5509996,344,-0.576,1.993,9.67,0
92,35.34873236,-97.47123396,90.1,17.49,4.5509996,345,-0.499,2.026,9.73,0
93,35.34873378,-97.47103396,90.1,17.97,4.5509996,345,-0.422,1.989,9.513,0
94,35.34873126,-97.47082727,90.3,18.33,4.5509996,345,-0.431,1.994,9.49,0
95,35.34874224,-97.47064391,90.6,18.4,4.5509996,345,-0.467,1.973,9.429,0
96,35.34873718,-97.47042693,91,18.77,4.5509996,345,-0.504,1.959,9.44,0
97,35.3487334,-97.47021256,91.2,18.99,4.5509996,345,-0.682,1.957,9.453,0
98,35.34873428,-97.46999509,91,19.17,4.5509996,345,-0.684,1.796,9.507,0
99,35.34873127,-97.46977955,90.6,19.39,4.5509996,344,-0.552,1.528,9.67,0
100,35.34872553,-97.46956825,90.6,19.2,4.5509996,345,-0.439,1.471,9.795,0
101,35.3487258,-97.46936817,91,18.68,4.5509996,345,-0.36,1.686,9.555,1
102,35.34872363,-97.46899647,92.1,17.99,4.5509996,346,-0.451,1.765,9.459,1
103,35.34871715,-97.4687982,92.4,17.85,4.5509996,347,-0.669,1.806,9.495,1
104,35.34871658,-97.46860086,91.5,17.66,4.5509996,347,-0.696,2.005,9.352,1
105,35.34872005,-97.46840603,91.4,17.98,4.5509996,349,-0.66,2.481,9.215,1
106,35.34871507,-97.46818952,91,18.77,6.068,349,-0.685,2.637,8.987,1
107,35.34870942,-97.46797254,90.1,19.67,6.068,348,-0.787,1.86,9.354,1
108,35.34870749,-97.46775189,89.7,19.65,4.5509996,348,-0.775,1.498,9.516,1
109,35.34871043,-97.46753549,89.4,19.46,4.5509996,347,-0.52,1.409,9.553,1
110,35.34871032,-97.4673203,89.8,19.08,4.5509996,347,-0.162,1.396,9.582,1
111,35.34870802,-97.46711077,90.4,18.88,4.5509996,346,-0.343,1.393,9.716,1
112,35.34870634,-97.46691,90.7,18.62,4.5509996,346,-0.491,1.347,9.675,1
113,35.34870119,-97.4667025,90.7,18.27,4.5509996,344,-0.555,1.4,9.755,1
114,35.34869661,-97.46649888,91,17.81,4.5509996,345,-0.306,1.406,9.71,1
115,35.34869152,-97.46630076,92.2,17.33,4.5509996,345,-0.165,1.415,9.652,1
116,35.34869085,-97.4661319,92.8,16.93,4.5509996,346,-0.287,1.418,9.672,1
117,35.34868934,-97.46594815,92.2,16.43,4.5509996,347,-0.679,1.32,9.317,1
118,35.34868226,-97.4657765,91.6,15.89,4.5509996,346,-0.742,1.382,9.625,1
119,35.34868328,-97.46560775,91.1,15.92,4.5509996,347,-0.643,1.835,9.542,1
120,35.34867414,-97.46543342,90.8,16.07,4.5509996,347,-0.562,1.963,9.383,1
121,35.3486702,-97.46525232,90.5,16.24,4.5509996,346,-0.527,1.954,9.334,1
122,35.34868013,-97.46507742,88.7,16.35,4.5509996,347,-0.839,1.884,9.257,1
123,35.34868555,-97.46489642,88.4,16.55,4.5509996,346,-0.308,1.845,9.325,1
124,35.34869321,-97.4647057,89.1,16.87,4.5509996,345,-0.188,1.993,9.357,1
125,35.34868722,-97.46449653,90.1,17.56,4.5509996,343,-0.343,2.015,9.311,1
126,35.34868957,-97.46429731,89.6,18.02,6.068,342,-0.323,1.98,9.373,1
127,35.34868431,-97.46408841,90,18.6,4.5509996,342,-0.381,1.83,9.445,1
128,35.3486816,-97.46386045,90.6,19.07,6.068,340,-0.503,1.513,9.591,1
129,35.34868133,-97.4636568,90.5,18.94,6.068,340,-0.447,1.413,9.656,1
130,35.34868452,-97.46346059,90.4,18.82,6.068,340,-0.565,1.492,10.024,0
131,35.34868382,-97.46324682,90.4,18.8,6.068,340,-0.498,1.455,9.729,0
132,35.34867791,-97.46303349,90.8,18.74,6.068,340,-0.466,1.695,9.559,0
133,35.34867074,-97.46282108,91.2,18.81,7.585,341,-0.496,1.801,9.562,0
134,35.34867211,-97.46262382,90.9,18.77,6.068,342,-0.552,2.014,9.629,0
135,35.34866933,-97.46241736,90.9,18.76,7.585,342,-0.502,1.974,9.674,0
136,35.34868883,-97.46222356,90.6,18.92,6.068,346,-0.458,1.975,9.605,0
137,35.34869611,-97.46204184,90.9,18.85,6.068,345,-0.558,1.982,9.574,0
138,35.34869961,-97.46185167,91,18.58,6.068,346,-0.524,1.68,9.592,0
139,35.34869218,-97.46165854,90.6,17.91,6.068,346,-0.49,1.469,9.606,1
140,35.34868251,-97.46145735,90.8,17.18,6.068,346,-0.497,1.417,9.551,1
142,35.34868245,-97.46128399,90.9,16.44,6.068,342,-0.446,1.426,9.566,1
143,35.34867921,-97.46110498,91.3,15.73,6.068,343,-0.436,1.407,9.496,1
144,35.3486741,-97.46093408,91.3,15.22,7.585,344,-0.461,1.401,9.561,1
145,35.34867023,-97.46078513,91.5,14.46,7.585,343,-0.489,1.379,9.562,1
147,35.34866394,-97.4604698,91.5,13.26,7.585,344,-0.332,1.718,9.552,1
149,35.34863493,-97.46017201,92.9,12.08,7.585,342,-0.424,1.26,9.594,1
150,35.34865217,-97.46004696,91.5,11.11,7.585,344,-0.613,1.239,9.577,1
151,35.3486415,-97.45992519,91.9,10.44,7.585,344,-0.64,1.387,9.544,1
152,35.34863831,-97.45981039,91.9,10.44,7.585,344,-0.542,1.401,9.535,1
153,35.34864927,-97.45971195,90.9,9.77,7.585,346,-0.408,0.878,9.774,1
154,35.34864785,-97.45960445,90.9,9.77,10.6189995,346,-0.322,0.025,9.918,1
155,35.34864001,-97.45953868,92.7,6.61,7.585,347,-0.491,-0.026,9.93,1
156,35.34863721,-97.45946595,92.7,6.61,9.101999,347,-0.469,-0.395,10.011,0
157,35.34861895,-97.45942976,91.5,2.49,6.068,345,-0.432,0.2,9.863,0
158,35.34861913,-97.45940761,91.3,1.07,6.068,345,-0.417,3.122,9.143,0
159,35.3486196,-97.4593958,91.4,1.07,7.585,345,-0.422,4.387,8.809,0
160,35.34861039,-97.45931369,90.5,5.96,6.068,346,-0.442,4.241,8.865,0
161,35.34862251,-97.45923599,87.4,8.38,7.585,347,-0.433,4.209,8.798,0
162,35.34862586,-97.45914375,87.4,8.38,9.101999,348,-0.365,3.479,9.069,0
163,35.3486214,-97.45898035,91.1,12.84,6.068,349,-0.354,2.927,9.16,0
164,35.34861937,-97.45883819,90.2,13.78,6.068,349,-0.558,2.428,9.325,0
165,35.34862193,-97.45867652,90.1,14.44,6.068,349,-0.72,2.034,9.373,1
166,35.34861957,-97.45851012,89.9,14.94,6.068,350,-0.741,1.985,9.444,1
167,35.34862324,-97.4583419,89.3,15.23,6.068,350,-0.551,1.87,9.443,1
168,35.34862495,-97.4581743,89.3,15.23,7.585,350,-0.463,1.736,9.521,1
169,35.34862352,-97.45800357,90,15.05,6.068,349,-0.533,1.875,9.511,1
170,35.34863365,-97.45785291,89.4,15.12,6.068,350,-0.487,1.931,9.455,1
171,35.34863162,-97.45768295,89.8,15.24,6.068,351,-0.427,1.948,9.503,1
172,35.34862538,-97.45751118,90.2,15.11,6.068,351,-0.419,1.843,9.366,1
173,35.34862481,-97.45734487,90.2,15.11,7.585,351,-0.503,1.729,9.415,1
174,35.34860599,-97.45719861,90,14.87,7.585,350,-0.512,1.571,9.572,1
175,35.348605,-97.45704387,89.2,14.25,7.585,351,-0.451,1.592,9.078,1
176,35.34860479,-97.45687961,89.3,14.01,6.068,351,-0.598,1.599,9.323,1
177,35.34859996,-97.45672017,89.7,14.17,6.068,351,-0.518,1.425,9.488,1
178,35.3486016,-97.456563,89.4,13.98,6.068,351,-0.545,1.85,9.249,1
179,35.3486068,-97.4564071,89.7,14.32,6.068,351,-0.444,2.231,9.348,1
180,35.3486114,-97.45624024,88.7,14.9,4.5509996,351,-0.438,2.299,9.332,1
181,35.34861129,-97.45605469,89.8,16.1,4.5509996,351,-0.371,2.001,9.383,1
182,35.34860712,-97.4558781,89.8,16.57,4.5509996,351,-0.458,1.588,9.792,0
183,35.34860693,-97.45569364,90,16.58,4.5509996,350,-0.593,1.442,9.651,0
184,35.34860198,-97.45551938,89.8,16.31,4.5509996,349,-0.514,1.421,9.544,0
185,35.34860061,-97.4553334,89.9,16.14,4.5509996,350,-0.472,1.825,9.465,0
186,35.34859253,-97.45515528,89.6,16.38,4.5509996,350,-0.668,1.739,9.322,0
187,35.34860573,-97.45500419,89.2,16.66,4.5509996,349,-0.684,1.601,9.321,0
188,35.3486128,-97.45463341,87.7,17.1,4.5509996,348,-0.446,1.779,8.977,0
189,35.34861231,-97.45444395,88.1,18.06,4.5509996,349,-0.635,1.962,9.344,0
190,35.34861854,-97.45422774,87.6,18.6,4.5509996,347,-0.608,1.978,9.365,0
191,35.34862011,-97.45401032,87.8,19.53,4.5509996,346,-0.611,1.95,9.336,0
192,35.34862683,-97.45379693,88,20,4.5509996,344,-0.527,1.806,9.621,0
193,35.34863596,-97.45357977,88.2,20.21,4.5509996,344,-0.614,1.489,9.653,0
194,35.34864243,-97.45336699,88.5,20.05,4.5509996,344,-0.627,1.484,9.81,0
195,35.34864433,-97.45313659,88.6,20.6,4.5509996,343,-0.609,1.608,9.751,0
196,35.34864897,-97.45290986,88.6,20.61,4.5509996,343,-0.639,1.85,9.794,0
197,35.3486535,-97.4526816,88.4,20.62,4.5509996,344,-0.588,1.995,9.741,0
198,35.34865906,-97.45244619,88.5,20.72,6.068,343,-0.433,2.078,9.603,0
199,35.34865586,-97.45224148,88.5,20.8,6.068,341,-0.246,2.071,9.376,0
200,35.34865911,-97.45200978,89.4,20.72,6.068,341,-0.253,1.848,9.624,0
201,35.34867461,-97.45179064,89.8,21.07,6.068,340,-0.262,1.988,9.555,0
202,35.34867392,-97.45154941,90.3,21.23,6.068,340,-0.315,2.195,9.673,0
203,35.34867133,-97.45133389,91.2,21.05,4.5509996,339,-0.259,2.186,9.468,0
204,35.34866922,-97.45108719,90.5,21.05,4.5509996,339,-0.545,2.143,9.337,0
205,35.34866968,-97.45085343,90.2,21.15,4.5509996,341,-0.403,2.15,9.341,0
206,35.34868622,-97.45062286,90.4,20.9,4.5509996,343,-0.432,1.828,9.589,0
207,35.34867927,-97.45039153,90.2,20.51,4.5509996,342,-0.496,1.821,9.622,0
208,35.34867635,-97.45016588,90.6,20.15,4.5509996,342,-0.464,1.81,9.343,0
209,35.34869326,-97.44994952,90,19.97,4.5509996,345,-0.5,1.854,9.332,0
210,35.34868841,-97.44973412,89.3,20,4.5509996,344,-0.516,1.978,9.277,0
211,35.34869353,-97.44951936,89.3,20.13,4.5509996,344,-0.44,2.098,9.375,1
212,35.34870525,-97.4493089,89.1,19.98,4.5509996,345,-0.604,2.131,9.41,1
213,35.34871243,-97.4490902,88.8,20.42,4.5509996,348,-0.606,2.134,9.496,1
214,35.34871589,-97.44886127,88.7,20.62,6.068,349,-0.536,2.092,9.436,1
215,35.34871708,-97.44863785,89.3,20.85,6.068,349,-0.479,2.113,9.418,1
216,35.3487233,-97.44840402,89.2,21.05,4.5509996,350,-0.625,2.075,9.313,1
217,35.34871923,-97.44816722,89.4,21.28,6.068,350,-0.624,2.135,9.464,1
218,35.34872127,-97.44793303,89.4,21.28,6.068,350,-0.592,2.135,9.439,1
219,35.34871417,-97.44768248,89.2,21.7,4.5509996,350,-0.562,2.101,9.438,1
220,35.34871215,-97.44742447,89.5,21.83,4.5509996,348,-0.519,2.055,9.354,1
221,35.34871655,-97.44718497,89.5,21.96,4.5509996,349,-0.418,2.096,9.441,1
222,35.34871816,-97.44694344,89.5,21.95,6.068,349,-0.49,2.147,9.549,1
223,35.34870881,-97.44668479,89.9,22.41,4.5509996,351,-0.574,2.106,9.5,1
224,35.3487172,-97.44645929,89.4,22.36,6.068,351,-0.532,2.094,9.45,1
225,35.34871936,-97.4462133,89.4,22.36,6.068,351,-0.73,2.074,9.483,1
226,35.34871963,-97.44599108,89.3,22.39,4.5509996,352,-0.823,2.078,9.439,1
227,35.34872434,-97.44573579,89.2,22.66,4.5509996,352,-0.668,2.043,9.533,1
228,35.34872709,-97.44548639,89.2,22.66,6.068,352,-0.495,1.641,9.442,1
229,35.34872348,-97.44523508,89.6,22.03,6.068,353,-0.686,1.773,9.548,1
230,35.34873084,-97.44499706,89.2,21.76,6.068,354,-0.693,1.77,9.35,1
231,35.34873105,-97.44475164,89.3,21.65,6.068,355,-0.708,1.703,9.513,1
232,35.34873988,-97.44452265,88.7,21.06,6.068,354,-0.568,1.447,9.5,1
233,35.34874139,-97.44429868,89,20.63,6.068,354,-0.542,1.38,9.43,1
235,35.34874134,-97.44407096,89.4,20.21,6.068,353,-0.425,1.049,9.44,1
236,35.34874922,-97.44384983,89.6,19.04,6.068,351,-0.733,0.685,9.592,1
237,35.34874596,-97.44364137,89.2,18.25,6.068,351,-0.602,0.743,9.628,1
238,35.34874825,-97.44344063,89.2,18.25,7.585,351,-0.482,1.014,9.6,1
239,35.34873727,-97.44325415,89.7,17.18,6.068,349,-0.646,1.045,9.646,1
240,35.34873811,-97.44306513,89.7,17.18,7.585,349,-0.6,1.036,9.819,1
241,35.34875,-97.44287925,88.9,16.51,6.068,347,-0.616,1.283,9.763,1
242,35.34875295,-97.44269768,88.9,16.5,9.101999,347,-0.496,1.368,9.725,1
243,35.34875123,-97.44253428,89.7,15.66,7.585,348,-0.604,0.924,9.824,1
244,35.34875194,-97.44236195,89.7,15.66,10.6189995,348,-0.628,0.571,9.843,1
245,35.34876179,-97.44224148,89.6,13.54,7.585,348,-0.774,0.655,9.739,1
246,35.34876269,-97.44209245,89.6,13.54,10.6189995,348,-0.759,1.275,9.687,1
247,35.34876559,-97.44197876,88.5,11.65,7.585,351,-0.595,0.656,9.795,1
248,35.34876831,-97.44185058,88.5,11.65,9.101999,351,-0.524,0.095,9.968,1
249,35.34877047,-97.44175648,90,8.72,7.585,349,-0.461,-0.484,10.047,0
250,35.34877045,-97.44166056,90,8.71,9.101999,349,-0.475,0.051,9.92,0
251,35.3487656,-97.44160921,93.6,4.64,7.585,350,-0.472,-0.103,9.945,0
252,35.34876842,-97.44156562,96.6,3.9,9.101999,349,-0.507,0.47,9.818,0
253,35.34876439,-97.44152301,96.6,3.9,12.136,349,-0.554,1.678,9.514,0
254,35.34877279,-97.4415703,0,0,6.068,349,-0.56,1.766,9.493,0
255,35.34877279,-97.4415703,0,0,6.068,349,-0.553,1.889,9.461,0
256,35.34877279,-97.4415703,0,0,6.068,349,-0.547,2.054,9.424,0
257,35.34876592,-97.44156047,0,0,6.068,350,-0.554,2.09,9.419,0
258,35.34876592,-97.44156047,0,0,6.068,350,-0.543,2.106,9.413,1
259,35.34876592,-97.44156047,0,0,6.068,350,-0.553,2.103,9.413,1
260,35.34876592,-97.44156047,0,0,6.068,350,-0.546,2.141,9.399,1
261,35.34877348,-97.44155343,0,0,6.068,351,-0.557,4.063,8.883,1
262,35.34877348,-97.44155343,0,0,6.068,351,-0.614,4.899,8.657,1
263,35.34876444,-97.44148457,89.3,5.37,6.068,353,-0.542,4.546,8.744,0
264,35.34877639,-97.44142441,90.1,7.67,6.068,352,-0.576,4.449,8.293,0
265,35.34876984,-97.44134355,88.8,8.33,6.068,352,-0.503,4.454,8.745,0
266,35.3487763,-97.44123229,84.9,9.92,6.068,352,-0.517,4.089,9.049,0
267,35.34877076,-97.44108757,88.8,12.02,7.585,352,-0.442,3.986,8.926,0
268,35.34878437,-97.4409229,85,14.2,7.585,353,-0.457,3.874,8.707,0
269,35.3487977,-97.44073664,84,16.06,9.101999,354,-0.514,3.005,9.007,0
270,35.34876846,-97.44023245,89.9,21.28,6.068,354,-0.482,2.284,9.344,0
271,35.34876563,-97.43998191,89.7,21.06,4.5509996,353,-0.6,1.596,9.232,0
272,35.34876056,-97.43973188,89.6,20.81,4.5509996,352,-0.694,1.358,9.366,0
273,35.34876777,-97.43949642,89.4,20.54,4.5509996,353,-0.718,1.305,9.391,0
274,35.34876549,-97.43927071,89.4,20.5,4.5509996,353,-0.568,1.293,9.327,0
275,35.34876551,-97.43903339,89.5,20.47,4.5509996,351,-0.536,1.282,9.274,1
276,35.34877465,-97.43881041,90,20.62,4.5509996,351,-0.42,1.35,9.549,1
277,35.34878316,-97.43858788,89.9,20.75,4.5509996,349,-0.614,1.385,9.864,0
278,35.34878071,-97.43835463,89.7,20.54,4.5509996,350,-0.561,1.384,9.742,0
279,35.34878106,-97.43813697,90.2,20.44,4.5509996,350,-0.413,1.369,9.602,0
280,35.34878826,-97.4379134,90.3,20.2,4.5509996,350,-0.257,1.36,9.532,0
281,35.34878329,-97.43768822,90.7,20.26,4.5509996,350,-0.603,1.375,9.757,0
282,35.34877763,-97.43747022,90.6,19.63,4.5509996,350,-0.537,1.345,9.447,0
283,35.34877529,-97.43724043,90.5,19.63,4.5509996,349,-0.593,1.245,8.965,0
284,35.34877777,-97.4370286,89.9,19.63,4.5509996,347,-0.771,1.456,10.015,0
285,35.34877693,-97.43682058,90.2,19.66,4.5509996,346,-0.566,1.971,10.301,0
286,35.34877642,-97.4366042,90.2,19.66,6.068,347,-0.447,2.501,9.672,0
287,35.34877139,-97.43640116,90.8,20.14,4.5509996,348,-0.399,2.207,8.697,0
288,35.34877363,-97.43618403,90.5,20.13,6.068,349,-0.651,1.876,9.608,0
289,35.34877294,-97.43596318,90.6,19.93,6.068,349,-0.564,1.944,9.689,0
290,35.34877156,-97.43575216,91,19.62,4.5509996,349,-0.469,1.928,9.461,0
291,35.34877063,-97.43553362,90.6,19.31,4.5509996,350,-0.402,1.885,9.385,0
292,35.34876305,-97.43532077,90.5,19.05,4.5509996,351,-0.395,1.745,9.376,0
293,35.34875556,-97.43512831,91.1,16.35,4.5509996,353,-0.209,-1.624,9.944,0
294,35.34875646,-97.43497619,91.2,11.88,6.068,355,-0.383,-1.279,10.008,0
295,35.34876382,-97.43484927,90.9,11.38,6.068,355,-0.557,1.066,9.524,0
296,35.34876623,-97.43472098,90.2,11.79,6.068,354,-0.645,2.011,9.416,0
297,35.34876835,-97.43459127,89.3,12.84,6.068,353,-0.558,2.554,9.333,0
298,35.34877392,-97.434447,90,14,6.068,353,-0.331,2.588,9.267,0
299,35.34877543,-97.4342876,89.7,14.82,6.068,353,-0.364,2.624,9.333,0
300,35.34877783,-97.4340996,90.5,16.05,6.068,351,-0.51,2.545,9.399,0
301,35.34877017,-97.43391106,90.7,16.84,6.068,350,-0.606,2.328,9.448,0
302,35.34878495,-97.43374967,90.4,16.88,6.068,350,-0.482,1.766,9.425,0
303,35.34877909,-97.43357092,90.9,16.83,6.068,350,-0.611,1.674,9.637,1
304,35.34877994,-97.43338954,89.9,16.6,6.068,351,-0.49,1.495,9.569,1
305,35.34877716,-97.43319941,90.9,16.41,7.585,350,-0.475,1.405,9.512,1
306,35.34877092,-97.43301773,90.7,16.03,7.585,350,-0.408,1.345,9.408,1
307,35.34877139,-97.43283942,90.1,15.8,7.585,349,-0.314,1.363,9.503,1
308,35.34876834,-97.43266651,90.8,15.65,7.585,349,-0.304,1.37,9.56,1
309,35.34876641,-97.43249435,90.8,15.65,9.101999,349,-0.346,1.36,9.624,1
310,35.34875521,-97.4323143,90.8,15.43,7.585,347,-0.38,1.367,9.604,1
311,35.34875446,-97.43215297,90.6,15.31,7.585,348,-0.594,1.328,9.688,1
312,35.34875957,-97.43198308,90.8,14.95,7.585,347,-0.38,1.343,9.586,1
313,35.34875452,-97.4318225,90.6,14.73,7.585,348,-0.403,1.338,9.526,1
314,35.34874811,-97.43166079,90.6,14.56,7.585,347,-0.334,1.355,9.511,1
315,35.34874244,-97.43150202,90.8,14.42,7.585,346,-0.478,1.37,9.701,1
317,35.34873629,-97.43134305,91,14.18,7.585,345,-0.554,1.365,9.769,1
318,35.34874213,-97.43117968,90.8,14.19,6.068,346,-0.578,1.34,9.621,1
319,35.34875019,-97.43102484,90.9,14.19,7.585,346,-0.476,1.336,9.561,1
320,35.34874386,-97.43085296,90.3,14.01,7.585,344,-0.446,1.357,9.643,1
321,35.34874312,-97.43069876,90.3,14.01,9.101999,344,-0.533,1.59,9.538,1
322,35.3487463,-97.43052632,90.3,14.23,7.585,342,-0.58,1.99,9.309,1
323,35.34874431,-97.43036632,90.1,15.04,7.585,342,-0.628,2.098,9.585,1
324,35.34874522,-97.43019878,89.9,15.61,7.585,340,-0.571,1.564,9.653,1
325,35.34874558,-97.43002709,89.9,15.6,9.101999,340,-0.476,1.431,9.614,1
326,35.34875953,-97.42986304,90.2,15.71,7.585,340,-0.488,1.36,9.388,1
327,35.34875908,-97.4296902,90.2,15.71,9.101999,340,-0.496,1.376,9.529,1
328,35.34876327,-97.42951727,89.9,15.99,7.585,338,-0.478,1.512,9.579,1
329,35.34876343,-97.42934135,89.9,15.99,9.101999,338,-0.455,1.63,9.645,1
330,35.3487568,-97.42915608,90,16.64,6.068,338,-0.344,1.466,9.628,1
331,35.34875686,-97.42897297,90,16.64,9.101999,337,-0.45,1.383,9.611,1
332,35.34875242,-97.42879602,90.3,16.52,7.585,336,-0.652,1.387,9.575,1
333,35.34875163,-97.42861417,90.3,16.52,9.101999,336,-0.879,1.555,9.467,1
334,35.34874584,-97.42841668,89.7,17.06,7.585,334,-0.85,1.708,9.612,1
335,35.34874669,-97.42822912,89.7,17.05,9.101999,333,-0.72,1.679,9.627,1
336,35.3487567,-97.42805618,90,17.4,7.585,332,-0.662,1.647,9.626,1
337,35.34875659,-97.42786473,90,17.4,9.101999,332,-0.543,1.602,9.67,1
338,35.34876073,-97.42767102,89.9,17.66,7.585,333,-0.52,1.539,9.555,1
339,35.348761,-97.4274767,89.9,17.66,9.101999,333,-0.569,1.419,9.598,1
340,35.34878157,-97.42729865,90.1,17.37,7.585,330,-0.491,1.41,9.678,1
341,35.34877776,-97.42708874,90.1,17.09,7.585,328,-0.549,1.395,9.624,1
342,35.34877521,-97.42689568,90.2,16.89,7.585,328,-0.532,1.386,9.535,1
343,35.34876955,-97.42670947,90.4,16.49,7.585,329,-0.619,1.355,9.535,1
344,35.34876643,-97.42652528,90.4,16.28,7.585,329,-0.682,1.351,9.596,1
345,35.34876305,-97.42633814,90.3,16.02,7.585,327,-0.76,1.315,9.572,1
346,35.34875934,-97.42616317,89.7,15.56,7.585,328,-0.676,1.353,9.547,1
347,35.3487665,-97.42599231,89.7,15.21,7.585,328,-0.785,1.359,9.715,1
348,35.34876268,-97.42582897,90.1,14.96,6.068,328,-0.656,1.36,9.601,0
349,35.34876332,-97.42566939,89.8,14.36,7.585,329,-0.605,1.388,9.56,0
350,35.34876715,-97.4255207,89.7,13.83,6.068,329,-0.626,1.376,9.635,0
351,35.34876735,-97.42536944,90.2,13.52,6.068,330,-0.67,0.972,9.71,0
352,35.34876919,-97.425233,91.1,12.63,7.585,330,-0.773,0.376,9.806,0
353,35.34876244,-97.42509732,90.9,11.01,7.585,329,-0.502,0.366,9.865,0
354,35.34876023,-97.42499653,90.1,9.14,7.585,330,-0.054,0.654,9.703,0
355,35.34875653,-97.42490205,91.7,7.82,7.585,330,0.427,1.198,9.642,0
356,35.3487426,-97.42481649,99.6,7.12,7.585,331,0.448,1.076,9.692,0
357,35.34872003,-97.4247451,110.3,6.36,6.068,330,0.386,0.7,9.768,0
358,35.34869218,-97.42468211,119.1,4.68,6.068,330,-0.083,0.871,9.668,0
359,35.34866001,-97.4246278,133.1,2.53,6.068,330,-0.237,1.382,9.609,0
360,35.34865278,-97.4246184,142.1,1.64,6.068,331,-0.42,1.253,9.619,0
361,35.34863223,-97.42460285,147,2.56,6.068,331,-0.09,3.516,9.101,1
362,35.34859651,-97.42457684,146.5,4.59,6.068,331,0.869,4.302,8.939,1
363,35.34853673,-97.4245662,182.5,7.94,6.068,331,1.899,4.131,8.791,1
364,35.34842482,-97.4245946,194.3,11.04,6.068,330,1.516,4.462,8.691,1
365,35.34832036,-97.42464448,197.6,13.51,6.068,329,0.361,4.476,8.818,1
366,35.34818726,-97.42469594,197.9,15.84,6.068,330,-0.252,4.274,8.855,1
367,35.34803775,-97.42475598,197.6,18.13,6.068,330,-0.51,4.111,8.876,1
368,35.34786317,-97.42482623,198.1,20.66,6.068,329,-0.314,3.989,8.931,1
369,35.34769205,-97.42489885,198.2,21.05,6.068,330,-0.061,3.793,8.98,1
370,35.34748837,-97.4249874,200.1,23.87,6.068,331,-0.311,2.969,9.184,1
371,35.34727654,-97.42508545,200.7,24.82,4.5509996,331,-0.024,2.718,9.376,1
372,35.34706427,-97.42518928,201.7,25.28,4.5509996,333,-0.11,2.269,9.383,1
373,35.34685066,-97.42529526,202.4,25.77,6.068,333,-0.275,2.261,9.375,1
374,35.34662936,-97.42540725,202.7,26.46,6.068,333,-0.423,2.234,9.389,1
375,35.34640967,-97.42552563,203.3,26.45,6.068,334,-0.324,1.675,9.568,1
376,35.3461878,-97.42564786,203.3,26.37,6.068,334,-0.432,1.721,9.487,1
377,35.34596571,-97.42576601,203.3,26.45,6.068,334,-0.442,1.837,9.535,1
378,35.34572933,-97.42590625,203.5,26.63,6.068,332,-0.432,1.832,9.435,1
379,35.34550517,-97.42602926,203.2,26.46,6.068,330,-0.549,1.855,9.537,1
380,35.34528448,-97.42617023,203,26.6,6.068,328,-0.436,1.854,9.573,1
381,35.34505682,-97.42628721,203.7,26.66,6.068,327,-0.14,1.842,9.518,1
382,35.34483159,-97.42642742,203.7,26.72,6.068,329,-0.51,1.812,9.462,1
383,35.34460077,-97.42654353,203.5,26.73,6.068,328,-0.515,1.8,9.532,1
384,35.34437984,-97.42666078,203.5,26.72,7.585,328,-0.222,1.787,9.521,1
385,35.34416744,-97.4267923,203.6,26.7,6.068,328,-0.479,1.768,9.46,1
386,35.34394597,-97.42691667,203.1,26.73,6.068,329,-0.405,1.811,9.566,1
387,35.34372427,-97.42703187,203.1,26.73,9.101999,329,-0.515,1.802,9.507,1
388,35.34349217,-97.42713418,201.1,26.84,6.068,329,-0.86,1.772,9.478,1
389,35.34326594,-97.4272279,199.2,26.77,6.068,329,-0.899,1.764,9.574,1
390,35.34304098,-97.427334,196.9,26.78,6.068,329,-0.91,1.736,9.414,1
391,35.34280651,-97.42740393,195.2,26.77,6.068,328,-0.772,1.737,9.459,1
392,35.34255566,-97.42746297,193.7,26.75,6.068,328,-0.965,1.776,9.67,1
393,35.34232982,-97.42750459,191.6,26.68,6.068,328,-0.84,1.743,9.525,1
394,35.3420967,-97.42755053,190.3,26.9,6.068,327,-0.92,1.773,9.604,1
396,35.34185809,-97.42760349,190.3,26.9,9.101999,327,-0.86,1.766,9.538,1
397,35.34162493,-97.42762756,186.1,26.62,7.585,328,-0.789,1.771,9.517,1
398,35.34138626,-97.42764669,184.3,26.63,7.585,328,-0.684,1.795,9.53,1
399,35.34114807,-97.42766043,182.9,26.83,7.585,329,-0.449,1.781,9.544,1
400,35.34090075,-97.42767076,182.1,26.83,6.068,327,-0.93,1.77,9.501,1
401,35.34065825,-97.42768578,179.7,26.73,6.068,326,-0.949,1.77,9.537,1
402,35.34041879,-97.42769,178,26.67,7.585,325,-0.89,1.77,9.5,1
403,35.34017857,-97.42767988,178,26.66,9.101999,325,-0.779,1.79,9.595,1
404,35.33993544,-97.42763189,174.6,26.78,6.068,325,-0.898,1.785,9.579,1
405,35.33969512,-97.42760394,174.6,26.78,9.101999,325,-0.935,1.763,9.492,1
406,35.33945597,-97.42755815,171.3,26.5,7.585,325,-0.863,1.778,9.525,1
407,35.33922447,-97.42750642,169.3,26.7,7.585,325,-0.923,1.767,9.547,1
408,35.3389843,-97.42744596,168.5,26.77,7.585,325,-0.696,1.78,9.608,1
409,35.33874865,-97.42737036,165.9,26.89,7.585,325,-0.665,1.783,9.595,1
410,35.33851051,-97.42729323,164.9,26.98,7.585,325,-0.933,1.784,9.595,1
411,35.33827985,-97.42719313,162,26.82,7.585,326,-1.002,1.783,9.58,1
412,35.33805576,-97.42709605,160.1,26.88,7.585,326,-0.922,1.794,9.604,1
413,35.33782797,-97.42699517,160.1,26.88,7.585,326,-0.898,1.783,9.51,1
414,35.33761156,-97.42688422,156.3,26.56,6.068,325,-0.846,1.62,9.485,1
415,35.33739233,-97.42676675,156.3,26.56,7.585,325,-0.761,1.424,9.562,1
416,35.33718911,-97.42661673,153.2,25.98,6.068,327,-0.645,1.392,9.635,1
417,35.33698008,-97.42648797,153.2,25.97,9.101999,328,-0.609,1.379,9.594,1
418,35.33679618,-97.42635426,150.4,25.02,6.068,330,-0.545,1.366,9.56,1
419,35.33658487,-97.42621566,149.6,24.51,6.068,329,-0.451,1.382,9.612,1
420,35.33639737,-97.42607449,149,24,6.068,328,-0.472,1.376,9.642,1
421,35.33620844,-97.42594346,148.8,23.62,6.068,328,-0.34,1.368,9.694,1
422,35.33602781,-97.42581347,149.2,23.07,6.068,328,-0.155,0.687,9.892,1
423,35.33586301,-97.42568274,149.5,21.5,6.068,329,-0.536,0.838,9.926,0
424,35.3357037,-97.42556785,149.7,20.55,6.068,329,-0.39,1.321,9.725,0
425,35.3355519,-97.42545177,150.2,19.93,6.068,329,-0.329,1.423,9.718,0
426,35.33539602,-97.42534269,150.2,19.93,7.585,329,-0.153,1.458,9.682,0
427,35.33526753,-97.4252304,151.9,18.62,6.068,328,-0.321,1.175,9.667,0
428,35.33512568,-97.42513896,153.1,17.93,6.068,329,-0.414,0.739,9.753,0
429,35.33499006,-97.42505323,153.7,16.59,6.068,329,-0.443,1.06,9.66,0
430,35.33486281,-97.42497542,154.2,15.49,6.068,328,-0.587,1.365,9.602,0
431,35.33474072,-97.42490239,154.5,15.17,6.068,329,-0.62,1.414,9.582,0
432,35.33463092,-97.42483185,154.7,14.07,6.068,330,-0.513,1.413,9.547,1
433,35.33451689,-97.42476737,155.3,13.54,4.5509996,330,-0.487,1.419,9.527,1
434,35.33440025,-97.42469658,156.2,12.92,4.5509996,330,-0.415,1.773,9.462,1
435,35.33428577,-97.4246344,157.1,12.88,4.5509996,331,-0.374,2.487,9.333,1
436,35.3341788,-97.42457922,157.1,12.88,4.5509996,331,-0.444,2.591,9.271,1
437,35.33406533,-97.42452765,158.7,14.08,4.5509996,332,-0.501,2.498,9.311,1
438,35.33394184,-97.42446975,159.1,14.86,4.5509996,332,-0.542,2.453,9.281,1
439,35.33382656,-97.42441421,158.4,15.1,4.5509996,332,-0.557,2.427,9.325,1
440,35.33369382,-97.42435793,159.8,15.99,4.5509996,333,-0.439,2.403,9.331,1
441,35.33339965,-97.42424572,161.4,17.26,4.5509996,333,-0.341,2.365,9.258,1
442,35.33324767,-97.4241835,162,17.89,4.5509996,333,-0.442,2.336,9.346,1
443,35.33309088,-97.42412524,163.3,18.61,4.5509996,333,-0.345,2.283,9.345,1
444,35.3329367,-97.42406279,164.8,18.96,4.5509996,334,-0.121,1.948,9.355,1
445,35.33277076,-97.42402351,166.6,19.13,4.5509996,332,-0.179,1.876,9.411,1
446,35.33261337,-97.42400625,167.4,19.58,4.5509996,332,-0.318,2.001,9.396,1
447,35.33244745,-97.42396333,168.3,20.12,6.068,333,-0.309,2.029,9.406,1
448,35.33226988,-97.42391834,168.3,20.12,6.068,332,-0.263,2.013,9.41,1
449,35.33208497,-97.42386535,169.9,21.13,6.068,332,-0.352,1.983,9.413,1
450,35.33189498,-97.42381949,170.4,21.55,6.068,332,-0.405,1.967,9.478,1
451,35.33170332,-97.42377712,171.5,21.96,6.068,332,-0.198,1.926,9.491,1
452,35.33149388,-97.42374764,173.2,22.41,6.068,331,-0.066,1.918,9.441,1
453,35.33127831,-97.42373719,174.1,22.79,6.068,333,-0.147,1.919,9.493,1
454,35.33106244,-97.42371708,175.8,23.32,6.068,332,-0.1,1.922,9.527,1
455,35.33083968,-97.42370581,176.9,23.68,6.068,332,-0.162,1.931,9.623,1
456,35.33062017,-97.42369816,177.7,23.92,6.068,332,-0.058,1.935,9.577,1
457,35.33041848,-97.42368799,179.2,24.03,7.585,332,-0.276,1.939,9.649,1
458,35.33019759,-97.42368033,179.1,24.28,7.585,332,-0.608,1.917,9.688,0
459,35.32997401,-97.42368062,179.1,24.18,7.585,332,-0.572,1.765,9.664,0
460,35.32976339,-97.42366709,179.7,23.83,9.101999,332,-0.382,1.718,9.736,0
461,35.3295431,-97.42367695,180.5,23.88,10.6189995,333,-0.489,1.925,9.607,0
462,35.32931952,-97.42366757,180.2,23.89,10.6189995,333,-0.396,1.984,9.505,0
463,35.32909986,-97.42367614,180.6,23.78,9.101999,333,-0.539,2.014,9.434,0
464,35.32887705,-97.42366422,179.9,23.77,7.585,333,-0.594,2.025,9.364,0
465,35.32865369,-97.42365838,179.9,23.8,7.585,334,-0.501,2.053,9.318,0
466,35.32844458,-97.42366692,180.1,23.9,7.585,334,-0.467,2.071,9.372,1
467,35.32822912,-97.42366718,180.1,23.9,10.6189995,334,-0.537,2.031,9.337,1
468,35.32799742,-97.42366362,179.9,24.1,9.101999,334,-0.59,2.013,9.411,1
469,35.32778035,-97.42365628,179.6,24.37,9.101999,335,-0.586,1.988,9.467,1
470,35.32756061,-97.42365205,180,24.25,7.585,335,-0.547,1.963,9.463,1
471,35.32734774,-97.42365756,179.4,24.38,9.101999,334,-0.499,1.968,9.468,1
472,35.32712032,-97.42366608,180,24.46,9.101999,334,-0.573,1.934,9.472,1
473,35.32689983,-97.42366616,180,24.46,10.6189995,329,-0.554,1.913,9.486,1
474,35.32666665,-97.42366055,180,24.67,9.101999,331,-0.578,1.85,9.503,1
475,35.32644767,-97.42364814,180.1,24.47,7.585,332,-0.518,1.342,9.633,1
476,35.32624617,-97.42364869,180.1,23.41,9.101999,334,-0.508,0.935,9.672,1
477,35.3260291,-97.42365805,180.2,22.69,7.585,335,-0.557,1.181,9.632,1
478,35.32582691,-97.42365302,180,22.44,9.101999,336,-0.559,1.589,9.451,1
479,35.32562471,-97.4236528,179.9,22.43,10.6189995,336,-0.558,1.711,9.413,1
480,35.3254677,-97.42365585,180,22.17,7.585,336,-0.563,1.784,9.41,1
481,35.32526978,-97.42365392,180.1,22.11,7.585,336,-0.491,1.781,9.432,1
482,35.32507051,-97.42365413,180.1,22.1,9.101999,336,-0.537,1.787,9.537,1
483,35.32485942,-97.4236546,179.8,22.55,7.585,337,-0.602,1.74,9.489,1
484,35.32466405,-97.42364053,179.6,22.5,7.585,337,-0.548,1.71,9.554,1
485,35.32446244,-97.4236213,179.4,22.71,7.585,335,-0.508,1.655,9.529,1
486,35.32424828,-97.42362072,179.8,22.78,9.101999,335,-0.527,1.633,9.55,1
487,35.32404658,-97.42360373,179.8,22.54,7.585,335,-0.559,1.616,9.526,1
488,35.32385357,-97.42359406,179.6,22.47,7.585,335,-0.377,1.502,9.555,1
490,35.32366237,-97.42358419,180.1,22.23,6.068,334,-0.457,1.491,9.561,1
491,35.32345748,-97.42359119,179.9,22.19,6.068,335,-0.529,1.452,9.606,1
492,35.32326482,-97.42360032,180.2,21.88,6.068,335,-0.366,1.431,9.644,1
493,35.32305149,-97.42361265,180.1,21.72,6.068,333,-0.539,1.429,9.602,1
494,35.32286533,-97.42361348,180,21.43,7.585,334,-0.553,1.423,9.584,1
495,35.32269511,-97.4236247,179.9,21.05,7.585,333,-0.4,1.421,9.59,1
496,35.32250539,-97.42362445,179.9,21.04,9.101999,333,-0.53,1.423,9.604,1
497,35.32230651,-97.42362247,180,20.89,9.101999,332,-0.581,1.416,9.572,1
498,35.32213024,-97.42362956,180,20.42,9.101999,332,-0.558,1.37,9.626,1
499,35.32194621,-97.42362961,180,20.41,13.653,332,-0.382,1.028,9.739,1
500,35.32173503,-97.42361752,179.2,20.08,10.6189995,332,-0.395,0.508,9.824,1
501,35.32155407,-97.42361459,179.2,20.07,13.653,332,-0.537,0.715,9.782,1
502,35.32142582,-97.42362383,180.4,17.02,10.6189995,333,-0.52,0.697,9.794,1
503,35.32127243,-97.42362499,180.4,17.01,12.136,333,-0.539,0.685,9.785,1
504,35.32115405,-97.4236382,180,15.4,9.101999,335,-0.529,0.515,9.774,1
505,35.32101521,-97.42363825,180,15.4,12.136,335,-0.494,0.542,9.773,1
506,35.32092275,-97.42363475,180.8,12.86,9.101999,332,-0.464,0.586,9.772,1
507,35.32080684,-97.42363669,180.8,12.86,10.6189995,332,-0.451,0.752,9.779,1
508,35.32071243,-97.42362777,181.2,10.9,7.585,331,-0.42,0.788,9.745,1
509,35.32061416,-97.42363029,181.2,10.9,10.6189995,331,-0.467,0.831,9.75,1
510,35.3205282,-97.42363747,181.7,9.33,7.585,330,-0.489,0.886,9.728,1
511,35.32044415,-97.42364055,181.7,9.32,9.101999,330,-0.553,1.366,9.597,1
512,35.32037568,-97.42360598,180.8,8.33,7.585,327,-0.507,0.689,9.771,1
513,35.32030057,-97.42360724,180.8,8.33,10.6189995,327,-0.479,0.59,9.791,1
514,35.3202619,-97.42359541,178.7,6.67,9.101999,327,-0.434,0.445,9.835,1
515,35.32020179,-97.4235937,178.7,6.67,12.136,327,-0.454,1.161,9.673,1
516,35.32019466,-97.42361907,180.7,4.57,9.101999,327,-0.503,2.704,9.271,1
517,35.32014446,-97.42361882,179.9,6.12,7.585,328,-0.493,2.202,9.407,1
518,35.3200905,-97.42361775,180.1,6.44,9.101999,325,-0.492,2.507,9.31,1
519,35.32002246,-97.4236201,180.6,7.39,9.101999,325,-0.519,2.58,9.305,1
520,35.31994372,-97.42362177,181.4,8.24,9.101999,325,-0.525,2.548,9.286,1
521,35.31983911,-97.42362599,180.1,9.58,9.101999,327,-0.488,2.574,9.345,1
522,35.31975746,-97.42362126,179.7,10.19,9.101999,327,-0.413,2.596,9.276,1
523,35.31966042,-97.42360828,178.1,10.77,16.687,326,-0.502,2.746,9.274,1
524,35.31954206,-97.42359989,180.3,12.44,16.687,325,-0.604,2.731,9.267,1
525,35.3194281,-97.42361583,180,13.39,10.6189995,325,-0.613,2.691,9.244,1
526,35.31928716,-97.42362178,178.8,15.26,10.6189995,325,-0.53,2.647,9.289,1
527,35.31916313,-97.42362848,180,15.65,10.6189995,324,-0.452,2.569,9.25,1
528,35.318981,-97.42361484,179.4,17.32,12.136,324,-0.442,2.363,9.5,1
529,35.31880456,-97.42361516,178.9,18.16,12.136,324,-0.374,2.281,9.328,1
530,35.31863391,-97.42361762,179.2,18.86,12.136,324,-0.363,2.363,9.264,1
531,35.31846446,-97.42361832,180.7,19.15,12.136,324,-0.496,2.48,9.34,1
532,35.3182793,-97.42362076,180.6,20.11,13.653,324,-0.532,2.472,9.408,1
533,35.31809545,-97.42361299,180.6,20.76,13.653,322,-0.556,2.409,9.528,1
534,35.31772687,-97.42362965,180.1,22.3,10.6189995,321,-0.487,1.837,9.526,1
535,35.3175182,-97.42363178,180.1,22.57,10.6189995,322,-0.519,1.781,9.481,1
536,35.31729846,-97.42362327,180,23.04,10.6189995,322,-0.494,1.859,9.591,1
537,35.31709645,-97.42362722,180.3,23.02,10.6189995,321,-0.526,1.891,9.512,1
538,35.31688779,-97.42362336,180.3,23.02,9.101999,322,-0.558,1.592,9.492,1
539,35.31667622,-97.42362695,180.3,22.98,9.101999,323,-0.647,1.65,9.58,1
540,35.316469,-97.42363389,180,22.99,7.585,323,-0.605,1.667,9.573,1
541,35.3162608,-97.42363403,180,23.05,9.101999,325,-0.48,1.687,9.535,1
542,35.31606499,-97.42362001,179.8,22.93,7.585,323,-0.46,1.758,9.495,1
543,35.31585126,-97.42361486,179.8,23.24,7.585,323,-0.523,1.895,9.51,1
544,35.31564172,-97.42361418,179.8,23.24,9.101999,323,-0.555,1.619,9.512,1
545,35.31543983,-97.42360141,180,23.27,7.585,322,-0.638,1.776,9.517,1
546,35.31526063,-97.42362461,180.2,23.22,7.585,319,-0.489,1.564,9.571,1
547,35.31503099,-97.42362113,180.2,23.1,7.585,319,-0.554,1.432,9.566,1
548,35.31482575,-97.42362314,180.1,22.96,7.585,318,-0.457,1.576,9.581,1
549,35.31462084,-97.42361679,179.8,22.95,9.101999,317,-0.509,1.731,9.528,1
550,35.31441396,-97.42361585,179.8,22.95,12.136,317,-0.494,1.842,9.578,1
551,35.31419201,-97.42361307,180,23.46,10.6189995,321,-0.491,1.74,9.478,1
552,35.31398264,-97.42360989,179.6,23.25,10.6189995,320,-0.548,1.851,9.602,1
553,35.31376486,-97.42360514,179.8,23.4,10.6189995,320,-0.479,1.761,9.559,1
554,35.31354531,-97.42362563,180.3,23.44,10.6189995,320,-0.545,1.781,9.601,1
555,35.313311,-97.42362797,179.8,23.47,12.136,322,-0.551,1.556,9.611,1
556,35.31310629,-97.42362997,179.7,23.07,10.6189995,322,-0.47,1.626,9.594,1
557,35.31290747,-97.42363892,180.2,22.71,12.136,322,-0.527,1.745,9.475,1
558,35.31267684,-97.42362885,179.9,22.83,10.6189995,324,-0.596,1.741,9.39,1
559,35.31249099,-97.42363446,180.1,22.64,7.585,324,-0.576,1.739,9.409,1
560,35.31226316,-97.42362594,180,22.73,7.585,324,-0.549,1.775,9.447,1
561,35.31204465,-97.42362854,180,22.85,7.585,323,-0.496,1.692,9.476,1
562,35.31186648,-97.42363238,180.1,22.48,7.585,324,-0.473,1.65,9.458,1
563,35.31166101,-97.42362225,179.9,22.61,7.585,323,-0.436,1.697,9.626,1
564,35.31145258,-97.42361219,179.9,22.58,7.585,323,-0.548,1.605,9.78,1
565,35.31124016,-97.42360924,179.8,22.46,9.101999,322,-0.553,1.492,9.716,1
566,35.3110545,-97.42361089,179.9,21.83,9.101999,321,-0.463,1.62,9.642,1
567,35.31088576,-97.42360059,179.5,21.4,9.101999,320,-0.514,1.845,9.574,1
568,35.31069155,-97.42359569,179.6,21.62,9.101999,319,-0.354,1.923,9.517,1
569,35.31049844,-97.42360154,180.1,21.73,9.101999,319,-0.404,1.965,9.537,1
570,35.31028051,-97.42361198,180.2,21.83,9.101999,319,-0.376,1.98,9.471,1
571,35.31008784,-97.42361179,179.9,21.69,10.6189995,318,-0.466,1.894,9.501,1
572,35.30990419,-97.42361143,179.5,21.49,10.6189995,318,-0.404,1.971,9.478,1
573,35.30971431,-97.42360974,179.9,21.57,10.6189995,319,-0.365,1.959,9.467,1
574,35.30951448,-97.42361459,180,21.75,12.136,319,-0.328,1.979,9.515,1
575,35.30935636,-97.42360653,179.5,21,13.653,318,-0.4,1.956,9.501,1
576,35.30914007,-97.42361323,180.1,21.66,12.136,318,-0.468,1.945,9.447,1
577,35.3089568,-97.42360649,180,21.36,12.136,317,-0.542,1.992,9.448,1
579,35.30876302,-97.42359643,179.6,21.47,10.6189995,318,-0.491,2.256,9.335,1
580,35.30854581,-97.4235995,179.7,22.09,10.6189995,319,-0.496,2.344,9.211,1
581,35.30834743,-97.42360657,180.2,22.32,10.6189995,320,-0.463,2.211,9.321,1
582,35.30812824,-97.42361009,180,22.85,10.6189995,321,-0.522,2.189,9.297,1
583,35.30790895,-97.42363805,180.4,23.09,10.6189995,318,-0.602,2.177,9.34,1
584,35.30769651,-97.42363725,180.1,23.41,12.136,319,-0.587,2.355,9.232,1
585,35.30748552,-97.4236378,180.1,23.4,15.17,319,-0.44,2.145,9.378,1
586,35.30724266,-97.42361519,179.8,24.48,10.6189995,318,-0.479,1.754,9.571,1
587,35.30704861,-97.42363219,180.3,24.29,10.6189995,324,-0.443,1.581,9.602,1
588,35.30682967,-97.42363367,180.3,24.29,13.653,324,-0.29,1.45,9.59,1
589,35.30662809,-97.42360177,180,24.15,10.6189995,322,-0.307,1.404,9.612,1
590,35.30641043,-97.42360185,180,24.14,13.653,322,-0.409,1.399,9.63,1
591,35.30619961,-97.42361388,180.7,23.45,9.101999,322,-0.331,1.439,9.559,1
592,35.30598826,-97.42361709,180.7,23.45,10.6189995,322,-0.43,1.768,9.449,1
593,35.30579392,-97.42361221,180.8,23.23,9.101999,320,-0.378,1.678,9.627,1
594,35.30558459,-97.42361599,180.8,23.22,12.136,320,-0.347,1.696,9.663,1
595,35.30537083,-97.42358051,180,23.18,7.585,317,-0.388,1.61,9.63,1
596,35.30516191,-97.42358028,180,23.17,10.6189995,317,-0.404,1.884,9.457,1
597,35.30495979,-97.42359253,180.3,23.13,9.101999,316,-0.474,1.863,9.5,1
598,35.30475132,-97.42359374,180.3,23.13,12.136,316,-0.683,2.156,9.288,1
599,35.30452666,-97.4236119,179.6,23.67,7.585,317,-0.525,2.292,9.345,1
600,35.30431331,-97.42361024,179.6,23.67,9.101999,317,-0.33,2.039,9.442,1
