time,lat,lng,bearing,spd,acc,alt,accx,accy,accz,stable
0,35.34674902,-97.47549006,279.5,3.323387,5,348,8.348,0.986,-4.918,0
1,35.34675249,-97.47555669,279.6,3.9708061,5,348,8.309,0.486,-4.861,0
2,35.34677243,-97.4756066,278.8,4.110012,5,348,8.244,0.387,-5.1,1
3,35.34678425,-97.47565342,282.5,3.790013,6,349,8.274,0.142,-4.912,1
4,35.34679468,-97.47569546,277.8,3.8113122,6,348,8.257,0.303,-5.035,1
5,35.34680783,-97.47574636,282.6,3.820327,6,350,8.264,0.73,-5.053,1
6,35.34682294,-97.47579021,289,4.01,6,350,8.1,0.858,-5.385,1
7,35.34683872,-97.47587049,283.8,4.0300126,6,345,8.477,0.887,-5.035,1
8,35.34684912,-97.47592289,288.9,4.3501034,6,346,8.413,0.833,-5.164,1
9,35.34685214,-97.47596682,286.6,4.23,7,347,8.253,0.964,-5.195,1
10,35.3468655,-97.47601751,289.3,4.74,7,347,8.379,0.861,-4.901,1
11,35.34688554,-97.47606751,290.6,4.8312526,6,347,8.84,0.497,-4.081,1
12,35.34691463,-97.4761303,285.3,5.18,6,345,8.826,0.488,-3.608,1
13,35.34694106,-97.47619638,282,5.440331,6,347,8.85,0.441,-4.113,1
14,35.34697164,-97.4762758,280.1,5.9502096,6,350,8.262,0.794,-4.879,1
15,35.34699131,-97.47633879,279.7,5.970008,7,349,8.415,0.468,-5.092,1
16,35.34699698,-97.47640515,277.9,5.840548,7,351,8.263,0.584,-4.734,1
17,35.34700871,-97.47646542,278.6,5.8100777,8,351,8.089,-0.651,-5.193,1
18,35.34703583,-97.47655756,283,6.31,10,351,8.145,-0.022,-4.923,1
19,35.34704219,-97.47660763,283,5.85,12,350,8.527,1.164,-4.815,1
20,35.34702153,-97.47666207,275.8,5.520009,14,350,8.495,1.275,-4.862,1
21,35.34697935,-97.47664947,262.5,4.140048,15,350,8.314,0.948,-4.951,1
22,35.34699751,-97.4766419,269.5,3.13,14,352,8.386,0.575,-4.941,1
23,35.34704656,-97.47668186,274.6,3.6739624,10,353,8.317,0.688,-4.905,1
24,35.34701185,-97.47667697,262.1,2.4924285,9,354,8.457,0.727,-4.737,1
25,35.34701991,-97.47669361,278.2,2.0312064,9,355,8.136,0.093,-5.102,1
26,35.34703065,-97.47671709,292,1.5394155,8,355,8.204,0.29,-5.115,1
27,35.34703647,-97.47669781,308.6,0.67416614,8,356,8.217,0.413,-5.127,1
28,35.34705285,-97.47671318,303.5,0.6726812,8,355,8.263,0.378,-5.096,1
30,35.34704528,-97.47670445,202.2,0.24515301,8,356,8.271,0.627,-5.055,1
31,35.34704689,-97.47673466,173,0.54120237,7,356,8.478,1.713,-4.949,1
32,35.34704689,-97.47673466,173,0.54120237,7,356,7.804,2.022,-6.59,0
33,35.34705337,-97.47675405,280.8,2.4110165,6,348,6.624,2.102,-7.896,0
34,35.34705626,-97.47678376,280.4,2.32,10,351,7.046,2.15,-7.197,0
35,35.34708621,-97.47681157,317.9,4.8901634,10,352,8.365,1.931,-5.207,0
36,35.34718711,-97.47681821,350.7,5.09,10,354,8.77,1.619,-4.31,0
37,35.34723865,-97.47680501,356.5,5.753834,10,354,8.699,1.369,-4.201,0
38,35.34732537,-97.47683248,358.6,7.191363,10,352,8.859,-0.046,-4.211,0
39,35.34740769,-97.47682427,0.5,7.9300566,10,351,8.543,0.188,-4.841,0
40,35.34750404,-97.47681763,0.2,8.7900915,11,352,8.394,-0.474,-4.517,0
41,35.34758946,-97.47682822,0.1,8.9400215,11,351,8.337,-1.372,-4.379,0
42,35.34771331,-97.47680884,2.8,9.980124,12,350,8.365,-1.833,-4.778,0
43,35.34782555,-97.47679122,8.2,8.06,13,347,8.441,-1.297,-4.498,1
44,35.34799316,-97.4767408,10.1,10.100005,13,347,8.657,-0.325,-4.422,1
45,35.34805008,-97.47665428,17.7,8.68,13,346,8.544,0.595,-4.607,1
46,35.34802967,-97.47673787,2.1,5.7505565,12,345,8.744,1.431,-4.438,1
47,35.348038,-97.47676718,358.1,5.16,11,344,8.697,1.325,-4.514,1
48,35.34804878,-97.47681592,357.6,5.212456,11,340,8.487,1.185,-4.574,1
49,35.34805544,-97.47683467,357.6,5.271603,11,339,8.521,1.13,-4.619,1
50,35.34812221,-97.47682502,359.4,7.3319707,11,339,8.671,1.081,-4.704,1
51,35.34821057,-97.47685213,358.2,8.063573,11,337,8.747,0.6,-4.542,1
52,35.3482818,-97.47685733,358.9,8.230607,11,337,8.449,0.638,-4.538,1
53,35.34842408,-97.47686325,357.3,9.380021,11,339,8.538,0.455,-4.387,1
54,35.34848408,-97.4768529,359.4,8.82,11,338,8.414,0.446,-4.426,1
55,35.3485595,-97.47683808,359.9,9.040089,10,339,8.344,-0.298,-4.576,1
56,35.34865802,-97.47683605,358.9,8.22,10,340,7.766,-0.385,-5.328,1
57,35.34872289,-97.47682932,3,7.390061,10,340,6.458,-0.115,-7.762,0
58,35.3487727,-97.47679131,26.6,6.240969,10,343,6.317,1.242,-8.273,0
59,35.34881826,-97.47672299,54.5,6.3513303,10,342,6.885,1.994,-7.921,0
60,35.34883091,-97.47664031,74.2,7.5701056,10,343,7.469,1.727,-6.27,0
61,35.34884483,-97.47652587,82.6,9.34,10,343,8.108,1.56,-6.022,0
62,35.34883069,-97.47639635,88.7,11.05,10,341,8.3,1.274,-5.388,0
63,35.34882842,-97.47625952,90.7,11.931073,10,341,8.517,1.161,-4.965,0
64,35.34882299,-97.47611184,90.1,13.331215,10,341,8.498,1.09,-4.652,0
65,35.34882564,-97.47595106,88.9,14.160014,10,341,8.481,0.773,-4.758,0
66,35.34883103,-97.47578187,88.9,15.170013,10,341,8.422,0.81,-5.119,0
68,35.34883466,-97.47561014,87.7,15.25003,10,342,8.421,0.839,-5.508,0
69,35.34883626,-97.47542267,90.1,15.830382,10,341,8.672,0.73,-5.16,0
70,35.34881494,-97.475236,91.8,16.530077,10,341,8.404,0.743,-4.663,0
71,35.34880943,-97.47505259,89.8,16.890001,10,340,8.381,0.674,-4.708,0
72,35.34880504,-97.47486743,89.7,16.820358,10,341,8.502,0.586,-5.372,0
73,35.3488049,-97.47466563,90.3,17.81028,10,342,8.031,0.268,-4.705,0
74,35.348788,-97.47446806,91.6,17.870138,10,342,8.206,-0.071,-4.557,0
75,35.3488023,-97.47426554,90.4,17.860548,10,341,8.062,-0.148,-4.638,0
76,35.34878988,-97.47406634,89,17.810137,10,342,8.369,-0.221,-5.054,0
77,35.34878825,-97.47386928,90.3,17.531643,10,342,8.23,-0.213,-4.731,0
78,35.34878996,-97.47368092,91.3,17.140419,10,342,8.283,-0.159,-4.903,0
79,35.34878968,-97.47348389,90.4,17.61092,10,343,8.438,-0.249,-4.693,0
80,35.34877941,-97.47328908,90.8,17.890806,10,342,8.524,-0.114,-4.781,1
81,35.34877365,-97.47310052,90.8,17.350142,10,342,8.169,-0.208,-4.646,0
82,35.34877401,-97.47291361,90.7,17.324167,10,340,8.326,-0.106,-4.552,0
83,35.34877163,-97.47251364,91,17.31,10,339,8.171,-0.121,-4.55,0
84,35.3487546,-97.47233624,91.2,16.900854,10,340,8.488,-0.109,-5.018,0
85,35.34876105,-97.47215761,89.5,16.480011,10,340,8.107,-0.162,-4.856,0
86,35.34875733,-97.47196979,90,16.820145,10,340,8.233,0.203,-4.781,0
87,35.34876152,-97.47178012,90.6,16.800001,10,340,8.253,0.231,-4.898,0
88,35.34875657,-97.47159393,90.5,16.680002,10,339,7.624,0.357,-4.757,0
89,35.34874942,-97.47140401,91.3,16.950357,10,339,8.648,0.413,-5.318,0
90,35.34874606,-97.47122365,91.5,17.370565,10,339,8.877,0.397,-5.195,0
91,35.34874036,-97.47102161,90.6,17.631372,10,339,8.502,0.533,-4.815,0
92,35.34873699,-97.47081904,90.2,18.410273,10,339,8.338,0.471,-5.116,0
93,35.34873709,-97.47062708,90.5,18.060276,10,339,8.377,0.511,-5.268,0
94,35.34871967,-97.47042181,90.3,18.850214,10,339,8.332,0.543,-5.171,0
95,35.34872105,-97.47020733,91.1,19.090094,10,339,8.297,0.44,-4.925,0
96,35.34872192,-97.46999057,90.7,19.680023,10,337,8.491,0.373,-4.397,0
97,35.34872318,-97.46977947,90.5,19.29044,10,337,8.423,0.14,-4.756,0
98,35.34873432,-97.46957473,90,18.970592,10,335,8.562,-0.088,-5.055,0
99,35.34873934,-97.46937491,90,18.69,10,335,8.454,-0.017,-5.499,0
100,35.34875728,-97.46917219,89.5,18.560009,10,336,8.325,0.287,-5.194,0
101,35.34874255,-97.4689859,91.6,17.770227,10,337,8.393,0.255,-4.77,0
102,35.34873893,-97.46878742,92.5,17.660917,10,336,8.405,0.312,-4.534,0
103,35.34871854,-97.46859238,91.6,17.47001,10,336,8.597,0.896,-4.591,0
104,35.34872003,-97.46839351,91,18.020803,10,336,8.555,1.095,-4.672,0
105,35.34870969,-97.468188,91.7,18.730385,10,337,8.332,0.871,-4.355,0
106,35.34870077,-97.46796513,91.2,19.490091,10,337,8.641,-0.032,-4.345,0
107,35.34870918,-97.46774893,90,19.40031,10,338,8.302,-0.11,-4.798,1
108,35.34870754,-97.46753469,88,19.470022,10,338,8.203,-0.06,-5.159,1
109,35.34870077,-97.46732318,89.8,19.380127,10,338,8.08,0.013,-5.367,1
110,35.34869681,-97.46711505,91.9,18.960213,10,338,8.268,-0.14,-4.751,1
111,35.34869233,-97.46691155,90.4,18.741291,10,338,8.399,-0.193,-4.939,1
112,35.34869146,-97.46669934,90.6,18.690386,10,339,8.276,-0.113,-4.999,1
114,35.34869572,-97.46651093,89.4,17.970278,10,339,8.186,-0.019,-5.297,1
115,35.34869129,-97.46632334,91.3,17.500002,10,340,7.996,-0.009,-5.338,1
116,35.34868195,-97.46613364,92.6,17.080011,10,341,8.231,-0.04,-4.344,1
117,35.34866881,-97.46594921,92.7,17.08,10,342,8.646,-0.27,-4.63,0
118,35.34866501,-97.46577255,91.8,16.421904,10,341,8.63,0.147,-4.881,0
119,35.34865141,-97.46560251,91.6,16.072617,10,341,8.632,0.405,-4.713,0
120,35.34865033,-97.46542802,90.3,15.852301,10,342,8.165,0.481,-4.968,0
121,35.34864686,-97.46525468,90.8,16.14124,10,342,8.409,0.448,-4.269,0
122,35.34865769,-97.46506946,89.2,16.33015,10,342,8.27,0.411,-4.729,0
123,35.34866364,-97.46489983,88.7,16.280197,10,342,7.953,0.641,-4.974,0
124,35.34867012,-97.4647102,89.4,17.22,10,342,8.288,0.61,-4.722,1
125,35.34865863,-97.46452012,90.5,17.480183,10,342,8.197,0.64,-5.091,1
126,35.34867473,-97.46431262,89.6,17.991112,10,341,8.172,0.506,-4.748,1
127,35.34867032,-97.46410128,90.3,18.32214,10,340,8.311,0.094,-4.841,1
128,35.34867032,-97.46388948,89.5,18.812553,10,339,8.296,-0.051,-4.889,1
129,35.34867591,-97.46367701,89.7,19.122513,10,339,8.434,-0.15,-4.924,0
130,35.34866718,-97.46326071,90.4,18.99076,10,339,8.317,-0.206,-4.881,0
131,35.34866453,-97.46305333,90.4,18.84,10,338,8.415,0.037,-4.785,0
132,35.34865849,-97.4628547,90.9,18.790012,10,338,8.338,0.288,-4.936,0
133,35.34865283,-97.46266347,91.3,18.460133,10,337,8.789,0.455,-4.854,0
134,35.34864485,-97.46244299,91.3,18.870321,10,338,8.713,0.4,-4.556,0
135,35.34863919,-97.46222774,91.3,19.000095,10,338,8.73,0.527,-5.236,0
136,35.34863563,-97.46202765,91.2,18.630968,10,339,8.477,0.444,-4.735,0
137,35.34862495,-97.46181901,91.5,18.552113,10,339,8.41,0.325,-4.72,0
138,35.34863705,-97.46161794,91,18.134863,10,337,8.413,0.213,-4.947,0
139,35.34864742,-97.46143619,89.9,17.362423,10,336,8.236,0.254,-4.947,0
140,35.34864802,-97.46126244,91.4,16.592712,10,335,8.327,0.226,-4.854,0
141,35.348653,-97.46109631,90.7,16.147436,10,336,8.137,0.259,-4.969,0
142,35.34865127,-97.46093932,88.8,15.156388,10,335,8.238,0.257,-4.823,0
143,35.34865919,-97.46077398,90.3,14.65418,10,334,8.261,0.208,-4.927,1
144,35.3486568,-97.46062556,90.1,13.740713,10,335,8.328,0.186,-4.936,1
145,35.34864412,-97.46047574,91.9,13.210742,10,336,8.455,0.525,-4.877,1
146,35.34863351,-97.46033325,92.2,13.020984,10,336,8.253,0.083,-4.976,1
147,35.34863239,-97.46019692,94.1,12.440904,10,336,8.273,0.053,-5.013,1
148,35.34862505,-97.46006119,93.6,12.120004,10,336,8.281,-0.253,-4.822,1
149,35.34862735,-97.45993847,92.4,11.810039,11,335,8.313,0.135,-4.653,1
150,35.34862179,-97.45983803,92.2,10.310122,10,335,8.417,0.259,-4.866,1
151,35.34862831,-97.45971093,90.6,9.980245,10,335,8.256,-0.264,-4.894,1
152,35.34865003,-97.45962716,89,9.190658,10,336,8.254,-1.162,-5.192,1
153,35.34864692,-97.45955125,93.2,7.28044,10,336,8.13,-1.437,-5.062,1
154,35.34864387,-97.45949337,93.5,5.4936414,10,336,8.059,-1.789,-5.154,1
155,35.34863968,-97.45945212,90.6,4.1044,10,336,8.14,-1.688,-5.028,1
156,35.34862685,-97.45943504,91.3,1.9151239,10,336,8.542,1.837,-4.71,1
157,35.34861974,-97.45941974,91.5,1.7341568,10,336,8.755,3.264,-4.378,0
158,35.34862214,-97.459361,87.7,4.831749,10,336,8.608,2.998,-4.392,0
159,35.34860754,-97.45926852,92.8,7.195068,10,337,8.707,3.01,-4.273,0
160,35.34859902,-97.45914661,91,9.89,10,337,8.451,2.003,-4.457,0
161,35.34860492,-97.45900932,89.1,11.790068,10,339,8.777,1.518,-4.779,0
163,35.3486022,-97.45885658,89.9,13.5002365,10,340,8.89,0.884,-4.632,0
164,35.34859544,-97.45869443,90.5,14.500169,10,339,8.531,0.602,-4.519,0
165,35.34860315,-97.45852666,89.4,14.650873,10,337,8.531,0.386,-4.531,0
166,35.34858362,-97.45836938,91.6,14.650413,10,337,8.963,0.415,-5.151,0
167,35.34858055,-97.4582083,90.5,15.470207,10,337,8.662,0.27,-4.889,0
168,35.34858479,-97.45803761,89.9,15.140082,10,338,8.216,0.431,-4.796,0
169,35.34858486,-97.4578758,88.3,15.270082,10,339,8.539,0.511,-4.977,0
170,35.34859567,-97.45770937,88,15.300082,10,338,8.242,0.478,-4.769,0
171,35.34860209,-97.45753607,87.9,15.440029,11,339,8.102,0.42,-4.412,0
172,35.34863139,-97.45737521,85.6,15.050332,12,335,8.343,0.249,-4.47,0
173,35.34862072,-97.45720391,87.9,15.150053,13,335,8.434,0.092,-4.776,0
174,35.34861165,-97.45706219,89.4,14.62,14,334,7.984,0.381,-4.883,0
175,35.34863775,-97.45687106,89.7,14.600055,12,333,8.439,0.269,-4.385,1
176,35.34864694,-97.45669996,91.2,14.250284,11,332,8.513,0.069,-4.742,1
177,35.34864535,-97.45655123,89.1,14.060356,11,332,8.243,0.502,-4.595,1
178,35.34865947,-97.45641585,89.4,14.090057,11,332,8.532,0.786,-4.923,0
179,35.34869605,-97.45608613,89.8,15.760385,11,332,8.523,0.959,-4.606,0
180,35.34870702,-97.45592713,89,16.320307,11,333,7.988,0.222,-4.699,0
181,35.34869061,-97.4557515,90.7,16.450111,11,334,8.114,0.019,-4.889,0
182,35.34869124,-97.45557056,90.3,16.610075,11,334,8.319,-0.025,-4.638,0
183,35.34868944,-97.45539588,89.7,16.280111,10,334,8.568,-0.108,-4.889,0
184,35.34867194,-97.45521414,89.7,16.142094,10,335,8.602,0.487,-4.777,0
185,35.34867842,-97.4550295,89.3,16.500011,11,334,8.362,0.279,-4.624,0
186,35.34869186,-97.454842,90.3,16.510027,10,335,8.176,0.237,-4.127,0
187,35.3487034,-97.45465219,88.9,16.520002,10,335,8.341,0.445,-4.622,0
188,35.34868923,-97.4544769,89,17.251669,10,332,8.414,0.513,-4.179,0
189,35.34872664,-97.45427735,87.6,17.51056,11,328,8.539,0.513,-4.724,0
190,35.34871582,-97.45406734,88.6,18.660269,11,327,8.707,0.501,-4.636,0
191,35.34871143,-97.45385367,89.1,18.920023,11,328,8.654,0.16,-4.81,0
192,35.3487195,-97.45363396,88.9,19.800001,11,327,8.676,-0.124,-4.745,0
193,35.34873267,-97.45340984,87.7,20.4502,11,325,8.545,-0.192,-4.646,0
194,35.3487253,-97.4531746,88,20.840002,11,326,8.903,0.01,-4.748,0
195,35.34872742,-97.45292851,87.3,21.27001,11,326,8.971,0.321,-5.309,0
196,35.34872754,-97.45269357,87.4,21.3006,11,326,8.847,0.407,-4.934,0
197,35.34874031,-97.45246396,86.9,20.760118,11,326,8.348,0.631,-4.772,0
198,35.34873709,-97.45224763,87.7,20.590878,11,327,8.491,0.564,-4.964,0
199,35.34873055,-97.4520292,89.3,20.550087,10,329,8.34,0.417,-5.039,0
200,35.34873715,-97.45179858,89.2,20.600021,11,329,8.615,0.656,-5.196,0
201,35.3487228,-97.45157008,90.5,20.800117,12,330,8.472,0.733,-5.122,0
202,35.3487277,-97.45133697,89.7,21.003086,11,331,8.392,0.649,-4.506,0
203,35.34871316,-97.45111322,89.4,21.024197,11,330,8.481,0.666,-4.448,0
204,35.34869598,-97.45089506,89.4,20.87188,10,330,8.322,0.598,-4.623,0
205,35.34868775,-97.45065992,90.8,21.074804,10,332,8.487,0.31,-4.717,0
206,35.34866922,-97.45043506,91.3,20.815767,10,333,8.392,0.305,-4.589,0
207,35.34867816,-97.45021259,89.4,20.103783,10,334,8.182,0.395,-4.868,0
208,35.34866539,-97.44998943,89.7,20.140804,10,335,8.247,0.458,-4.317,0
209,35.34866165,-97.4497594,89.6,20.31012,11,335,8.639,0.659,-4.729,1
210,35.34864017,-97.44952845,91.1,20.480038,12,336,8.324,0.661,-4.697,1
211,35.34864983,-97.44925855,90.1,21.6,13,335,8.46,0.641,-4.934,1
212,35.34867155,-97.44905994,88.1,20.220892,11,336,8.661,0.633,-4.857,0
214,35.34867572,-97.44884983,88.1,20.15042,12,338,8.419,0.731,-5.077,0
215,35.34868577,-97.44864582,88,19.880302,12,339,8.538,0.586,-4.904,0
216,35.34863963,-97.44844917,91.7,19.400166,13,339,8.267,0.554,-4.37,0
217,35.34864516,-97.44820083,88.6,20.791386,11,340,8.414,0.624,-4.462,0
218,35.34864205,-97.44797216,88.1,21.430058,11,341,8.579,0.63,-4.51,0
219,35.34864433,-97.44773737,88.3,21.510084,11,342,8.816,0.697,-4.716,0
220,35.34864952,-97.44750726,88.4,21.410002,11,342,8.369,0.658,-4.532,0
221,35.34870162,-97.44726465,85.3,21.76001,12,340,8.461,0.617,-4.629,0
222,35.3487151,-97.44705371,85.5,21.040154,13,341,8.468,0.639,-4.593,0
223,35.3487298,-97.44686002,85,20.121202,13,340,8.417,0.644,-4.719,0
224,35.3486948,-97.44661069,88.4,20.540245,14,341,8.565,0.466,-4.404,0
225,35.34870005,-97.44635902,88.4,21.550453,14,341,8.475,0.518,-4.364,0
226,35.34870259,-97.44608369,88.9,22.532566,13,343,8.685,0.622,-4.901,0
227,35.34873152,-97.44584745,88.6,22.601383,12,344,8.09,0.27,-4.727,1
228,35.34872637,-97.44561366,88.9,22.610567,13,343,8.529,0.235,-4.635,1
229,35.34872463,-97.44535127,89.3,22.78043,13,345,8.602,0.221,-4.453,1
230,35.34876137,-97.44488669,87.8,22.120274,14,348,8.677,0.196,-4.173,1
231,35.34880504,-97.4446473,86,22.330809,17,350,8.603,-0.01,-4.311,1
232,35.34877601,-97.44440703,90.1,21.214773,13,348,8.18,0.112,-4.225,1
233,35.34874964,-97.44416107,89.6,20.362839,12,348,7.891,0.024,-4.584,1
234,35.34874078,-97.44393522,90.6,19.930002,12,348,8.233,-0.809,-4.461,1
235,35.34877552,-97.44372625,89.2,18.900023,12,346,8.291,-0.691,-4.413,1
236,35.34878723,-97.4435226,89.3,17.771017,11,344,8.436,-0.407,-4.958,1
237,35.348775,-97.4433172,89.9,17.132988,11,344,8.663,-0.14,-4.747,1
238,35.34878289,-97.44311607,89.2,16.770967,11,344,8.228,-0.376,-4.878,0
239,35.34878108,-97.44291573,89,16.581736,11,343,8.773,-0.096,-5.031,0
240,35.34877026,-97.44274102,86.9,15.940078,11,345,8.796,0.111,-4.85,0
241,35.34879001,-97.44257585,89.5,15.730385,11,344,8.333,-0.361,-4.867,0
242,35.34879152,-97.44241591,88.9,15.130744,11,344,8.256,-0.812,-4.838,0
243,35.34878866,-97.44226599,88.9,13.671935,11,344,8.227,-1.179,-4.698,0
244,35.34879373,-97.44213539,88.2,12.560017,10,344,8.489,-0.176,-4.331,0
245,35.34879097,-97.44201426,87.3,11.670039,11,344,8.529,-0.509,-4.721,0
246,35.34879013,-97.44190644,88.8,10.770465,10,342,8.261,-1.247,-4.821,0
247,35.34878314,-97.44179927,88.6,9.71033,10,344,8.137,-1.869,-5.32,0
248,35.34877156,-97.44171912,92.9,7.8107743,11,345,8.222,-1.482,-4.952,0
249,35.34876548,-97.44168235,90.3,5.240238,10,345,8.216,-1.492,-4.967,0
250,35.34876648,-97.44165841,92.8,3.551704,10,346,8.207,-1.058,-4.996,0
251,35.34875776,-97.44163092,93.3,2.678003,11,346,8.396,0.137,-4.78,0
252,35.34876134,-97.44161298,86.5,2.102974,12,345,8.231,0.689,-4.712,0
253,35.34874633,-97.4416321,94.5,0.45099887,11,346,8.437,0.499,-4.689,0
254,35.3487461,-97.44161699,94.3,0.38118237,10,346,8.49,0.736,-4.651,1
255,35.3487461,-97.44161699,94.3,0.38118237,10,346,8.505,0.787,-4.645,1
256,35.3487461,-97.44161699,94.3,0.38118237,10,346,8.522,0.777,-4.649,1
257,35.3487461,-97.44161699,94.3,0.38118237,10,346,8.535,0.782,-4.648,1
258,35.3487461,-97.44161699,94.3,0.38118237,10,346,8.501,0.824,-4.652,1
259,35.34874317,-97.44160467,0,0,10,349,9.074,1.561,-4.289,0
260,35.34874973,-97.44162414,0,0,10,348,9.079,3.295,-3.958,0
261,35.34875127,-97.44161205,107.6,1.0834205,10,347,9.205,2.619,-4.119,0
262,35.34875075,-97.44150304,90.3,6.6224465,10,348,8.844,2.477,-3.633,0
264,35.34873564,-97.44141226,90.5,7.4732385,10,349,8.971,2.439,-4.032,0
265,35.3487298,-97.44130116,88.3,9.400532,10,350,9.097,2.017,-4.195,0
266,35.34874714,-97.44117271,85.1,10.800005,11,348,9.35,2.02,-4.379,0
267,35.34876698,-97.44098477,83.9,13.992233,11,347,9.133,2.152,-4.48,0
268,35.34877254,-97.44075106,86,16.751444,12,347,8.667,1.006,-4.605,0
269,35.34876252,-97.44052286,89.6,19.67043,11,348,8.672,0.808,-5.214,0
270,35.3487615,-97.44026952,89,20.99,10,347,8.366,-0.339,-4.581,0
271,35.34876051,-97.4400301,91.8,21.330397,10,347,8.703,-0.832,-5.365,0
272,35.34875752,-97.43980077,91.2,20.970772,10,348,8.374,-0.537,-3.562,0
273,35.34874835,-97.43956516,90.5,20.620039,10,348,8.284,-0.503,-4.166,0
274,35.34873885,-97.43936021,89.1,20.424116,10,346,8.058,-0.405,-4.468,0
275,35.34874083,-97.43912607,90.4,20.98137,10,346,8.355,-0.526,-5.019,0
276,35.34875197,-97.43889346,88.1,20.737032,10,344,8.616,-0.566,-5.21,0
277,35.34875329,-97.43865985,88.6,20.80096,11,344,8.573,-0.568,-4.804,0
278,35.34874565,-97.43842352,90.4,20.900957,11,339,8.371,-0.466,-4.689,0
279,35.34874602,-97.43819157,88.6,21.040403,11,340,8.008,-0.319,-4.855,0
280,35.34873249,-97.43795308,89.5,20.890116,11,339,9.391,-0.567,-4.41,0
281,35.34873189,-97.43772839,91.8,20.21006,11,339,8.097,-0.471,-4.276,0
282,35.34873699,-97.43729163,90.5,19.910303,11,341,7.716,-0.333,-3.82,0
283,35.34873731,-97.43708043,90.4,19.730062,11,342,9.067,-0.668,-4.299,0
284,35.34873161,-97.4368661,90.8,19.64,11,342,9.328,-0.185,-4.355,0
285,35.34873411,-97.43665748,90.5,19.751583,12,344,9.174,0.567,-4.589,0
286,35.34872878,-97.43643586,90.6,20.22109,12,345,7.875,0.646,-4.053,0
287,35.3487775,-97.43619272,88,20.29001,13,342,8.749,-0.09,-4.302,0
288,35.3487818,-97.43597724,87.7,19.730001,12,343,9.024,-0.019,-5.087,0
289,35.34879817,-97.43576697,89.3,19.68112,12,343,8.391,0.078,-4.773,0
290,35.34876355,-97.43555851,90.1,19.172045,11,344,8.414,0.167,-4.699,0
291,35.3487579,-97.43536829,90.8,19.408371,11,345,8.13,0.389,-4.934,0
292,35.34876692,-97.4351863,91,18.241999,11,345,7.55,-3.273,-5.284,0
293,35.34874932,-97.43502035,91.2,14.700085,10,345,7.833,-2.559,-5.162,0
294,35.34876184,-97.43490041,91.8,11.850512,10,345,8.466,-0.52,-4.768,0
295,35.34876977,-97.43477468,91,11.410005,10,347,8.442,0.538,-4.438,0
296,35.3487623,-97.43463902,88.7,12.210922,10,346,8.742,1.003,-4.776,0
297,35.34875146,-97.43448651,90.8,13.190003,10,345,8.659,1.023,-4.576,0
298,35.3487588,-97.43433121,90.5,14.191272,10,345,8.722,1.221,-4.767,0
299,35.34876209,-97.43416362,90.2,15.440828,10,345,8.84,0.948,-4.889,0
300,35.3487588,-97.43397052,89.7,16.18005,10,346,8.709,0.521,-4.666,0
301,35.34873392,-97.43379109,92.7,16.160078,10,347,8.476,0.029,-5.085,0
302,35.3487437,-97.43360707,91.7,16.820581,10,347,8.268,-0.037,-4.724,0
303,35.34873902,-97.43342793,91.5,16.751316,9,346,8.454,-0.028,-4.466,0
304,35.34873066,-97.43324394,91.6,16.951843,10,347,8.073,-0.178,-4.152,0
305,35.34872361,-97.43306812,91,15.941015,10,347,8.129,-0.051,-4.286,0
306,35.34871446,-97.43288107,91.2,16.151117,10,347,8.244,-0.057,-4.263,0
307,35.34870549,-97.43270829,92.1,15.8421335,10,347,8.273,0.002,-4.714,1
308,35.34871122,-97.43253525,91.1,15.650626,10,347,8.496,-0.051,-4.966,0
309,35.34871485,-97.43236778,90.5,15.32016,10,348,8.637,0.059,-5.038,0
310,35.34870202,-97.43220478,92,15.29003,10,349,8.105,-0.049,-4.525,0
311,35.34870437,-97.43204644,91.9,15.271182,10,350,8.355,-0.108,-4.754,0
312,35.34870417,-97.43187843,91.3,14.893438,10,350,8.033,-0.057,-4.758,0
313,35.34869881,-97.43171891,90.4,14.340171,10,351,8.161,0.01,-4.943,0
314,35.34869536,-97.43155654,92.3,14.45028,10,351,8.485,-0.156,-4.696,0
315,35.34869159,-97.43139937,90.9,14.280171,10,350,8.512,-0.191,-4.722,0
317,35.34868102,-97.43124325,90.6,14.070354,10,350,8.469,-0.17,-4.82,0
318,35.34867077,-97.43109227,90,14.410222,10,350,8.513,-0.208,-4.811,1
319,35.3486641,-97.4309299,90.7,14.240688,10,351,8.332,-0.283,-4.91,1
320,35.34865958,-97.43078238,90.4,14.010175,10,349,8.444,0.227,-4.687,1
321,35.34867561,-97.43062012,88.3,14.090089,10,348,8.205,0.603,-4.525,1
322,35.34865506,-97.43045345,90.6,14.744897,9,349,8.497,0.22,-4.582,1
323,35.34864881,-97.43029034,91.8,15.361301,9,348,8.18,-0.191,-4.2,1
324,35.34863926,-97.43011686,91.8,15.570542,9,349,8.119,-0.305,-4.822,1
325,35.34863862,-97.42993872,90.9,15.671688,9,348,8.106,-0.267,-4.777,1
326,35.34864082,-97.42978076,91.1,15.060851,10,347,8.46,-0.225,-4.785,1
327,35.34864228,-97.42961952,90.6,14.970334,10,348,8.486,0.126,-5.206,0
328,35.34865998,-97.42943222,88.6,16.130013,10,348,8.074,0.127,-4.398,0
329,35.34866334,-97.42923911,89.5,16.71036,10,348,7.989,-0.15,-4.436,0
330,35.34865537,-97.42906721,91,16.690432,10,348,8.342,-0.322,-5.533,0
331,35.34867336,-97.42887427,90.4,16.651323,10,344,8.352,-0.35,-4.564,0
332,35.3486762,-97.42869003,90,16.45088,10,344,8.776,-0.104,-4.422,0
333,35.34867138,-97.4285261,90,15.661035,11,344,8.483,-0.112,-3.96,0
334,35.34868301,-97.42834157,88.8,15.97053,12,346,9.065,-0.028,-4.63,0
335,35.34870959,-97.42791406,87.3,17.800226,11,345,8.633,-0.151,-5.08,0
336,35.34874577,-97.42771305,87.1,17.600409,11,344,7.807,-0.163,-4.713,0
337,35.34873538,-97.42751385,90.4,17.72007,11,343,8.368,-0.161,-4.781,0
338,35.34873997,-97.42732142,89.3,17.490927,10,340,8.376,-0.312,-4.517,0
339,35.34871757,-97.42713084,90.1,17.450104,11,339,8.388,-0.266,-5.23,0
340,35.34872134,-97.42694712,89.4,16.910854,10,339,8.278,-0.189,-4.661,0
341,35.34872215,-97.42676902,89.5,16.500109,10,338,8.549,-0.318,-5.201,0
342,35.34872861,-97.42658347,91.1,16.30015,11,338,8.384,-0.305,-4.642,0
343,35.34872943,-97.42640635,90.2,16.350002,11,338,8.345,-0.429,-4.762,0
344,35.34872493,-97.42623168,89.9,15.5110445,11,338,8.281,-0.405,-5.037,0
345,35.34872778,-97.42606356,89.1,15.460158,10,339,8.395,-0.474,-4.772,0
346,35.34873063,-97.42588446,88.1,15.400081,10,339,8.746,-0.363,-4.462,0
347,35.34873366,-97.42571449,88,15.38,11,339,8.463,-0.26,-4.284,0
348,35.34873021,-97.42557064,89.5,14.160353,10,340,8.428,-0.231,-4.455,0
349,35.34872604,-97.42542056,89.3,13.710004,10,340,8.202,0.005,-4.152,0
350,35.34873682,-97.42527238,90,13.080187,10,340,8.31,-0.79,-4.993,0
351,35.34872838,-97.4251452,90.4,12.520576,10,341,8.524,-1.554,-4.806,1
352,35.34873775,-97.4250501,86.4,9.7800455,10,342,8.376,-1.093,-5.265,0
353,35.34873848,-97.42495938,88.6,8.330864,10,342,7.746,-0.26,-5.561,0
354,35.34874557,-97.424887,94.9,7.2300067,10,343,7.951,0.107,-6.103,0
355,35.34871666,-97.42479687,100,7.170063,10,343,7.608,-0.824,-6.196,0
356,35.34868355,-97.42473965,111,6.35,10,342,7.688,-0.749,-5.858,0
357,35.348683,-97.42472751,121.1,3.9224992,10,342,7.85,-0.249,-5.786,0
358,35.34866254,-97.42470704,133.9,3.05059,10,343,8.219,-0.196,-5.262,0
359,35.34863903,-97.42468673,139.7,2.740164,9,343,8.428,0.445,-5.073,0
360,35.348639,-97.4246618,134.1,2.4800806,10,342,8.335,3.155,-5.361,0
361,35.34859179,-97.4246336,153.7,4.0427837,9,343,7.132,3.221,-6.98,0
362,35.34853097,-97.42461693,168.3,5.8031116,9,343,7.337,3.338,-6.841,0
363,35.34848361,-97.4245973,168.7,5.6208897,10,343,7.766,3.47,-6.088,0
364,35.34841039,-97.42460981,178.7,6.1902018,10,342,8.542,3.004,-5.035,0
365,35.34834453,-97.42464569,190.8,6.500031,11,343,8.922,2.69,-4.561,0
366,35.34821131,-97.42471176,196.1,8.98,11,344,8.846,2.517,-4.539,0
367,35.34802978,-97.42481905,199,12.2302,12,340,8.623,2.459,-4.877,0
368,35.34787127,-97.42486785,199.3,13.760004,12,341,8.486,1.609,-5.062,0
369,35.34743592,-97.42503575,200,23.320105,11,340,8.333,1.451,-5.107,0
370,35.34725593,-97.4251253,201,24.16025,10,341,8.259,0.799,-5.118,0
371,35.34705018,-97.42522376,202.3,25.230198,10,342,8.29,0.7,-5.274,0
372,35.34684437,-97.4253382,202.6,25.41071,10,342,8.399,0.623,-4.868,0
374,35.34663574,-97.42546078,202.9,25.940048,9,343,8.278,0.183,-5,0
375,35.34642729,-97.42557353,203.1,26.560318,9,343,8.236,-0.038,-4.989,0
376,35.34618124,-97.4256952,203,26.880363,10,342,8.412,0.179,-5.06,0
377,35.34596593,-97.42581692,203.6,26.780153,10,342,8.454,0.265,-5.041,0
378,35.34575575,-97.42593471,203.1,26.380001,10,343,8.351,0.237,-4.924,1
379,35.34552869,-97.42604852,203.1,26.340048,10,342,8.207,0.266,-4.623,1
380,35.34529366,-97.42616088,202.2,26.99015,9,342,8.211,0.33,-5.182,1
381,35.34508917,-97.42628536,203.1,26.670002,9,341,8.382,0.262,-4.965,1
382,35.34487795,-97.42640049,203.7,26.640316,10,341,8.437,0.172,-4.839,1
383,35.34466841,-97.42655304,206.8,26.812416,10,338,8.463,0.164,-4.969,1
384,35.34444428,-97.42666249,204,26.630001,10,338,8.208,0.23,-4.767,1
385,35.34422668,-97.42676976,203.3,26.550016,10,338,8.45,0.151,-4.824,1
386,35.34397498,-97.42689668,203,26.770187,10,336,8.275,0.193,-5.012,1
387,35.34377135,-97.42700753,202.6,26.361595,10,337,8.491,0.079,-4.479,1
388,35.34353943,-97.42710276,201.5,26.460228,10,336,8.704,0.01,-4.33,1
389,35.34329955,-97.42719744,199.6,26.800007,10,335,8.55,0.037,-4.336,1
390,35.34308097,-97.42728416,198.5,26.440002,11,337,8.569,0.044,-4.534,1
391,35.34286177,-97.42734894,196.5,26.080069,11,336,8.672,0.034,-4.535,1
392,35.34261502,-97.42741603,194.6,26.800028,10,337,8.757,-0.05,-4.163,1
393,35.34238722,-97.42747566,194,26.680029,11,338,8.642,0.041,-4.534,1
394,35.34215518,-97.42751425,191.3,26.350002,11,339,8.516,0.014,-4.427,1
395,35.34168503,-97.42758069,187.2,26.880186,10,338,8.508,0.046,-4.411,1
396,35.34144613,-97.42760276,185.3,26.880186,10,338,8.444,0.109,-4.744,1
397,35.34119391,-97.42763157,184.7,27.250221,11,337,8.403,0.153,-4.844,1
398,35.34094406,-97.42763685,183.3,27.290117,11,337,8.529,0.094,-4.59,1
399,35.34068026,-97.42764725,182.7,27.780088,12,337,8.546,-0.021,-4.189,1
400,35.34044991,-97.42761674,178.7,27.350046,12,340,8.621,-0.017,-4.265,1
401,35.34018324,-97.42761393,177.5,27.63,12,339,8.507,0.055,-4.22,1
402,35.33993839,-97.42757224,175.2,27.470001,12,339,8.518,0.074,-4.592,1
403,35.33970536,-97.42754969,175.1,27.410028,12,339,8.505,0,-4.415,1
404,35.33946765,-97.42754266,176,27.160017,13,339,8.458,0.018,-4.258,1
405,35.33925379,-97.4274888,172.7,26.080008,13,341,8.722,-0.026,-4.29,1
406,35.33902255,-97.42739268,169.2,26.22003,14,341,8.623,-0.013,-4.462,1
407,35.33878904,-97.4272948,166.7,26.830187,12,342,8.56,0.086,-4.681,1
408,35.3385507,-97.42721301,165.4,26.92,11,341,8.662,0.016,-4.531,1
409,35.33831675,-97.42714313,162.8,26.840746,11,342,8.65,0.015,-4.362,1
410,35.33808055,-97.42704081,161,26.70012,10,342,8.739,0.008,-4.26,1
411,35.33785744,-97.42694717,158.6,26.790154,10,342,8.625,0.044,-4.298,1
412,35.33763712,-97.42686805,157.5,26.850477,10,340,8.47,-0.011,-4.313,1
413,35.33739821,-97.42675937,157.4,26.910118,10,339,8.436,-0.309,-4.52,1
414,35.33717962,-97.42662562,155.1,26.630047,11,339,8.522,-0.345,-4.705,1
415,35.33700111,-97.42652356,154,25.02001,12,338,8.348,-0.269,-4.6,1
416,35.33680455,-97.42636979,151.7,25.260002,12,340,8.342,-0.31,-4.814,1
417,35.33664474,-97.42626299,151.2,23.880032,12,339,8.388,-0.271,-4.974,1
418,35.33644663,-97.42608345,148.6,24.720072,12,339,8.435,-0.241,-5.008,1
419,35.33621486,-97.42586705,146.8,26.48012,12,339,8.273,-0.064,-4.872,1
420,35.33603288,-97.42572373,147.1,25.860157,12,338,8.118,-0.753,-5.311,1
421,35.33582622,-97.42555194,146.6,26.200031,12,339,8.293,-0.964,-5.024,1
422,35.33566348,-97.42540981,145.6,25.040009,12,339,8.371,-0.134,-4.775,1
423,35.33550881,-97.42530288,147.3,23.390076,12,339,8.424,0,-5.123,1
424,35.33540636,-97.42525709,150.2,19.840494,11,340,8.409,0.057,-5.146,1
425,35.3352501,-97.42516915,152.4,19.370373,10,339,8.31,0.076,-4.925,1
426,35.33509389,-97.42508893,154,18.96,10,339,8.116,-0.889,-4.904,1
427,35.33494245,-97.42501066,154.5,18.080025,10,340,8.102,-0.53,-4.89,1
428,35.33484132,-97.42497781,155.8,16.0707,10,336,8.181,-0.062,-4.636,1
429,35.33471613,-97.42491648,156,15.660115,10,335,8.502,-0.093,-4.51,1
430,35.3346218,-97.42486277,155.8,14.46,9,335,8.144,-0.018,-4.791,1
432,35.33450657,-97.42479665,154.6,14.120226,9,337,8.277,-0.039,-4.941,1
433,35.33439033,-97.42474111,155.5,13.430451,9,337,8.375,0.203,-4.817,1
434,35.33428916,-97.42468726,156,13.080034,9,337,8.554,0.895,-4.63,1
435,35.33418475,-97.42462599,156.6,12.960756,9,337,8.532,1.092,-4.813,1
436,35.33407578,-97.42457588,158.1,13.101104,10,336,8.4,0.968,-4.577,1
437,35.33394655,-97.42450562,158.6,14.000514,10,337,8.604,0.866,-4.534,1
438,35.33382344,-97.424455,159.1,14.430087,10,336,8.625,0.854,-4.674,1
439,35.33367374,-97.42437781,159.3,15.450081,10,335,8.491,0.859,-4.677,1
440,35.33358491,-97.42433865,159.3,15.050119,10,334,8.229,0.889,-4.719,1
441,35.33345429,-97.42430209,161.1,16.73,10,336,8.57,0.768,-4.731,1
442,35.3332914,-97.42423211,161.8,17.610344,10,336,8.461,0.753,-5.047,1
443,35.33311624,-97.42417336,163.2,18.191454,10,336,8.256,0.675,-5.202,1
444,35.33293853,-97.42411613,164.6,19.040003,10,337,8.161,0.394,-5.3,1
445,35.3327621,-97.42405386,164.4,19.280167,10,337,8.238,0.438,-4.835,1
446,35.3326024,-97.42399271,164.3,19.010094,11,338,8.399,0.434,-4.787,1
447,35.33243078,-97.42396139,167.4,19.590256,10,337,8.391,0.455,-4.748,1
448,35.33225694,-97.42391063,168.6,20.422354,10,337,8.427,0.41,-4.918,1
449,35.33208156,-97.42386104,170.1,20.73163,10,334,8.422,0.406,-4.846,1
450,35.33188471,-97.42383198,170.9,21.30015,10,333,8.328,0.396,-5.005,1
451,35.33168886,-97.42378301,171.5,21.631222,10,333,8.254,0.436,-5.172,1
452,35.33149259,-97.42375721,172.9,22.173609,10,333,8.477,0.457,-5.282,1
453,35.33129071,-97.42374169,174.7,22.310896,10,333,8.39,0.422,-5.183,1
454,35.33087309,-97.42369111,174.7,23.220055,10,334,8.356,0.402,-5.119,0
455,35.33067083,-97.42366835,175.6,22.920004,11,334,8.253,0.416,-5.312,0
456,35.33047101,-97.42366104,176.8,22.980368,11,334,8.365,0.401,-4.886,0
457,35.33025528,-97.42366624,178.9,23.74001,10,335,8.679,0.201,-4.792,0
458,35.33004472,-97.42365561,179.8,24.39005,10,335,8.648,0.195,-4.58,0
459,35.3298224,-97.42363849,179.3,24.380098,10,335,8.574,0.052,-4.888,0
460,35.32959372,-97.42364114,179.5,23.850536,10,335,8.6,0.278,-4.923,0
461,35.32935846,-97.42362829,179.1,24.12,10,334,8.485,0.409,-4.906,0
462,35.32912858,-97.42364452,180.4,24.430008,11,335,8.392,0.407,-4.752,1
463,35.32890758,-97.42360143,177.5,24.480051,11,334,8.421,0.425,-4.576,1
464,35.32870669,-97.42359913,178.2,23.770077,11,334,8.361,0.505,-4.544,1
465,35.32847457,-97.42358253,177.9,24.270166,12,333,8.304,0.505,-4.636,1
466,35.32829601,-97.42355747,177,23.13002,12,335,8.502,0.391,-4.522,1
467,35.32808173,-97.42357435,178.5,23.41001,12,336,8.381,0.429,-4.687,1
468,35.32784516,-97.4236073,180.5,24.190102,11,335,8.479,0.386,-4.562,1
469,35.32759929,-97.42364841,182,24.870165,11,334,8.412,0.379,-4.708,1
470,35.32742149,-97.42359569,178.6,24.17,11,335,8.406,0.419,-4.766,1
471,35.32719957,-97.4236179,180.2,24.620033,11,335,8.462,0.31,-4.705,1
472,35.32696081,-97.42362105,180.6,24.810099,11,336,8.631,0.223,-4.715,1
473,35.32670656,-97.42366025,182.6,25.500282,11,333,8.471,0.172,-4.751,1
474,35.32646188,-97.42362278,179.8,25.160128,10,335,8.385,-0.203,-4.791,1
475,35.32624322,-97.42364092,180.3,24.260101,10,335,8.279,-0.829,-4.663,1
476,35.32601842,-97.42365261,180.1,24.74029,10,336,8.468,-0.538,-4.618,1
477,35.32581262,-97.42364603,179.9,24.230133,11,337,8.459,-0.048,-4.681,1
478,35.32561141,-97.42366733,181.9,23.46002,12,339,8.498,0.068,-4.569,1
479,35.32543234,-97.42364797,180.1,22.420002,11,340,8.384,0.183,-4.76,1
480,35.32527842,-97.42362204,179,21.56002,11,339,8.325,0.228,-4.7,1
481,35.32506386,-97.42362245,179.7,21.960226,12,338,8.469,0.102,-4.77,1
482,35.32485125,-97.42362669,180.7,22.520569,13,337,8.476,0.103,-4.66,1
483,35.3246843,-97.42361277,179.8,21.580393,14,336,8.475,0.086,-4.733,1
484,35.32446614,-97.42360366,178.9,22.190145,14,336,8.477,-0.041,-4.758,1
485,35.32429402,-97.42357156,176.4,21.52001,15,337,8.461,-0.014,-4.733,1
486,35.32410364,-97.42358516,177.9,21.38,14,338,8.313,-0.04,-4.612,1
487,35.32383349,-97.42355367,177.1,23.250053,14,338,8.422,-0.161,-4.932,1
488,35.32364197,-97.4235416,177.3,22.820219,14,337,8.262,-0.115,-4.598,1
489,35.32344242,-97.4235987,181.4,22.59002,14,339,8.409,-0.169,-4.743,1
490,35.3232764,-97.42361897,182.2,21.740187,13,337,8.311,-0.155,-4.892,1
491,35.32305077,-97.42360277,180.8,22.430223,13,336,8.422,-0.295,-4.603,1
492,35.32284427,-97.42361052,181.3,22.260225,13,334,8.277,0.071,-4.147,1
493,35.32266677,-97.42360016,180.3,21.530115,12,335,8.348,0.194,-4.731,1
494,35.32246476,-97.42357984,180,21.540234,13,334,8.473,0.104,-4.609,1
495,35.32232335,-97.42358363,179.7,20.250418,11,334,8.438,0.132,-4.529,1
496,35.32217492,-97.42357781,179.4,20.03025,11,333,8.566,0.077,-4.679,1
497,35.32198265,-97.42358112,180.1,20.460295,11,333,8.348,-0.397,-4.965,1
498,35.32182499,-97.42357413,180.5,20.06002,11,335,8.223,-0.915,-5.054,1
499,35.32164978,-97.42357229,181,19.770124,11,335,8.4,-0.751,-4.865,1
501,35.32148164,-97.42358346,182,19.330093,12,336,8.378,-0.792,-4.821,1
502,35.32128514,-97.42362286,184,19.890089,13,336,8.396,-0.79,-4.789,1
503,35.32111095,-97.42365257,185.1,19.570091,13,336,8.295,-0.996,-4.923,1
504,35.32095961,-97.42363937,183.7,18.730131,12,335,8.316,-0.895,-4.972,1
505,35.3208311,-97.42365199,185,17.330103,13,335,8.388,-0.864,-4.85,1
506,35.32070295,-97.42365423,185.3,16.240076,13,335,8.434,-0.68,-4.972,1
507,35.32065347,-97.42364823,184.9,13.790058,13,335,8.24,-0.611,-4.949,1
508,35.32060462,-97.42364727,184.4,12.030104,12,334,8.349,-0.64,-4.869,1
509,35.32050839,-97.42365231,184.8,11.560156,12,334,8.309,-0.56,-4.744,1
510,35.32043403,-97.42365488,184.8,10.840166,12,332,8.482,-0.221,-4.708,1
511,35.32040311,-97.4236926,186.1,9.770046,12,336,8.174,-0.841,-4.817,1
512,35.3203008,-97.42368407,184.3,10.07002,13,335,8.124,-0.887,-4.972,1
513,35.32027508,-97.4236619,181.1,8.210097,14,333,8.217,-1.165,-4.953,1
514,35.32022875,-97.42366126,180,7.5,15,334,8.172,-0.175,-5.001,1
515,35.32015003,-97.42364644,179.6,7.5200067,16,333,8.621,1.355,-4.728,1
516,35.32003507,-97.42365686,182.2,8.290006,15,333,8.469,0.595,-4.756,1
517,35.3200626,-97.42364269,179.3,6.110295,15,337,8.386,1.01,-4.823,1
518,35.32002799,-97.42361668,174.5,5.6100087,15,338,8.392,1.037,-4.593,1
519,35.32001158,-97.42359804,169.3,5.13,14,339,8.409,0.97,-4.72,1
520,35.31993739,-97.42360339,171.8,5.780009,14,339,8.53,0.98,-4.758,1
521,35.31994461,-97.42357261,166.9,4.6300106,13,339,8.494,1.096,-4.778,1
522,35.31973183,-97.42361242,181.6,7.180028,14,340,8.466,1.164,-4.751,1
523,35.31959906,-97.42360139,178.5,8.750143,14,339,8.897,1.02,-4.488,0
524,35.31950913,-97.42358789,176.7,9.0800495,14,341,8.693,1.027,-4.582,0
525,35.31933131,-97.42360709,178.4,11.010018,15,342,8.652,1.033,-4.635,0
526,35.31903025,-97.42359588,179.3,17.140352,13,341,8.534,0.851,-4.617,0
527,35.31880941,-97.4235891,179.4,17.64018,13,341,8.633,0.658,-4.677,0
528,35.31865991,-97.42362425,182.4,17.350073,13,342,8.402,0.664,-4.514,0
529,35.3184174,-97.42368854,185,18.620218,13,340,8.537,0.832,-4.69,0
530,35.31824608,-97.42368158,183,18.790096,13,342,8.562,0.877,-4.591,0
531,35.31807268,-97.42366746,180.7,19.00013,14,343,8.704,0.781,-4.564,1
532,35.31789698,-97.42365434,179.3,19.210127,13,343,8.778,0.706,-4.743,0
533,35.31771505,-97.42361732,176.6,19.580091,13,344,8.582,0.194,-4.861,0
534,35.3174103,-97.42367604,180.6,22.570055,13,345,8.38,0.221,-4.763,0
535,35.31721437,-97.42365538,179.5,22.33011,13,345,8.454,0.234,-4.696,0
536,35.31705331,-97.42364432,178.9,21.420149,13,344,8.366,0.221,-4.725,0
537,35.31689357,-97.42363109,178,20.830002,13,349,8.594,-0.107,-4.683,0
538,35.31677294,-97.42359247,176,19.410065,12,349,8.602,-0.057,-4.545,0
539,35.31661086,-97.42358857,176,19.320002,12,353,8.43,-0.01,-4.533,0
540,35.31644806,-97.42355819,175,19.200003,13,356,8.303,0.135,-4.657,1
541,35.31615588,-97.42359878,179,22.11001,12,358,8.479,0.19,-4.867,1
542,35.31596086,-97.42358264,178.6,21.990227,12,355,8.444,0.148,-4.577,1
543,35.3158099,-97.42355937,177.3,20.840002,13,361,8.504,-0.035,-4.721,1
544,35.31554607,-97.42359652,179.9,22.710035,13,360,8.589,0.161,-4.662,1
545,35.31531786,-97.42360832,180.2,23.300076,14,359,8.388,-0.119,-4.777,1
546,35.315144,-97.42359652,179.3,22.44001,14,363,8.459,-0.215,-4.642,1
547,35.31485456,-97.42362851,180.8,24.460098,14,363,8.487,0.114,-4.853,1
548,35.31469046,-97.42359591,179.8,23.100367,15,358,8.461,0.13,-4.632,1
549,35.31443569,-97.42363672,181.7,24.18025,16,358,8.532,0.084,-4.642,1
550,35.31419429,-97.4236667,182.9,24.670164,15,358,8.485,0.209,-4.662,1
551,35.31395266,-97.42367116,182.4,25.16016,16,357,8.488,0.213,-4.702,1
552,35.31385084,-97.42371555,185.7,22.200056,16,360,8.45,0.207,-4.83,1
553,35.3136914,-97.42371828,184.8,21.290022,16,364,8.484,0.034,-4.736,1
554,35.31347684,-97.42371561,183.2,21.770082,17,364,8.549,-0.134,-4.762,1
555,35.31325412,-97.42373276,183.2,22.39011,17,364,8.525,0.015,-4.693,0
556,35.31296521,-97.42367826,179.7,24.140207,16,364,8.461,0.192,-4.684,0
557,35.31276901,-97.42364229,178.4,23.270174,14,364,8.468,0.181,-4.504,0
558,35.31260386,-97.42364,178.9,22.120184,13,363,8.482,0.191,-4.526,0
559,35.31234154,-97.4236561,180.5,23.560171,14,362,8.39,0.144,-4.567,0
560,35.31210082,-97.42363668,180.2,23.990208,13,361,8.351,0.017,-4.79,0
561,35.31188575,-97.42364447,180.8,23.87017,14,361,8.651,-0.001,-4.757,0
562,35.31171028,-97.42365165,180.8,22.980177,14,361,8.559,0.022,-4.836,1
563,35.3115073,-97.42366012,180.8,22.990177,14,360,8.539,-0.194,-4.668,1
564,35.3113415,-97.42364446,179.8,22.110184,13,360,8.504,-0.079,-4.835,1
566,35.31117225,-97.42363742,179.3,21.560114,12,360,8.502,0.043,-4.893,1
567,35.31093848,-97.42365273,180.4,22.53018,12,357,8.291,0.375,-4.858,1
568,35.31075568,-97.42363065,179.1,22.080227,12,356,8.673,0.319,-4.907,1
569,35.31052883,-97.42365066,180.8,22.780315,13,355,8.333,0.389,-4.342,1
570,35.31034448,-97.42364539,180.3,22.120003,12,355,8.475,0.269,-4.748,1
571,35.31019738,-97.42361124,178.8,20.950039,12,353,8.485,0.288,-4.552,1
572,35.30998077,-97.42360975,179.2,21.57028,12,351,8.494,0.388,-4.71,1
573,35.30975862,-97.42363782,181.2,22.180382,12,349,8.356,0.396,-4.811,1
574,35.30949164,-97.42366544,182.2,23.840254,12,348,8.463,0.374,-5.014,1
575,35.30927687,-97.42367572,182.3,23.810354,12,346,8.378,0.342,-4.746,1
576,35.30907437,-97.42368124,181.7,23.170364,11,345,8.418,0.339,-4.671,1
577,35.30889643,-97.42367824,180.8,22.42001,11,345,8.387,0.608,-4.768,1
578,35.30871344,-97.42364976,179.3,21.97002,11,345,8.448,0.813,-4.686,1
579,35.30853341,-97.42364194,179.5,21.900082,11,344,8.396,0.728,-4.617,1
580,35.30833977,-97.42364259,179.5,22.090021,11,345,8.37,0.655,-4.615,1
581,35.30817069,-97.42361887,178.6,21.480083,11,344,8.364,0.627,-4.476,1
582,35.30799663,-97.42360822,178,21.040087,11,345,8.563,0.666,-4.554,1
583,35.30777817,-97.42361951,178.9,21.890184,12,344,8.549,0.723,-4.504,1
584,35.30757082,-97.42361537,178.4,22.290081,12,345,8.543,0.313,-4.588,1
585,35.30731525,-97.42362977,179.4,23.76017,12,344,8.452,-0.014,-4.521,1
586,35.30706301,-97.42364419,180.3,24.820072,12,345,8.242,-0.102,-4.704,1
587,35.30681361,-97.42365308,180.8,25.430126,12,345,8.312,-0.18,-5.09,1
588,35.30662349,-97.42363437,180.1,24.350206,12,344,8.348,-0.219,-4.786,1
589,35.30624961,-97.42360535,179.4,22.570034,11,345,8.294,-0.152,-4.907,1
590,35.3060708,-97.42360279,179.5,21.890009,11,347,8.461,0.117,-4.861,1
591,35.30590477,-97.42359727,178.9,21.21,11,349,8.431,0.155,-4.771,1
592,35.30566646,-97.42361308,179.9,22.460018,11,349,8.436,0.043,-4.939,1
593,35.30542115,-97.42365146,181.6,23.66001,12,350,8.272,-0.003,-4.968,1
594,35.30522364,-97.42364923,180.8,23.130033,12,350,8.49,0.2,-4.973,1
595,35.30502561,-97.42368237,181.6,23.100021,13,350,8.396,0.221,-4.81,1
596,35.30483039,-97.42366887,180,22.700108,13,349,8.409,0.455,-4.329,1
597,35.30460263,-97.42366894,179.7,23.230104,14,348,8.56,0.602,-4.46,1
598,35.30427099,-97.42369942,180.9,26.020094,15,347,8.21,0.803,-4.751,1
599,35.30388044,-97.42379152,184,29.45011,15,347,8.404,0.311,-5.009,1
600,35.30356783,-97.42382688,184.3,30.49008,17,348,8.51,-0.031,-4.874,1
