time,lat,lng,bearing,spd,acc,alt,accx,accy,accz,stable
0,35.36139589,-97.49464091,359.6,30.69,6.068,355,-0.142,1.629,9.567,1
1,35.3616798,-97.49463065,359.6,30.55,7.585,354,-0.1,1.628,9.538,1
2,35.36196691,-97.49463714,359.5,30.55,7.585,355,-0.153,1.611,9.334,1
3,35.36224394,-97.494643,359.3,30.39,7.585,356,-0.265,1.595,9.24,1
4,35.36251183,-97.49464702,359.4,30.48,7.585,356,-0.243,1.56,9.293,1
5,35.36277679,-97.49465117,359.4,30.25,9.101999,357,-0.28,1.419,9.129,1
6,35.36304947,-97.49465453,359.4,30.25,10.6189995,357,-0.154,1.507,9.16,1
7,35.36332222,-97.49466426,359.3,30.46,7.585,357,-0.144,1.622,9.455,1
8,35.36360189,-97.49466896,359.7,30.57,7.585,356,-0.131,1.576,9.168,1
9,35.36389192,-97.49466938,359.8,31.3,7.585,356,-0.21,1.603,9.367,1
10,35.36417793,-97.49467525,359.1,31.29,7.585,356,-0.233,1.46,9.288,1
11,35.36446605,-97.49468101,358.7,31.33,9.101999,356,-0.184,1.43,9.424,1
12,35.36475293,-97.4946921,359.1,31.55,7.585,356,-0.123,1.407,9.605,1
13,35.36501487,-97.49470358,359.4,31.66,7.585,355,-0.166,1.322,9.688,1
14,35.36530002,-97.49470956,359.9,31.33,9.101999,355,-0.209,1.338,9.73,1
15,35.36557651,-97.49471157,359.7,31.57,9.101999,354,-0.22,1.348,9.649,1
16,35.36585445,-97.49472116,359.5,31.17,9.101999,354,-0.211,1.382,9.699,1
17,35.36613312,-97.49471908,358.8,31.37,7.585,354,-0.277,1.388,9.606,1
18,35.36641479,-97.49472504,359.2,30.87,9.101999,355,-0.162,1.433,9.546,1
19,35.36668498,-97.49474175,359,30.64,9.101999,356,-0.154,1.37,9.491,1
20,35.36695926,-97.49474896,358.8,30.47,9.101999,357,-0.111,1.191,9.521,1
21,35.36722404,-97.49474061,358.9,30.2,7.585,357,-0.198,1.139,9.564,1
22,35.3674901,-97.49474977,359.5,29.39,7.585,358,-0.134,1.154,9.529,1
25,35.36827434,-97.4947602,359.4,28.07,7.585,359,-0.238,1.179,9.524,1
26,35.36853221,-97.49476929,359.1,27.63,7.585,359,-0.207,1.278,9.492,1
27,35.36878123,-97.49477394,359.1,27.63,10.6189995,359,-0.142,1.175,9.49,1
28,35.36899905,-97.49475322,359.4,26.67,7.585,359,-0.169,1.278,9.417,1
29,35.3692394,-97.49475648,359.4,26.66,10.6189995,359,-0.141,1.378,9.424,1
30,35.36947844,-97.49475741,359.6,26.27,7.585,361,-0.143,1.513,9.396,1
31,35.36971525,-97.49475938,359.6,26.27,9.101999,361,-0.172,1.835,9.31,1
32,35.3699673,-97.4947631,359,26.96,7.585,361,-0.201,1.931,9.334,1
33,35.37021031,-97.4947685,359,26.96,9.101999,361,-0.184,1.943,9.338,1
34,35.37046632,-97.49476524,358.9,27.73,7.585,360,-0.018,1.753,9.353,1
35,35.37071622,-97.49477124,358.9,27.73,9.101999,360,-0.236,1.776,9.401,1
36,35.37096689,-97.49476706,359.2,28.01,7.585,360,-0.154,1.784,9.432,1
37,35.37121934,-97.49477154,359.2,28.01,10.6189995,360,0.022,1.362,9.428,1
38,35.37148052,-97.49476884,358.9,28.44,9.101999,360,-0.078,1.114,9.53,1
39,35.37174625,-97.49476709,359.5,27.83,7.585,361,-0.184,1.234,9.541,1
40,35.37200206,-97.49477804,359.2,27.46,6.068,361,-0.143,1.108,9.58,1
41,35.37224958,-97.49478252,359.2,27.46,9.101999,362,-0.156,1.075,9.575,1
42,35.37248137,-97.49479128,359.5,26.51,6.068,362,-0.174,1.085,9.602,1
43,35.37272035,-97.4947938,359.5,26.51,9.101999,362,-0.131,1.082,9.544,1
44,35.37294562,-97.49480458,359.5,25.84,7.585,362,0.131,1.096,9.575,1
45,35.37317483,-97.49480831,1.2,25.14,7.585,364,0.04,1.415,9.506,1
46,35.37339257,-97.49480058,1.2,25.22,7.585,364,-0.155,1.385,9.481,1
47,35.37362147,-97.49479448,1,25.16,7.585,365,-0.286,1.165,9.498,1
48,35.37384561,-97.49480968,0.7,24.89,7.585,365,-0.257,1.398,9.516,1
49,35.37406047,-97.4947853,0.5,24.69,7.585,364,-0.207,1.628,9.401,1
50,35.37428543,-97.49478305,0.1,24.97,7.585,365,-0.459,1.716,9.491,1
51,35.37450891,-97.49478724,359.8,25.27,7.585,364,-0.468,1.675,9.479,1
52,35.37473628,-97.49477924,359.8,25.3,7.585,364,-0.252,1.695,9.549,1
53,35.37494801,-97.494781,359.7,25.19,15.17,364,-0.15,1.744,9.508,1
54,35.3751726,-97.49477662,359.9,25.54,15.17,365,-0.202,1.655,9.582,1
55,35.3753993,-97.49477892,359.9,25.41,15.17,366,-0.223,1.68,9.497,1
56,35.37562505,-97.49477376,359.9,25.3,15.17,366,-0.151,1.971,9.344,1
57,35.37585769,-97.49477497,359.9,25.55,16.687,367,-0.149,2.074,9.228,1
58,35.37609543,-97.49478988,359.8,26.13,16.687,367,-0.166,2.157,9.284,1
59,35.37633324,-97.49479102,0,26.48,15.17,368,-0.172,2.133,9.306,1
60,35.37658377,-97.49479785,359.9,27.16,15.17,368,-0.201,2.106,9.196,1
61,35.3768304,-97.49479801,359.9,27.58,15.17,369,-0.291,1.6,9.196,1
62,35.37708217,-97.49480613,359.7,27.7,15.17,369,-0.093,1.249,9.453,1
63,35.3773315,-97.49481043,359.9,27.57,15.17,369,-0.139,1.151,9.42,1
64,35.3778149,-97.49480901,359.8,26.95,15.17,370,-0.26,1.128,9.288,1
65,35.3780601,-97.49480932,359.9,26.69,15.17,369,-0.324,1.17,9.473,1
66,35.37830432,-97.49481584,359.6,26.7,15.17,368,-0.382,1.195,9.462,1
67,35.3785427,-97.49482195,359.5,26.43,15.17,368,-0.381,1.196,9.45,1
68,35.37878408,-97.49482108,359.6,26.3,15.17,368,-0.407,0.905,9.502,1
69,35.37901347,-97.49482935,359.3,25.55,15.17,367,-0.356,0.59,9.613,1
70,35.37924218,-97.49482712,359.7,25.11,15.17,367,-0.183,1.023,9.572,1
71,35.37944316,-97.49484709,359.8,25.11,15.17,367,-0.126,1.214,9.619,1
72,35.37967138,-97.49482896,0,25.09,15.17,366,-0.253,1.287,9.687,1
73,35.37990464,-97.49483525,0,25.32,15.17,363,-0.266,1.6,9.49,1
74,35.38014523,-97.49481223,359.8,25.86,15.17,362,-0.105,1.863,9.482,1
75,35.38038645,-97.49480431,0.7,26.19,15.17,362,0.235,1.855,9.368,1
76,35.38062606,-97.49480737,2,26.66,15.17,363,0.166,1.688,9.386,1
77,35.38086656,-97.49480369,2.1,26.61,15.17,363,-0.226,1.293,9.477,1
78,35.38111863,-97.49479331,1.6,26.46,15.17,363,-0.335,1.223,9.568,1
79,35.38136114,-97.49477811,0.9,26.41,15.17,361,-0.48,1.17,9.415,1
80,35.38159832,-97.49478459,359.8,26.1,15.17,360,-0.164,1.134,9.377,1
81,35.38183317,-97.49478692,359.6,25.81,15.17,361,-0.208,1.17,9.452,1
82,35.38207498,-97.49479519,359.5,26.01,15.17,359,-0.199,1.17,9.433,1
84,35.38230654,-97.49480527,359.8,26,15.17,359,-0.023,1.173,9.432,1
85,35.38254936,-97.49480382,359.5,25.97,15.17,359,-0.152,1.157,9.439,1
86,35.38278347,-97.49480417,359.8,26.1,15.17,358,-0.133,1.18,9.507,1
87,35.38302104,-97.49480802,359.9,26.19,13.653,358,-0.135,1.174,9.515,1
88,35.38325746,-97.49480977,359.6,26.34,13.653,357,-0.161,1.174,9.563,1
89,35.38350467,-97.494812,359.5,26.41,13.653,356,-0.151,1.181,9.576,1
90,35.38374241,-97.4948156,359.5,26.55,13.653,355,-0.134,1.183,9.59,1
91,35.3839792,-97.49481643,359.6,26.63,13.653,354,-0.079,1.183,9.646,1
92,35.38421926,-97.49481979,359.6,26.69,13.653,355,-0.111,0.705,9.833,1
93,35.38445498,-97.49482262,359.4,25.95,13.653,354,-0.073,0.919,9.715,1
94,35.38468508,-97.49481708,0.9,25.66,13.653,354,-0.058,1.026,9.822,1
95,35.38491271,-97.4948193,359.9,25.18,13.653,355,-0.173,1.198,9.72,1
96,35.38512964,-97.49482626,359.9,24.93,13.653,356,-0.193,1.251,9.697,1
97,35.38534942,-97.494828,359.9,24.66,13.653,357,-0.112,1.231,9.616,1
98,35.38556642,-97.49482477,0,24.27,13.653,357,0.039,1.221,9.539,1
99,35.38578413,-97.49482299,0.6,24.13,13.653,357,0.115,1.232,9.556,1
100,35.38599476,-97.49481714,1.5,23.7,13.653,358,0.116,1.227,9.496,1
101,35.38620353,-97.49480635,2.5,23.42,13.653,358,0.135,1.232,9.48,1
102,35.38640574,-97.49479415,3.6,23.15,13.653,358,0.067,1.225,9.44,1
103,35.38661739,-97.49477065,4.3,22.94,13.653,358,0.014,0.633,9.608,1
104,35.3868203,-97.49474743,4.6,22.27,13.653,358,-0.006,0.586,9.636,1
105,35.3870107,-97.49473345,5.1,21.42,13.653,357,-0.088,0.818,9.592,1
106,35.38719727,-97.4947138,4.6,20.55,13.653,357,-0.178,1.119,9.637,1
107,35.38738064,-97.49470071,3.6,20.33,13.653,356,-0.166,1.411,9.598,1
108,35.38756021,-97.49469026,2.5,20.22,13.653,357,-0.165,1.582,9.507,1
109,35.38775992,-97.49468883,1.6,20.68,13.653,357,-0.013,1.163,9.071,1
110,35.38794391,-97.4946934,0.2,20.69,13.653,357,0.173,1.182,9.316,1
111,35.38813037,-97.49469265,0.2,20.68,13.653,356,0.167,1.578,9.479,1
112,35.38830673,-97.49468654,0,20.26,13.653,356,0.016,2.009,9.431,1
113,35.38849706,-97.49468413,359.9,20.76,13.653,356,-0.055,1.831,9.367,1
114,35.388697,-97.4946881,359.7,21.49,4.5509996,357,0.063,1.291,9.508,1
115,35.38889075,-97.49468932,359.7,21.49,6.068,356,0.163,1.523,9.498,1
116,35.38908513,-97.49468736,359.7,21.26,4.5509996,357,0.148,1.8,9.446,1
117,35.38928369,-97.49468294,359.9,21.86,4.5509996,357,-0.025,1.888,9.418,1
118,35.38948372,-97.49468649,359.1,22.01,4.5509996,357,-0.266,1.966,9.302,1
119,35.3896859,-97.49468913,358.1,22.76,4.5509996,357,-0.024,1.953,9.161,1
120,35.38989573,-97.49470993,357,23.26,6.068,357,0.254,1.369,9.334,1
121,35.39009626,-97.49472673,357.2,23.3,6.068,358,0.273,1.206,9.663,1
122,35.39031025,-97.49474304,357.2,23.21,6.068,358,0.28,1.105,9.484,1
123,35.39052556,-97.49475171,357.6,22.81,6.068,358,0.306,1.119,9.567,1
124,35.39073348,-97.49475809,358.7,22.52,6.068,358,0.241,1.099,9.477,1
125,35.3909453,-97.4947649,358.8,22.29,6.068,357,0.389,0.97,9.52,1
126,35.39114169,-97.49476702,0,21.75,6.068,355,0.21,0.319,9.71,1
127,35.39132316,-97.49476528,1.1,20.72,6.068,355,0.007,-0.962,10.083,0
128,35.39149358,-97.4947375,1.7,17.99,6.068,353,-0.229,-1.388,10.19,0
129,35.39165572,-97.49473161,1.7,17.99,7.585,353,-0.111,-0.249,9.879,0
130,35.39177405,-97.49471609,6.4,14.64,7.585,351,-0.181,0.581,9.784,0
131,35.39190518,-97.49469819,6.4,14.64,12.136,351,-0.256,0.888,9.706,0
132,35.39190518,-97.49469819,6.4,14.64,12.136,351,0.053,0.501,9.645,0
133,35.39217964,-97.49475171,2.5,10.62,12.136,352,0.622,1.127,9.584,0
134,35.39225422,-97.49473782,9.1,10.17,10.6189995,353,1.211,1.113,9.452,0
135,35.39235096,-97.4947099,14.1,10.42,10.6189995,354,1.14,1.021,9.368,0
136,35.39242734,-97.49466385,25.1,10.33,9.101999,354,1.203,1.025,9.676,0
137,35.39249228,-97.49459947,35.1,9.8,9.101999,353,1.214,1.209,9.679,1
138,35.39255717,-97.49452428,43.6,9.86,9.101999,353,1.484,1.996,9.473,1
139,35.39261691,-97.49444218,47.5,10.23,10.6189995,353,1.89,2.25,9.381,1
140,35.39265209,-97.49433657,57,10.63,12.136,354,2.152,2.283,9.547,0
141,35.39267198,-97.49421656,66.6,10.46,13.653,354,2.393,1.506,9.687,0
142,35.39260046,-97.49406082,89,10.39,10.6189995,355,2.18,1.401,9.67,0
143,35.39251838,-97.49394317,114.3,10.67,7.585,357,1.825,1.492,9.698,0
144,35.39244835,-97.49387867,134.4,10.16,7.585,356,1.721,1.179,9.673,0
145,35.39236281,-97.49381451,150.2,10.5,6.068,357,1.482,1.411,9.599,0
146,35.3922713,-97.49377989,162.3,10.38,6.068,358,1.61,1.473,9.494,0
147,35.39217629,-97.4937593,168,10.3,6.068,358,1.547,1.851,9.413,0
148,35.39208965,-97.49381595,190.1,10.08,6.068,359,1.527,1.97,9.453,0
149,35.3920027,-97.49385698,201.1,10.29,4.5509996,360,1.555,2.457,9.3,0
150,35.39192996,-97.49393034,212.7,10.81,4.5509996,361,1.475,2.239,9.388,0
151,35.39185671,-97.49402873,226.6,11.19,4.5509996,361,2.526,2.049,9.332,0
152,35.3918027,-97.49413941,234,11.31,6.068,361,2.692,2.397,9.235,0
153,35.39179357,-97.4942831,256.8,12.23,6.068,362,2.747,2.643,9.107,0
154,35.39178958,-97.49442528,267.5,12.83,6.068,363,1.999,2.613,8.978,0
155,35.39180071,-97.49457953,273.6,13.74,6.068,364,0.781,2.804,9.008,0
156,35.3918318,-97.49475415,279.2,15.74,6.068,364,0.266,2.941,9.027,0
157,35.39185561,-97.49493954,278.9,17.18,6.068,365,0.108,3.407,8.92,0
158,35.39187467,-97.49515024,279.7,19.45,4.5509996,365,-0.228,3.676,8.851,0
159,35.39190105,-97.49538908,278.4,21.85,4.5509996,365,-0.522,3.657,8.938,0
160,35.39192332,-97.49564926,276.4,23.72,4.5509996,366,-0.217,2.15,9.413,0
161,35.39196085,-97.49592642,277.8,24.78,6.068,365,0.112,1.781,9.316,1
162,35.39198882,-97.49620097,277.7,24.78,6.068,366,-0.127,1.808,9.318,1
163,35.39201756,-97.49647547,278.1,25.22,6.068,365,-0.552,1.44,9.469,1
164,35.39203678,-97.49674974,276,25.16,6.068,365,-0.59,1.31,9.369,1
166,35.39205153,-97.49703029,274.3,25.58,6.068,365,-0.122,1.389,9.47,1
167,35.39206232,-97.49731303,273.5,25.76,6.068,365,-0.182,1.412,9.364,1
168,35.39206878,-97.49759574,271.8,25.93,6.068,364,0.06,1.464,9.57,1
169,35.39206968,-97.497884,271.1,26.21,4.5509996,362,-0.061,1.453,9.562,1
170,35.39206296,-97.49816823,270.5,26.48,4.5509996,362,-0.349,1.427,9.785,1
171,35.39206287,-97.49847771,269.8,26.75,4.5509996,362,-0.204,1.586,9.688,1
172,35.39205831,-97.49877441,269.8,27.12,4.5509996,363,-0.174,1.896,9.607,1
173,35.39205728,-97.49907296,269.8,27.12,6.068,363,-0.086,1.943,9.405,1
174,35.39205586,-97.49937909,269.8,27.99,4.5509996,363,-0.143,1.961,9.395,1
175,35.39205403,-97.49969511,269.7,28.33,4.5509996,363,-0.183,1.951,9.375,1
176,35.39204815,-97.50000137,269.4,28.65,6.068,362,-0.159,1.939,9.333,1
177,35.39205622,-97.50032434,270,29.31,6.068,362,-0.141,1.926,9.355,1
178,35.39205162,-97.50066346,269.9,29.72,6.068,362,-0.15,1.908,9.278,1
179,35.39204446,-97.5009922,269.6,30.01,6.068,362,-0.114,1.872,9.232,1
180,35.39204249,-97.5013282,269.6,30.49,6.068,362,-0.118,1.847,9.212,1
181,35.39204067,-97.50167006,269.5,30.81,6.068,361,-0.103,1.817,9.209,1
182,35.39204023,-97.50201492,269.5,31.43,6.068,361,-0.183,1.814,9.255,1
183,35.39204879,-97.50237577,269.4,31.9,6.068,359,-0.106,1.438,9.418,1
184,35.39205114,-97.5027222,269.7,31.92,6.068,359,-0.134,1.327,9.547,1
185,35.39205544,-97.50307747,269.7,32,6.068,358,-0.105,1.375,9.485,1
186,35.39204706,-97.50341634,269.4,31.93,6.068,357,-0.072,1.391,9.47,1
187,35.39204882,-97.50377824,269.9,32.16,6.068,356,-0.18,1.385,9.469,1
188,35.39204161,-97.5041343,269.8,32.35,6.068,355,-0.227,1.237,9.541,1
189,35.39203775,-97.5044921,269.7,32.14,6.068,354,-0.082,1.275,9.533,1
190,35.39203524,-97.50484022,270.3,32.07,6.068,355,0.048,1.439,9.637,1
191,35.39203667,-97.50519319,270.3,32.06,7.585,355,0.133,1.434,9.632,1
192,35.39203753,-97.50554599,270.8,32.27,6.068,354,-0.309,1.322,9.567,1
193,35.39203402,-97.50589789,270.4,32.01,6.068,355,-0.409,1.233,9.749,1
194,35.39203624,-97.50624418,270.2,32,6.068,355,-0.296,1.08,9.425,1
195,35.39203207,-97.50658949,269.8,31.65,7.585,355,-0.199,1.122,9.522,1
196,35.39202893,-97.50693565,269.6,31.68,7.585,355,-0.12,1.185,9.542,1
197,35.3920251,-97.50727269,269.6,31.33,7.585,356,-0.213,1.325,9.7,1
198,35.39202609,-97.5076113,269.8,30.97,7.585,357,-0.2,1.363,9.632,1
199,35.39203148,-97.5079526,269.5,30.77,6.068,357,-0.098,1.335,9.559,1
200,35.39202618,-97.50828253,269.6,30.69,6.068,357,-0.06,1.383,9.69,1
201,35.39202661,-97.50861801,269.8,30.49,6.068,357,-0.138,1.359,9.525,1
202,35.39202314,-97.50895158,269.9,30.3,4.5509996,357,-0.223,1.343,9.509,1
203,35.39203316,-97.50929442,269.9,30.16,4.5509996,357,-0.198,1.385,9.525,1
204,35.39203624,-97.5096238,269.8,30,4.5509996,358,-0.122,1.431,9.643,1
205,35.39202769,-97.50994055,269.7,29.84,4.5509996,359,-0.205,1.4,9.578,1
206,35.39202628,-97.51026076,269.4,29.42,4.5509996,360,0.064,1.414,9.444,1
207,35.39202332,-97.51058454,269.4,29.41,4.5509996,360,0.077,1.511,9.713,1
208,35.3920159,-97.51090432,270,29.06,4.5509996,361,-0.146,1.47,9.491,1
209,35.39201592,-97.51122415,270,29.05,6.068,361,-0.405,1.406,9.399,1
210,35.39201067,-97.51153357,269.5,28.59,4.5509996,361,-0.289,1.376,9.16,1
211,35.39200722,-97.51184929,269.4,28.38,4.5509996,361,-0.324,1.513,9.524,1
212,35.39201773,-97.51218612,269.3,28.32,6.068,360,-0.247,1.488,9.412,1
213,35.39201551,-97.51250495,269.1,28.25,6.068,360,-0.097,1.423,9.192,1
214,35.39201135,-97.51281418,269.2,28.38,4.5509996,361,0.059,1.364,9.256,1
215,35.39200982,-97.51312428,269.3,28.35,4.5509996,361,0.021,1.292,9.35,1
216,35.39200614,-97.51343106,269.3,28.14,6.068,361,-0.121,1.231,9.375,1
217,35.39200486,-97.51375249,269.6,28.27,6.068,360,-0.17,1.178,9.398,1
218,35.39201724,-97.51407688,269.8,28.31,6.068,359,-0.009,1.117,9.384,1
219,35.39201431,-97.51438836,269.1,28.19,6.068,359,-0.08,1.072,9.599,1
220,35.3920035,-97.51501293,267.5,28.06,6.068,356,-0.191,1.099,9.876,1
221,35.39198702,-97.51530797,266.3,27.83,6.068,356,-0.393,1.085,9.909,0
222,35.39195811,-97.51561157,265.4,27.87,6.068,355,-0.273,1.496,9.613,0
223,35.39193828,-97.51591928,264.7,28.15,6.068,354,-0.512,1.79,9.434,0
224,35.39190678,-97.51622725,262.3,28.73,4.5509996,354,-0.594,1.895,9.385,0
225,35.39185411,-97.51653922,260.8,29.1,4.5509996,354,-0.186,1.854,9.323,0
226,35.39181435,-97.51685907,260.9,29.58,4.5509996,354,0.256,1.916,9.428,0
227,35.39177213,-97.5171882,260.2,29.97,4.5509996,354,0.432,1.898,9.306,0
228,35.39173577,-97.5175261,261.9,30.72,4.5509996,353,0.142,1.893,9.322,0
229,35.39169606,-97.5178669,261.9,31.23,4.5509996,353,-0.174,1.916,9.486,0
230,35.39165383,-97.518209,261.6,31.57,4.5509996,353,-0.147,1.911,9.562,1
231,35.39161246,-97.51855542,261.9,32.07,4.5509996,353,-0.158,1.913,9.568,1
232,35.39157566,-97.51890991,262.3,32.53,4.5509996,354,-0.11,1.915,9.66,1
233,35.39154053,-97.51926481,262.2,32.57,4.5509996,354,0.147,1.885,9.644,1
234,35.39150829,-97.51962553,263.2,32.74,4.5509996,355,0.487,1.856,9.476,1
235,35.39148317,-97.51998421,264.4,32.77,4.5509996,355,0.66,1.814,9.237,1
236,35.39146344,-97.52034678,265.7,32.94,4.5509996,355,0.536,1.788,9.211,1
237,35.39145455,-97.52071426,266.8,33.17,4.5509996,356,0.357,1.747,9.102,1
238,35.39143911,-97.52108063,267.7,33.53,4.5509996,356,0.459,1.712,9.094,1
239,35.39142982,-97.52145001,268.7,33.76,4.5509996,357,0.506,1.249,9.207,1
240,35.39142806,-97.52182221,269.8,33.56,4.5509996,357,0.174,1.087,9.198,1
242,35.39142585,-97.52218946,270.1,33.35,4.5509996,356,-0.127,1.022,9.271,1
243,35.39142577,-97.52255016,270,33.06,4.5509996,356,-0.217,0.966,9.135,1
244,35.39142414,-97.52290582,269.8,32.71,4.5509996,355,-0.153,1.034,9.358,1
245,35.39141727,-97.52326371,269.5,32.52,6.068,355,-0.261,1.022,9.358,1
246,35.39139925,-97.52362535,269.9,32.85,4.5509996,352,-0.21,1.066,9.643,1
247,35.39138995,-97.52398347,269.5,32.59,6.068,352,-0.016,1.062,9.596,1
248,35.39139724,-97.52434436,270,32.74,4.5509996,350,-0.142,1.117,9.919,1
249,35.39139533,-97.52470239,269.9,32.6,4.5509996,350,-0.127,1.09,9.75,1
250,35.39139342,-97.52506606,269.9,32.54,4.5509996,348,-0.168,1.115,9.872,1
251,35.39139279,-97.5254195,270.2,32.31,4.5509996,348,-0.26,1.142,9.845,1
252,35.3913899,-97.52576951,269.8,32.02,4.5509996,348,-0.121,1.143,9.793,1
253,35.3913908,-97.52611596,270.1,31.69,4.5509996,348,-0.126,1.371,9.755,1
254,35.39138463,-97.52645463,270,31.46,4.5509996,348,-0.215,1.54,9.783,1
255,35.3913801,-97.52679627,269.9,31.36,4.5509996,349,-0.15,1.554,9.659,0
256,35.39138957,-97.52714295,270.2,31.19,4.5509996,349,-0.295,1.563,9.649,0
257,35.39139938,-97.52749253,269.9,30.87,4.5509996,350,-0.268,1.734,9.653,0
258,35.39140275,-97.52783706,270,30.79,4.5509996,351,-0.233,1.795,9.477,0
259,35.39139128,-97.528169,269.9,30.69,4.5509996,352,-0.199,1.784,9.349,0
260,35.3913987,-97.5285095,270,30.7,4.5509996,353,-0.182,1.776,9.255,0
261,35.39139802,-97.52885598,270,30.87,4.5509996,353,0.086,1.757,9.158,0
262,35.39139817,-97.52919574,270,30.86,6.068,353,-0.061,1.773,9.205,0
263,35.39141325,-97.52954479,270.4,31.03,6.068,352,-0.244,1.746,9.217,1
264,35.39141516,-97.52988628,270.4,31.02,7.585,353,-0.034,1.734,9.245,1
265,35.39142006,-97.53022003,269.8,31.57,6.068,354,-0.051,1.458,9.134,1
266,35.39141906,-97.53056756,269.8,31.57,7.585,354,-0.151,1.14,9.324,1
267,35.39142181,-97.53090894,270.2,31.36,6.068,352,-0.258,1.05,9.325,1
268,35.39142304,-97.5312541,270.2,31.35,7.585,352,-0.331,1.057,9.354,1
269,35.39142912,-97.53159908,270.2,30.99,6.068,349,-0.41,1.104,9.625,1
270,35.39143152,-97.53194409,269.8,30.74,6.068,348,-0.341,1.134,9.845,1
271,35.39142845,-97.53228302,269.8,30.68,6.068,348,-0.25,1.3,9.665,1
272,35.39142334,-97.53262018,269.9,30.55,6.068,348,-0.068,1.378,9.579,1
273,35.39142435,-97.53295519,270,30.58,7.585,348,0.15,1.416,9.627,1
274,35.39143004,-97.53328771,270.6,30.54,6.068,349,0.038,1.419,9.573,1
275,35.3914368,-97.53362516,271.3,30.54,6.068,349,-0.115,1.422,9.565,1
276,35.39144243,-97.53396028,271.7,30.36,6.068,349,-0.353,1.367,9.437,1
277,35.39145231,-97.53430064,271.4,30.1,6.068,348,-0.619,1.413,9.497,1
278,35.39145896,-97.53463186,271.4,30.1,7.585,348,-0.389,1.713,9.435,1
279,35.39145265,-97.53495675,270.2,30.28,6.068,349,-0.205,1.772,9.353,1
280,35.39145469,-97.53528695,269.9,30.49,6.068,349,-0.184,1.779,9.367,1
281,35.39145645,-97.53561994,269.9,30.97,6.068,350,-0.01,1.784,9.375,1
282,35.39147011,-97.53597736,269.9,31.17,7.585,350,-0.164,1.483,9.483,1
283,35.39146432,-97.53631951,269.7,31.15,7.585,350,-0.067,1.477,9.46,1
284,35.39146078,-97.53665966,269.8,31.01,7.585,351,-0.087,1.539,9.441,1
285,35.39146586,-97.53700805,269.9,31.14,7.585,351,-0.14,1.579,9.555,1
286,35.39145968,-97.53734904,270,31.17,7.585,352,-0.164,1.555,9.588,1
287,35.39145231,-97.53768091,269.8,31.12,7.585,354,-0.074,1.503,9.508,1
288,35.39143815,-97.53800267,270,31.1,7.585,355,0.042,1.486,9.481,1
289,35.39143086,-97.53833715,270.1,31.01,7.585,355,0.032,1.515,9.476,1
290,35.39141821,-97.53867596,270.2,30.75,6.068,357,-0.065,1.486,9.445,1
291,35.39141983,-97.53901489,270.2,30.62,6.068,358,-0.105,1.493,9.338,1
292,35.39141483,-97.53935746,270.3,30.6,6.068,358,-0.214,1.516,9.342,1
293,35.39141947,-97.5396919,270,30.63,6.068,358,-0.152,1.508,9.282,1
294,35.39142152,-97.54036864,269.8,30.71,6.068,359,-0.233,1.518,9.362,1
295,35.39141966,-97.54071103,269.7,30.77,6.068,358,-0.149,1.54,9.453,1
296,35.39141661,-97.54104365,269.8,30.89,6.068,358,-0.112,1.548,9.48,1
297,35.39141302,-97.54138164,270,31.02,6.068,357,-0.046,1.558,9.432,1
298,35.39141171,-97.54171996,270,31.13,6.068,358,-0.25,1.512,9.505,1
299,35.39141434,-97.54206404,269.7,31.11,6.068,358,-0.263,1.458,9.519,1
300,35.39141919,-97.54240969,269.9,31.12,6.068,358,-0.068,1.446,9.48,1
301,35.39141818,-97.54275427,269.9,31.13,6.068,358,-0.009,1.476,9.477,1
302,35.39143718,-97.5431221,269.9,31.15,6.068,357,-0.098,1.486,9.471,1
303,35.39143382,-97.54346465,270,31.2,6.068,357,-0.156,1.516,9.5,1
304,35.39142524,-97.54379977,269.6,31.29,6.068,357,-0.081,1.548,9.62,1
305,35.39142439,-97.54413043,269.8,31.33,6.068,359,-0.091,1.539,9.706,1
306,35.39142363,-97.5444731,269.8,31.29,6.068,359,-0.055,1.561,9.737,1
307,35.39140525,-97.54479641,270.1,31.17,6.068,361,0.025,1.588,9.693,1
308,35.39141782,-97.54515315,270.3,30.98,6.068,360,-0.138,1.567,9.544,1
309,35.3913977,-97.54547282,270.2,30.77,6.068,361,-0.226,1.568,9.49,1
310,35.39140128,-97.54581739,270.3,30.59,6.068,361,-0.208,1.568,9.388,1
311,35.39139289,-97.54615041,269.9,30.28,6.068,361,-0.087,1.593,9.432,1
312,35.39140179,-97.54648077,270.2,30.23,6.068,362,-0.038,1.581,9.347,1
313,35.39139233,-97.54680953,270.3,30.18,6.068,363,-0.11,1.574,9.258,1
314,35.39138976,-97.54714724,270.1,30.14,6.068,363,-0.093,1.57,9.222,1
315,35.39139113,-97.54748022,269.9,30.33,6.068,363,-0.131,1.573,9.271,1
316,35.39139061,-97.5478128,269.9,30.24,6.068,364,-0.106,1.625,9.328,1
317,35.39139853,-97.54815312,269.7,30.21,6.068,363,-0.161,1.647,9.293,1
318,35.39140396,-97.54849066,270,30.6,6.068,363,-0.114,1.654,9.241,1
319,35.391406,-97.54883141,270,31.02,6.068,363,-0.353,1.618,9.235,1
320,35.39141255,-97.54918149,269.6,31.45,6.068,362,-0.232,1.524,9.236,1
322,35.39141405,-97.54953025,269.6,31.58,6.068,361,-0.103,1.461,9.549,1
323,35.39140676,-97.5498765,269.6,31.71,6.068,361,-0.106,1.436,9.844,1
324,35.39140786,-97.55022724,269.7,31.79,6.068,361,-0.095,1.349,9.71,1
325,35.39140843,-97.55056847,270,31.67,6.068,360,-0.028,1.306,9.575,1
326,35.39142464,-97.5509285,270,31.6,6.068,359,-0.06,1.3,9.562,1
327,35.39142902,-97.55127958,270,31.5,6.068,358,-0.03,1.314,9.511,1
328,35.39142708,-97.55162388,270.2,31.41,6.068,358,0.06,1.339,9.503,1
329,35.39142708,-97.55196828,270.8,31.37,6.068,358,0.16,1.242,9.587,1
330,35.39144098,-97.55230839,272.7,31.06,6.068,359,0.659,1.121,9.57,1
331,35.39145395,-97.55264987,272.7,31.05,6.068,359,0.651,1.055,9.574,1
332,35.39148778,-97.55298119,275.7,30.3,6.068,358,0.662,1.08,9.557,1
333,35.3915264,-97.55331433,277.8,30.23,6.068,358,0.43,1.108,9.565,1
334,35.39156524,-97.55363973,278.2,29.99,6.068,359,0.434,1.097,9.598,1
335,35.39161683,-97.55396225,280,29.78,6.068,359,0.28,1.313,9.523,1
336,35.39167417,-97.5542853,281.2,29.6,6.068,359,0.318,1.623,9.438,1
337,35.3917544,-97.55460857,282.8,29.89,4.5509996,358,0.455,1.732,9.414,1
338,35.39183611,-97.55493523,284,30.37,4.5509996,358,0.552,1.387,9.465,1
339,35.3919082,-97.55526269,285.2,30.25,4.5509996,357,0.181,1.18,9.526,1
340,35.391985,-97.55558514,285.7,30.05,4.5509996,357,-0.278,1.139,9.581,1
341,35.39206516,-97.55589373,285.9,29.74,4.5509996,356,-0.457,1.135,9.59,1
342,35.39213375,-97.5562085,285.2,29.49,4.5509996,355,-0.545,1.431,9.472,1
343,35.39220378,-97.55652301,284.6,29.58,4.5509996,355,-0.396,1.801,9.411,1
344,35.39227118,-97.55683845,284.3,29.86,4.5509996,355,-0.28,1.889,9.368,1
345,35.39233184,-97.55716542,284,30.42,4.5509996,355,-0.177,1.9,9.36,1
346,35.3924035,-97.55749794,284,30.86,4.5509996,355,0.031,1.873,9.408,1
347,35.39246895,-97.55783444,284.2,31.3,4.5509996,355,-0.18,1.862,9.346,1
348,35.39254628,-97.55817527,284.4,31.86,4.5509996,355,-0.267,1.863,9.419,1
349,35.39261142,-97.55851779,284.1,32.26,4.5509996,354,-0.25,1.836,9.415,1
350,35.39268579,-97.55886845,284,32.64,4.5509996,354,-0.108,1.842,9.416,1
351,35.39275825,-97.55922154,284.3,33.1,4.5509996,354,-0.201,1.604,9.559,1
352,35.39283367,-97.5595784,284.2,33.3,4.5509996,353,-0.204,1.189,9.617,1
353,35.39291265,-97.55992883,284.3,32.96,4.5509996,353,-0.337,1.09,9.601,1
354,35.3929885,-97.56027568,284.1,32.53,4.5509996,353,-0.169,1.085,9.651,1
355,35.39305493,-97.56061745,284,32.03,4.5509996,353,-0.099,1.084,9.574,1
356,35.39312034,-97.56095425,283.8,31.7,4.5509996,354,-0.365,1.09,9.593,1
357,35.39318766,-97.56128929,284.2,31.21,4.5509996,354,-0.332,1.09,9.638,1
358,35.39326235,-97.5616129,284,30.82,4.5509996,354,-0.135,1.212,9.644,1
359,35.39332227,-97.56193372,283.7,30.38,4.5509996,355,0.023,1.508,9.634,1
360,35.39338689,-97.56225907,284.2,30.21,4.5509996,355,-0.187,1.729,9.627,1
361,35.39345446,-97.56258108,284.3,30.23,4.5509996,357,-0.229,1.864,9.46,1
362,35.39351772,-97.56290294,283.9,30.43,4.5509996,357,-0.128,1.909,9.342,1
363,35.39358966,-97.56322629,284,30.65,4.5509996,358,-0.181,1.94,9.35,1
364,35.39366059,-97.56355237,284.1,30.86,4.5509996,359,0.047,1.915,9.297,1
365,35.39373198,-97.56388642,284.3,31.05,4.5509996,359,-0.167,1.912,9.367,1
366,35.39380322,-97.56422021,284.6,31.31,4.5509996,360,-0.286,1.886,9.319,1
367,35.39387977,-97.56455032,284.6,31.55,4.5509996,361,-0.331,1.856,9.197,1
368,35.39395476,-97.56489208,284.1,31.73,4.5509996,361,-0.19,1.801,9.025,1
369,35.39402619,-97.56523391,284.2,32.04,4.5509996,361,-0.137,1.564,9.117,1
370,35.39409814,-97.56558178,284,32.3,4.5509996,361,-0.195,1.203,9.48,1
371,35.39416291,-97.56592047,284.1,32.1,4.5509996,360,0,1.038,9.326,1
372,35.39423433,-97.56625793,284.2,31.79,4.5509996,360,-0.185,1.183,9.352,1
373,35.39436728,-97.56693721,284.2,31.66,4.5509996,359,-0.179,1.291,9.469,1
374,35.39443732,-97.56727507,283.9,31.54,4.5509996,359,-0.229,1.072,9.453,1
375,35.39450516,-97.5676068,284.4,31.51,4.5509996,358,-0.144,1.206,9.56,1
376,35.3945759,-97.56794348,284.3,31.56,4.5509996,357,-0.234,1.425,9.683,1
377,35.39464782,-97.56828772,284.3,31.81,4.5509996,356,-0.244,1.269,9.861,1
378,35.39471773,-97.56862818,284.2,31.55,4.5509996,356,-0.289,1.452,9.787,1
379,35.39479708,-97.56895668,284.1,31.86,4.5509996,355,-0.114,1.736,9.675,1
380,35.39486673,-97.56930022,284.3,32.09,4.5509996,355,0.072,1.766,9.464,1
381,35.39494535,-97.56964666,284.5,32.26,6.068,356,-0.079,1.787,9.408,1
382,35.39502119,-97.56998019,284.4,32.36,4.5509996,356,-0.166,1.769,9.347,1
383,35.39509941,-97.5703286,284.2,32.72,4.5509996,356,-0.242,1.763,9.329,1
384,35.39517514,-97.5706818,284.4,33.02,4.5509996,356,-0.11,1.774,9.435,1
385,35.39524542,-97.57103969,284.4,33.23,4.5509996,356,-0.105,1.473,9.401,1
386,35.39531999,-97.57139982,284.6,33.12,6.068,357,-0.089,1.174,9.525,1
387,35.39540006,-97.57173696,285.4,32.29,4.5509996,357,0.506,1.07,9.555,1
388,35.39548609,-97.57207294,286.7,31.89,6.068,357,0.751,1.014,9.472,1
389,35.39558804,-97.57240494,288.9,31.7,6.068,356,0.941,1.003,9.496,1
390,35.39569642,-97.57271919,291.3,31.21,6.068,355,0.866,0.976,9.314,1
391,35.39580811,-97.57303036,293.7,30.78,7.585,355,0.682,1.041,9.434,1
392,35.39591948,-97.5733423,293.9,30.9,10.6189995,355,0.536,1.392,9.408,1
393,35.3960454,-97.57363278,296.5,30.61,10.6189995,355,0.73,1.649,9.454,1
395,35.3961884,-97.57392273,299.8,30.98,9.101999,355,0.567,1.283,9.702,1
396,35.39633965,-97.5742028,301.9,30.5,9.101999,355,0.311,1.096,9.534,1
397,35.39649932,-97.57450963,302.6,31.12,9.101999,356,0.378,1.089,9.586,1
398,35.39665397,-97.57479997,303.3,30.88,12.136,355,0.551,1.101,9.642,1
399,35.39680043,-97.57507071,304.3,30.38,12.136,355,0.238,1.082,9.506,1
400,35.3969537,-97.57527329,308.7,28.79,10.6189995,355,0.404,1.072,9.515,1
401,35.39713182,-97.57550742,311.3,28.55,9.101999,355,0.636,1.078,9.57,1
402,35.39730995,-97.57573552,313.5,28.33,7.585,354,0.557,1.063,9.553,1
403,35.39749138,-97.57594757,316.3,28.07,7.585,355,0.709,1.109,9.85,1
404,35.39767006,-97.5761387,319.5,27.78,7.585,356,1.355,1.022,9.556,1
405,35.39787619,-97.57631357,323.7,27.51,6.068,356,1.201,1.065,9.566,1
406,35.39808689,-97.5764692,327.4,27.19,6.068,356,0.895,1.129,9.618,1
407,35.39831561,-97.5766016,331,27.03,6.068,357,0.864,1.254,9.559,1
408,35.39852695,-97.57674299,333.9,26.88,6.068,359,0.862,1.3,9.559,1
409,35.39875363,-97.57685561,337.8,26.57,4.5509996,359,0.95,1.3,9.525,1
410,35.3989791,-97.57694871,341.4,26.42,4.5509996,358,0.965,1.14,9.614,1
411,35.39920758,-97.57701563,345.2,26.34,4.5509996,358,1.302,1.03,9.622,1
412,35.39944002,-97.57706877,349.2,25.81,4.5509996,357,1.785,1.004,9.617,1
413,35.39967024,-97.57708837,354.7,25.41,4.5509996,357,1.48,0.983,9.595,0
414,35.39989564,-97.5770853,359.8,25.2,4.5509996,356,1.289,1.139,9.463,0
415,35.40012104,-97.57706219,4.5,25.09,4.5509996,355,1.02,1.058,9.584,0
419,35.40096729,-97.57678769,19.5,24.19,4.5509996,355,1.34,0.957,9.405,0
420,35.40116621,-97.57667839,24,23.76,4.5509996,354,0.551,1.084,9.549,0
421,35.40135481,-97.5765649,26,23.49,4.5509996,354,-0.722,1.151,9.616,0
422,35.4015468,-97.57646342,23.3,23.23,4.5509996,354,-1.219,1.179,9.841,1
423,35.40174303,-97.5763883,17.9,22.95,4.5509996,355,-1.104,1.172,9.81,1
424,35.40194377,-97.57633151,13.1,22.75,4.5509996,355,-0.566,1.103,9.706,0
425,35.40214208,-97.57629699,9.5,22.44,4.5509996,355,-0.554,1.203,9.735,0
426,35.40233635,-97.57627061,6.4,22.2,4.5509996,355,-0.899,1.729,9.472,0
427,35.40253326,-97.57625542,2.1,22.17,4.5509996,355,-1.532,1.979,9.539,0
428,35.40273838,-97.57626539,357.6,22.64,4.5509996,356,-0.841,2.019,9.316,0
429,35.40295187,-97.57629363,353.9,23.17,4.5509996,357,0.666,2.013,9.321,0
430,35.40316254,-97.57631239,355.4,23.8,4.5509996,358,0.887,1.706,9.352,0
431,35.40338691,-97.57632402,358.4,23.99,4.5509996,357,0.63,1.294,9.458,0
432,35.40360529,-97.57631852,0.3,23.91,4.5509996,357,0.267,1.135,9.496,1
433,35.40380899,-97.57630054,2.4,23.57,4.5509996,357,-0.012,1.083,9.468,1
434,35.4040163,-97.57628806,2.9,23.17,4.5509996,357,0.07,1.076,9.488,1
435,35.4042201,-97.57627429,2.8,22.96,4.5509996,357,0.113,1.097,9.576,1
436,35.40442234,-97.57626438,2.9,22.71,4.5509996,356,0.049,1.105,9.548,1
437,35.40462151,-97.57625475,2.6,22.39,4.5509996,356,0.024,1.092,9.556,1
438,35.40482966,-97.5762449,2.3,22.17,4.5509996,356,0.063,1.117,9.62,1
439,35.40502062,-97.57622507,2.7,21.74,4.5509996,356,0.023,1.107,9.557,1
440,35.40521268,-97.57621245,3.1,21.48,4.5509996,356,0.422,1.081,9.543,1
441,35.40540031,-97.5761962,3.9,21.12,4.5509996,356,0.435,0.93,9.548,1
442,35.40558245,-97.57616392,6.1,20.62,4.5509996,356,0.344,-0.081,9.856,1
443,35.40575426,-97.57612728,8.5,19.71,4.5509996,355,0.273,-0.312,9.967,1
444,35.40591031,-97.57609301,10.1,18.02,4.5509996,354,0.019,-0.399,10.012,0
445,35.40603871,-97.57605636,12.2,16.04,4.5509996,354,-0.275,-0.519,9.998,0
446,35.40616034,-97.57601888,13.2,13.93,4.5509996,354,-0.318,-0.755,10.019,0
447,35.4062558,-97.575996,12.2,11.68,4.5509996,355,-0.315,-0.904,10.099,0
448,35.40633185,-97.57598399,12.6,9.22,4.5509996,355,-0.237,-1.045,10.097,0
449,35.40638218,-97.57596592,12.9,6.6,4.5509996,355,-0.134,-0.828,10.011,0
450,35.40641473,-97.57595502,12.1,3.95,4.5509996,355,-0.065,0.008,9.823,0
451,35.40643475,-97.57595008,15.5,1.86,4.5509996,355,-0.022,0.475,9.712,0
452,35.40643475,-97.57595008,15.5,1.86,4.5509996,355,0.015,1.288,9.519,0
453,35.40644259,-97.57594451,0,0,4.5509996,355,0.023,1.525,9.456,0
454,35.40644259,-97.57594451,0,0,4.5509996,355,0.018,1.577,9.445,0
455,35.40644259,-97.57594451,0,0,4.5509996,355,0.02,1.592,9.441,0
456,35.40644259,-97.57594451,0,0,4.5509996,355,0.023,1.596,9.442,0
457,35.40643217,-97.57593666,16,0.32,7.585,354,0.018,1.596,9.441,0
458,35.40644746,-97.57594922,0,0,6.068,354,0.021,1.594,9.442,1
459,35.40644746,-97.57594922,0,0,6.068,354,0.018,1.594,9.44,1
460,35.40644746,-97.57594922,0,0,6.068,354,0.022,1.594,9.439,1
461,35.4064569,-97.5759602,16,0.21,4.5509996,355,0.018,1.594,9.442,1
462,35.40646505,-97.57594492,0,0,4.5509996,353,0.018,1.595,9.44,1
463,35.40646505,-97.57594492,0,0,4.5509996,353,0.018,1.595,9.442,1
464,35.40646505,-97.57594492,0,0,4.5509996,353,0.02,1.595,9.441,1
465,35.40646505,-97.57594492,0,0,4.5509996,353,0.015,1.595,9.443,1
466,35.40647407,-97.57593349,0,0,13.653,353,0.019,1.595,9.442,1
467,35.40647407,-97.57593349,0,0,13.653,353,0.021,1.594,9.444,1
468,35.40648096,-97.57592356,0,0,13.653,354,0.022,1.593,9.444,1
469,35.40648096,-97.57592356,0,0,13.653,354,0.02,1.613,9.429,1
470,35.40648096,-97.57592356,0,0,13.653,354,0.067,3.404,8.979,1
471,35.40650384,-97.57590976,14.7,2.56,13.653,355,0.103,3.757,8.9,1
472,35.40654007,-97.57589831,13.7,4.73,13.653,355,-0.639,3.537,9.007,1
473,35.4066017,-97.57588674,5.3,6.64,13.653,355,-1.369,2.741,9.278,1
474,35.40666745,-97.57589995,350.2,7.31,13.653,356,-2.763,2.487,9.225,1
475,35.40672416,-97.57595691,325,7.99,13.653,357,-3.535,2.356,9.247,0
476,35.40677706,-97.57601436,319.5,7.93,13.653,357,-3.747,2.493,9.266,0
477,35.4067911,-97.57614401,291.1,10.22,13.653,357,-1.559,2.941,9.072,0
478,35.40681787,-97.57630123,282,12.23,13.653,357,-0.584,3.044,9.082,0
479,35.4068381,-97.57644857,281.7,13.73,13.653,358,-0.242,2.936,9.149,0
481,35.40686138,-97.57662321,282.1,15.28,13.653,356,-0.131,2.802,9.099,0
482,35.40689664,-97.57680562,282.6,16.63,13.653,356,-0.094,2.677,9.197,0
483,35.40692852,-97.57699167,282.3,16.89,15.17,357,-0.081,2.505,9.241,0
484,35.4069538,-97.57717478,281.5,17.1,16.687,356,-0.29,2.267,9.236,0
485,35.40700084,-97.57743148,282.8,20.34,15.17,356,-0.279,1.789,9.382,0
486,35.40702654,-97.57765531,281.8,19.82,6.068,357,-0.305,1.404,9.484,1
487,35.40706587,-97.57785446,282.1,19.85,4.5509996,355,-0.047,1.202,9.497,1
488,35.40710402,-97.57807069,282.2,19.44,4.5509996,355,0.13,1.53,9.475,1
489,35.40714143,-97.57828574,283.6,19.63,4.5509996,357,0.605,1.701,9.458,1
490,35.4071972,-97.57849144,286.1,19.97,4.5509996,355,0.73,1.757,9.335,1
491,35.40724813,-97.57870371,289,20.41,4.5509996,355,1.387,1.367,9.523,1
492,35.40730572,-97.5789106,290.8,20.18,6.068,355,1.836,1.464,9.524,1
493,35.40740189,-97.57908442,299.4,19.46,6.068,355,1.484,1.347,9.539,1
494,35.40750961,-97.57926215,304.6,19.66,6.068,355,1.321,1.351,9.692,1
495,35.40762127,-97.57942713,309.4,19.42,7.585,356,1.354,1.477,9.504,1
496,35.40776489,-97.57959165,315.6,20.51,6.068,356,1.897,1.369,9.41,1
497,35.40790654,-97.57973582,321.1,20.06,6.068,355,1.761,1.389,9.497,1
498,35.40806429,-97.57988039,322.5,20.6,6.068,356,1.737,1.562,9.398,1
499,35.4082324,-97.57996228,331.1,20.28,6.068,355,1.861,1.931,9.366,1
500,35.40842829,-97.58006438,336.5,21.24,6.068,354,1.725,1.97,9.208,1
501,35.40861432,-97.58013608,341.2,21.78,4.5509996,354,0.644,2.028,9.345,1
502,35.40881328,-97.58021378,342.8,21.85,6.068,353,-0.085,1.994,9.382,1
503,35.40901483,-97.5802962,342.7,23,6.068,354,-0.178,1.521,9.542,1
504,35.40921275,-97.58037142,342.7,22.99,7.585,354,-0.207,1.259,9.587,1
505,35.40940694,-97.58044007,343.2,22.68,7.585,354,-0.11,1.177,9.544,1
506,35.40958988,-97.58050528,342.4,22.38,6.068,354,0.061,1.168,9.59,1
507,35.40978211,-97.58057998,342.4,22.38,7.585,354,0.12,1.186,9.522,1
508,35.40999012,-97.58065093,341.9,21.61,7.585,355,0.079,1.199,9.602,1
509,35.41017529,-97.58072475,341.9,21.61,9.101999,355,-0.305,1.45,9.528,1
510,35.41036542,-97.58082015,338.7,21.16,7.585,354,-0.952,1.683,9.582,1
511,35.41054029,-97.58091327,336.3,21.36,7.585,354,-1.708,1.722,9.51,1
512,35.41070716,-97.58100998,334.7,21.28,10.6189995,354,-1.37,1.726,9.477,1
513,35.41084914,-97.58118122,322.7,21.61,7.585,354,-1.52,1.72,9.513,1
514,35.41100411,-97.58132533,322.7,21.6,10.6189995,355,-1.311,1.608,9.537,1
515,35.41113453,-97.58153179,313,22.36,9.101999,355,-1.159,0.396,9.999,0
516,35.41124262,-97.58170522,308.5,21.18,7.585,355,-1.384,-0.575,10.129,0
517,35.41131815,-97.58187829,302.5,19.23,6.068,354,-0.962,-0.305,9.926,0
518,35.41138521,-97.58202646,296.7,16.5,6.068,353,-0.915,0.814,9.727,0
519,35.41144027,-97.58218784,294.6,16.15,6.068,353,-0.887,0.604,9.763,0
520,35.41149792,-97.58233332,292.4,15.63,7.585,352,-0.795,-0.162,10.028,0
521,35.41152604,-97.5824869,284.1,13.68,6.068,352,-0.758,0.62,9.76,0
522,35.41155219,-97.58261548,279.6,12.4,6.068,352,-0.818,2.03,9.387,0
523,35.41157086,-97.58275015,279.6,12.4,6.068,352,-0.917,2.404,9.282,0
524,35.41158085,-97.5828975,275.3,13.8,6.068,351,-0.723,2.517,9.24,0
525,35.4115882,-97.58306873,271.9,14.82,4.5509996,350,-0.393,2.531,9.183,0
526,35.4115878,-97.58324253,270.3,15.63,6.068,350,-0.3,2.467,9.227,0
527,35.4115847,-97.58342231,268.9,16.42,6.068,350,-0.208,2.395,9.221,0
528,35.41157949,-97.58361821,269.8,17.7,4.5509996,350,-0.146,2.336,9.219,0
529,35.41157667,-97.58382217,269.2,18.43,4.5509996,350,-0.084,2.256,9.212,1
530,35.4115648,-97.58427204,268.7,19.84,6.068,350,-0.156,2.231,9.328,1
531,35.41155929,-97.5845043,269.1,20.6,6.068,350,-0.059,2.194,9.318,1
532,35.41156679,-97.58475137,269.5,21.06,6.068,350,0.033,2.17,9.332,1
533,35.41155795,-97.58498667,269.3,21.53,4.5509996,350,0.054,2.157,9.352,1
534,35.41156015,-97.58523484,269.6,22.12,4.5509996,351,0.027,2.14,9.355,1
535,35.41155476,-97.58548256,269.8,22.44,6.068,352,-0.043,1.701,9.444,1
536,35.41157052,-97.58574374,270.3,22.3,6.068,350,-0.134,1.518,9.473,1
537,35.41155863,-97.58599029,269.7,22.09,7.585,349,-0.159,1.513,9.518,1
538,35.41155514,-97.58623356,270,21.91,7.585,349,-0.035,1.533,9.444,1
539,35.41155544,-97.58647187,270.2,21.77,7.585,350,-0.031,1.606,9.473,1
540,35.41155467,-97.58671867,270.1,21.78,7.585,353,-0.09,1.63,9.415,1
541,35.41156123,-97.58696053,270.2,21.78,9.101999,353,-0.109,1.647,9.387,1
542,35.4115797,-97.58721674,271.2,21.97,9.101999,351,-0.149,1.635,9.357,1
543,35.41158383,-97.58745996,269.9,21.84,10.6189995,351,-0.148,1.659,9.495,1
544,35.41159158,-97.58769981,270.3,21.87,10.6189995,350,-0.103,1.637,9.399,1
545,35.41160143,-97.58795139,270.2,21.9,10.6189995,349,-0.099,1.622,9.348,1
546,35.41159923,-97.58818827,269.7,21.96,9.101999,348,-0.081,1.622,9.41,1
547,35.41159466,-97.58843301,269.8,21.98,9.101999,348,-0.107,1.595,9.342,1
548,35.41159281,-97.58867597,270,22.37,10.6189995,348,-0.073,1.565,9.307,1
549,35.41159394,-97.5889071,270.1,22.4,10.6189995,348,-0.016,1.542,9.474,1
550,35.41158696,-97.58915476,270.1,22.6,9.101999,348,-0.007,1.498,9.497,1
551,35.41158739,-97.58940514,270.1,22.52,9.101999,348,-0.031,1.441,9.428,1
553,35.41158785,-97.58965311,270.1,22.52,10.6189995,348,-0.076,1.434,9.53,1
554,35.4115683,-97.58989448,270.1,22.55,9.101999,349,-0.178,1.383,9.493,1
555,35.41157326,-97.59013936,269.5,22.45,9.101999,349,-0.151,1.383,9.54,1
556,35.41156899,-97.59038492,269.7,22.48,7.585,349,0.011,1.368,9.489,1
557,35.41156901,-97.59063308,270,22.4,7.585,348,0.009,1.399,9.544,1
558,35.41154771,-97.59086327,269.7,22.09,9.101999,345,-0.021,1.203,9.571,1
559,35.41154651,-97.59110645,269.7,22.08,10.6189995,345,-0.007,1.099,9.56,1
560,35.41154159,-97.59135872,270.4,21.53,9.101999,345,-0.016,1.116,9.617,1
561,35.41154567,-97.59159069,270.7,21.23,9.101999,344,-0.074,1.111,9.566,1
562,35.41154275,-97.59181273,270.4,20.77,10.6189995,344,0.005,1.112,9.563,1
563,35.41155557,-97.5920443,270.5,20.23,7.585,345,0.024,1.266,9.501,1
564,35.41155854,-97.59226551,270.8,20.01,7.585,345,-0.033,1.514,9.435,1
565,35.4115575,-97.59248385,270.4,20.08,7.585,345,0.037,1.35,9.387,1
566,35.41156206,-97.59271384,270.5,20.05,7.585,346,0.055,1.164,9.485,1
567,35.41156221,-97.5929217,270.7,19.6,6.068,346,0.04,1.124,9.483,1
568,35.41156844,-97.59313595,271.4,19.42,6.068,346,-0.109,1.102,9.498,1
569,35.41157485,-97.59334525,271.6,19.25,6.068,347,-0.33,1.123,9.609,1
570,35.41158256,-97.59355353,271.6,18.96,7.585,346,-0.723,0.952,9.638,1
571,35.41157782,-97.59375006,269.3,18.37,6.068,346,-0.972,0.571,9.825,1
572,35.4115685,-97.59394049,266.9,17.3,6.068,348,-0.485,0.109,9.917,1
573,35.41156708,-97.59412177,265.9,15.95,6.068,350,0.191,-0.116,9.866,1
574,35.4115567,-97.59427499,266.8,14.24,4.5509996,350,0.519,-0.31,9.859,1
575,35.41155169,-97.59441383,269,12.24,6.068,351,0.303,-0.491,9.913,1
576,35.41155315,-97.59452353,270.8,10.18,4.5509996,351,0.023,-0.962,10.008,0
577,35.41155356,-97.59460947,273.8,8.29,6.068,351,-0.011,-1.06,10.079,0
578,35.41155017,-97.5946544,269.6,4.92,6.068,351,-0.014,-1.433,10.155,0
579,35.41155754,-97.59467121,270.7,1.8,6.068,352,0.044,0.229,9.768,0
580,35.41155754,-97.59467121,270.7,1.8,6.068,352,0.079,1.095,9.562,0
581,35.41156401,-97.59467947,270.7,0.37,4.5509996,353,0.086,1.272,9.519,0
582,35.41156401,-97.59467947,270.7,0.37,4.5509996,353,0.089,1.516,9.457,0
583,35.41156401,-97.59467947,270.7,0.37,4.5509996,353,0.053,3.261,9.021,0
584,35.41156068,-97.59469328,264,2.21,4.5509996,353,-1.005,3.709,8.91,0
585,35.4115586,-97.59471748,264,2.21,6.068,353,-2.892,3.165,9.09,0
586,35.41152338,-97.59479029,229.4,5.33,6.068,353,-2.616,2.88,9.298,0
587,35.41149212,-97.59483495,229.4,5.33,9.101999,352,-1.711,2.821,9.24,0
588,35.41137849,-97.59480516,189.1,8.26,7.585,353,-0.803,2.857,9.159,0
589,35.41128721,-97.59482393,180.7,9.85,7.585,352,-0.248,2.851,9.22,0
590,35.41118349,-97.59481152,177.4,11.41,7.585,352,0.187,2.815,9.165,0
591,35.41106526,-97.5948175,179.9,13.11,7.585,352,0.093,2.765,9.177,0
592,35.41094652,-97.59481882,181,13.38,7.585,352,-0.162,2.661,9.208,0
593,35.41081122,-97.59481591,179.5,14.57,9.101999,353,-0.075,2.603,9.25,0
594,35.41065951,-97.5948234,180.3,15.65,7.585,353,0.011,2.504,9.141,0
595,35.41051181,-97.5948146,179.2,16.33,7.585,353,0.025,2.439,9.184,1
596,35.41032272,-97.59481414,180.2,17.93,6.068,353,-0.012,2.115,9.334,1
597,35.41016105,-97.59481474,180.2,17.93,7.585,353,-0.064,1.989,9.314,1
598,35.40999835,-97.59481119,179.7,18.06,9.101999,353,-0.032,1.655,9.425,1
599,35.40980286,-97.5947979,180,19.06,7.585,354,0.033,1.294,9.568,1
600,35.40962705,-97.59480234,180,18.55,7.585,354,0.016,1.196,9.569,1
