time,lat,lng,bearing,spd,acc,alt,accx,accy,accz,stable
0,35.36197514,-97.49477001,359.5,30.554424,3,365,-1.093,3.56,9.552,0
1,35.36224893,-97.49477025,359.5,30.493174,3,365,-1.315,3.336,8.903,0
2,35.36252418,-97.4947714,359.5,30.501024,3,366,-1.122,3.52,9.345,0
3,35.36279726,-97.49478451,359.4,30.421028,3,366,-1.171,3.027,8.296,0
4,35.36306884,-97.49479582,359.3,30.370476,3,367,-1.138,3.176,8.769,0
5,35.36334326,-97.494799,359.3,30.470058,3,367,-1.301,3.439,9.102,0
6,35.36361982,-97.49479978,359.2,30.670027,3,367,-1.191,3.594,9.472,0
7,35.36390076,-97.4947991,359.3,30.920273,3,366,-0.835,3.52,9.542,0
8,35.36417846,-97.49479827,359.2,31.161644,3,365,-1.086,3.305,9.746,0
9,35.36445691,-97.49480167,359.2,31.351954,3,364,-1.151,3.318,9.688,0
10,35.3647444,-97.49479669,359.2,31.532055,3,364,-0.912,3.092,9.789,0
11,35.3650329,-97.49480636,359.3,31.570766,3,363,-1.087,3.249,9.599,0
12,35.36531917,-97.49480923,359.4,31.550356,3,362,-1.172,3.09,9.678,0
13,35.36559573,-97.49480888,359.4,31.46004,3,361,-1.225,3.029,9.591,0
14,35.36587907,-97.49481492,359.3,31.33004,3,362,-1.266,3.192,9.96,0
15,35.36616235,-97.49481905,359.3,31.180271,3,362,-0.966,3.164,9.812,0
16,35.36644076,-97.49482859,359,30.991009,3,362,-1.07,3.412,9.49,0
17,35.36671854,-97.49483367,359.1,30.791563,3,363,-0.955,3.116,9.622,0
18,35.36699159,-97.49483805,359.2,30.531475,3,363,-0.798,2.963,9.439,0
19,35.36726249,-97.4948456,359.3,30.051598,3,363,-1.216,2.942,9.448,0
20,35.36752857,-97.49484621,359.5,29.571232,3,364,-1.022,2.916,9.646,0
21,35.36779399,-97.49484834,359.6,29.140556,3,364,-1.06,2.791,9.398,0
22,35.36805162,-97.49485344,359.7,28.64118,3,365,-1.087,3.012,9.389,0
23,35.36829859,-97.49486464,359.4,28.23051,3,366,-1.017,2.981,9.35,0
24,35.36855389,-97.49486379,359.4,27.850145,3,365,-0.997,2.855,9.564,0
25,35.36880075,-97.49486752,359.3,27.401329,3,366,-1.057,2.788,9.101,0
27,35.36904616,-97.49487001,359.4,26.95107,3,366,-1.226,3.097,9.177,0
28,35.36928338,-97.49487311,359.4,26.620543,3,367,-1.155,3.257,9.493,0
29,35.36952698,-97.49487789,359.3,26.470188,3,366,-1.205,3.386,9.209,0
30,35.36976543,-97.49488201,359.3,26.400484,3,367,-1.244,3.721,9.474,0
31,35.37000036,-97.49488274,359.2,26.750317,3,368,-1.127,3.599,9.172,0
32,35.37025005,-97.49487894,359.1,27.190311,3,367,-0.86,3.444,9.381,0
33,35.37049952,-97.49488567,359,27.620262,3,368,-1.154,3.464,9.307,0
34,35.37075134,-97.49489293,359.2,27.860304,3,368,-1.205,3.402,9.297,0
35,35.37099802,-97.49490949,359.1,28.11035,3,368,-1.056,3.544,9.235,0
36,35.37125289,-97.49491538,359.1,28.370298,3,368,-0.815,3.03,9.438,0
37,35.37175983,-97.4949233,359.5,27.880114,3,369,-1.011,3.028,9.609,0
38,35.37200782,-97.49492963,359.3,27.570147,3,370,-1.069,3.046,9.533,0
39,35.37224989,-97.49493407,359.3,27.091774,3,370,-0.987,2.936,9.311,0
40,35.37249101,-97.49494625,359.3,26.740269,3,369,-1.078,2.863,9.417,0
41,35.37273089,-97.49495698,359.4,26.32019,3,369,-1.226,2.848,9.476,0
42,35.37296642,-97.49496262,359.6,25.920124,3,369,-0.843,2.914,9.498,0
43,35.37319743,-97.49494914,0.3,25.590563,3,370,-0.815,3.062,9.451,0
44,35.37342536,-97.49494315,1.1,25.400284,3,370,-0.925,3.224,9.306,0
45,35.37365467,-97.49493515,1.1,25.280334,3,370,-1.078,3.002,9.521,0
46,35.37386847,-97.49493606,0.7,24.920242,3,372,-1.264,2.879,9.528,0
47,35.37408849,-97.49493384,0.5,24.680292,3,372,-1.114,3.283,9.618,0
48,35.37431128,-97.49492803,0.6,24.810163,3,373,-1.2,3.559,9.45,0
49,35.37453648,-97.49492532,0.6,25.040129,3,374,-1.647,3.287,9.116,0
50,35.37476502,-97.4949209,359.8,25.17024,3,374,-1.227,3.54,9.568,0
51,35.37499577,-97.49491679,359.7,25.320238,3,373,-1.231,3.464,9.433,0
52,35.37523017,-97.49491653,359.7,25.441132,3,373,-0.958,3.489,9.561,0
53,35.37545849,-97.49491859,359.8,25.530949,3,373,-1.073,3.3,9.47,0
54,35.37569109,-97.49491365,359.8,25.412842,3,374,-0.969,3.567,9.312,0
55,35.37592268,-97.49491946,359.6,25.563288,3,374,-1.074,3.732,9.237,0
56,35.37615955,-97.49491751,359.8,25.942497,3,374,-1.096,3.936,9.124,0
57,35.37639837,-97.49492419,359.9,26.451818,3,374,-1.239,3.885,9.163,0
58,35.37663868,-97.49492858,359.9,26.951784,3,375,-1.001,3.795,8.827,0
59,35.3768826,-97.49492827,0,27.310884,3,376,-0.861,3.868,9.626,0
60,35.37713363,-97.49492603,359.8,27.870647,3,376,-1.187,2.644,8.493,0
61,35.37738356,-97.49492586,359.8,27.680305,3,377,-1.003,2.924,9.081,0
62,35.377624,-97.49493262,359.9,27.370018,3,378,-1.124,3.033,9.296,0
63,35.37786428,-97.4949332,359.9,27.070017,3,378,-1.254,2.459,10.106,0
64,35.37810941,-97.49492642,359.9,26.85012,3,379,-1.391,2.705,9.441,0
65,35.3783499,-97.49491788,359.9,26.68054,3,378,-1.365,2.976,9.323,0
66,35.37859187,-97.4949112,359.8,26.520912,3,377,-1.458,2.967,9.145,0
67,35.37882893,-97.49490835,359.7,26.40128,3,377,-1.075,2.398,9.363,0
68,35.37906238,-97.49491165,359.4,25.86174,3,376,-1.095,2.562,9.695,0
69,35.37929013,-97.49491627,359.4,25.281902,3,375,-0.884,2.972,9.53,0
70,35.37951441,-97.49491473,359.7,25.17179,3,375,-1.071,3.104,9.541,0
71,35.37974102,-97.49491228,359.9,25.121347,3,375,-1.139,3.228,9.356,0
72,35.37996912,-97.49491564,359.8,25.150574,3,375,-1.257,3.574,9.574,0
73,35.38020273,-97.49491291,359.8,25.550236,3,375,-0.789,3.846,9.111,0
74,35.38043977,-97.49490944,0.3,26.050156,3,375,-0.723,3.848,9.172,0
75,35.38068174,-97.4949085,1.2,26.470016,3,374,-1.014,2.97,9.459,0
76,35.38092252,-97.49489594,2,26.620031,3,374,-1.274,2.799,9.523,0
77,35.38115991,-97.49488642,1.8,26.500229,3,375,-1.65,2.844,8.851,0
78,35.38139916,-97.49486214,1.1,26.330427,3,375,-1.408,2.952,8.956,0
79,35.38163622,-97.4948614,0.1,26.080431,3,373,-0.889,2.781,9.652,0
80,35.38187194,-97.49486737,359.8,26.04249,3,373,-1.139,2.914,9.186,0
81,35.3821101,-97.49486404,359.7,26.012632,3,372,-0.77,3.014,9.481,0
82,35.38234663,-97.49486641,359.7,25.995003,3,371,-0.916,2.921,9.569,0
83,35.38257786,-97.49486341,359.9,26.046022,3,371,-0.938,2.904,9.347,0
84,35.38281194,-97.49486459,359.9,26.117125,3,370,-0.918,3.049,9.384,0
85,35.38304984,-97.49487028,359.8,26.207336,3,369,-0.963,2.752,9.564,0
86,35.38328462,-97.49486851,359.7,26.318275,3,368,-0.951,2.927,9.625,0
87,35.38352062,-97.49486962,359.7,26.418245,3,367,-1.045,3.13,9.47,0
88,35.38376041,-97.49487174,359.7,26.506567,3,366,-0.998,3.076,9.659,0
90,35.38399855,-97.49487738,359.7,26.586111,3,365,-0.841,2.725,9.555,0
91,35.38423871,-97.49487851,359.7,26.564337,3,364,-1.163,2.621,9.66,0
92,35.38447471,-97.49488065,359.6,25.941204,3,364,-0.932,2.724,9.711,0
93,35.38470081,-97.49489251,358.8,25.390282,4,363,-0.923,2.973,9.616,0
94,35.38493027,-97.4948861,359.9,25.280003,3,363,-1.216,2.816,9.604,0
95,35.38515821,-97.4948822,359.9,24.93002,3,363,-1.161,2.941,9.351,0
96,35.38538036,-97.49488245,0,24.710032,3,363,-0.875,3.035,9.434,0
97,35.38559787,-97.49488335,359.9,24.380295,3,363,-0.765,3.069,9.464,0
98,35.38581941,-97.49488483,0.4,24.040134,3,363,-0.882,3.177,9.161,0
99,35.38602702,-97.49487645,1.6,23.720682,3,364,-0.82,3.014,9.315,0
100,35.38644923,-97.49485161,3.4,23.160078,3,364,-0.743,3.037,9.207,0
101,35.38665294,-97.49483639,4.1,22.900078,3,364,-1.005,2.943,9.557,0
102,35.38685677,-97.49481415,4.7,22.48001,3,364,-0.835,2.308,9.675,0
103,35.3870452,-97.49479039,5,21.340189,3,363,-0.886,2.067,9.68,0
104,35.38724338,-97.49475213,4.6,20.58041,3,361,-1.227,2.965,9.738,0
105,35.38742023,-97.49474003,3.6,20.360159,3,361,-0.911,2.72,9.49,0
106,35.38760413,-97.49472686,2.7,20.330061,3,361,-1.072,3.68,9.756,0
107,35.38779243,-97.49472948,1.3,20.7,3,361,-1.159,3.202,9.558,0
108,35.38797631,-97.49472429,0.3,20.510088,3,361,-1.029,3.099,9.615,0
109,35.38815511,-97.4947214,0,20.27001,3,361,-0.151,3.243,8.804,0
110,35.38833792,-97.49471892,0,20.24,3,361,-0.876,3.804,9.093,0
111,35.38852899,-97.4947215,359.8,20.780062,3,361,-1.053,3.748,9.055,0
112,35.38871968,-97.49472237,359.7,21.32015,3,361,-0.876,3.185,9.196,0
113,35.38890857,-97.49472129,359.6,21.350021,3,361,-0.873,3.248,9.46,0
114,35.38909618,-97.49471769,359.6,21.270002,3,362,-0.876,3.78,9.667,0
115,35.38929082,-97.49472492,359.6,21.690083,3,362,-0.885,3.582,9.346,0
116,35.38948602,-97.4947331,359.2,21.970009,3,362,-1.215,3.837,9.383,0
117,35.38968611,-97.49474591,358.1,22.390036,3,363,-1.244,3.785,9.22,0
118,35.38989365,-97.49477353,357.3,23.070078,3,362,-0.839,3.487,9.409,0
119,35.39010624,-97.49478909,357.1,23.370077,3,362,-0.653,3.02,9.48,0
120,35.39031382,-97.49480136,357.3,23.160055,3,362,-0.586,2.895,9.546,0
121,35.39051624,-97.49480889,357.6,22.860022,3,362,-0.471,2.817,9.732,0
122,35.39072226,-97.49481958,358,22.610003,3,361,-0.594,2.946,9.754,0
123,35.39092736,-97.49483124,358.3,22.36008,3,361,-0.448,2.91,9.463,0
124,35.39112474,-97.49482692,359.2,22.010036,3,360,-0.155,2.301,9.553,0
125,35.39131487,-97.49483346,0.8,21.270151,3,360,-0.363,1.108,9.969,0
126,35.39148353,-97.49483241,1.3,19.360167,3,361,-0.65,0.682,10.252,0
127,35.3916261,-97.49481921,1.2,16.490303,3,360,-0.751,1.784,9.951,0
128,35.39177683,-97.49481848,0.7,16.23,4,360,-0.864,1.569,9.713,0
129,35.39190265,-97.49482051,359.9,15.01,6,360,-1.183,2.889,9.704,0
130,35.39198738,-97.49482169,0.2,12.5611515,4,360,-1.004,1.837,9.663,0
131,35.39208674,-97.49482074,0.1,11.850039,5,360,0.087,3.545,9.774,0
132,35.3921812,-97.49482448,1.7,10.620019,4,360,0.243,3.24,9.562,0
133,35.39228677,-97.49476174,8.1,10.5103855,3,358,0.387,2.99,9.357,0
134,35.39237659,-97.49472149,16,10.07,3,358,0.161,3.033,9.719,0
135,35.39245595,-97.49467435,24.4,10.000005,3,358,0.439,2.858,9.854,0
136,35.39252289,-97.49462193,36.5,9.541027,3,358,0.471,3.963,9.464,0
137,35.39257482,-97.49454188,50.9,9.750005,3,358,0.832,4.259,9.301,0
138,35.39262731,-97.49445845,52.7,9.830046,4,358,0.894,4.422,9.247,0
139,35.39262132,-97.49431479,79.3,11.55007,3,358,1.469,3.721,10.216,0
140,35.39261241,-97.49418243,94,12.010067,3,358,1.398,3.337,9.737,0
141,35.392567,-97.49405997,109.5,11.60007,3,359,0.863,3.698,9.325,0
142,35.39250413,-97.49395692,124,11.305419,3,360,0.865,3.371,9.608,0
143,35.39244286,-97.49386781,129,10.890556,3,360,0.532,3.334,9.661,0
144,35.39234934,-97.49382786,150.3,10.170708,3,360,0.642,3.447,9.648,0
145,35.39226533,-97.49379741,162.8,9.973931,3,361,0.557,3.574,9.425,0
146,35.39217132,-97.49378734,173.4,10.1204,3,361,0.549,3.876,9.47,0
147,35.39208614,-97.49381618,188.2,10.09,3,361,0.563,4.13,9.458,0
148,35.39200243,-97.49386881,202.1,10.171593,3,361,-0.055,4.403,9.221,0
149,35.3919287,-97.49393913,213.1,10.945282,3,363,1.442,4.051,9.221,0
150,35.39184939,-97.49402153,219.2,11.11238,3,363,1.395,4.351,9.864,0
151,35.39181365,-97.49415217,243.5,11.522296,3,364,1.593,4.797,9.129,0
152,35.39178744,-97.49428709,254.6,12.241046,3,365,1.541,4.709,9.377,0
154,35.39175688,-97.49442284,255.2,12.710193,4,365,-0.296,4.703,8.789,0
155,35.39173311,-97.49456928,257,13.330094,5,366,-0.75,4.659,9.193,0
156,35.39176239,-97.49473289,271.4,13.801598,4,367,-0.858,5.223,8.937,0
157,35.39182412,-97.49495794,279.7,17.320045,3,366,-1.525,5.504,8.724,0
158,35.39185994,-97.49517347,279.5,19.420002,3,367,-1.645,5.461,8.816,0
159,35.39189948,-97.49542,278.5,21.720036,3,367,-1.319,4.496,8.733,0
160,35.39193358,-97.49566903,277.6,22.52008,3,367,-0.702,3.635,9.518,0
161,35.39195845,-97.49593753,276.9,23.560102,3,366,-1.043,3.679,9.55,0
162,35.39198433,-97.49621078,276.9,24.17001,4,367,-1.372,3.118,9.35,0
163,35.39204688,-97.49679384,276.6,25.29024,3,366,-1.491,2.848,9.412,0
164,35.39203652,-97.49707871,274.6,25.280008,4,367,-0.959,3.169,9.395,0
165,35.39204524,-97.49735363,274,25.360008,4,367,-1.104,3.13,9.15,0
166,35.39204369,-97.49764164,272.7,25.720123,4,367,-0.903,3.177,9.545,0
167,35.39205919,-97.49792885,271.8,26.42232,4,365,-0.953,3.199,9.389,0
168,35.39206139,-97.49820729,270.8,26.591927,4,365,-1.235,3.05,9.727,0
169,35.39207079,-97.49849866,270.4,26.550423,4,365,-1.261,3.375,9.794,0
170,35.39208509,-97.4987972,269.9,26.840187,3,365,-1.239,3.701,9.395,0
171,35.39207728,-97.49910019,269.7,27.330017,3,366,-1.097,3.745,9.656,0
172,35.39207664,-97.4993957,269.9,27.780088,3,366,-1.184,3.546,9.248,0
173,35.39207735,-97.49969644,269.8,28.210114,3,364,-1.164,3.706,9.291,0
174,35.39207505,-97.49999771,269.8,28.650173,3,363,-1.236,3.598,9.148,0
175,35.39207703,-97.50032533,269.7,29.070248,3,363,-1.216,3.784,9.094,0
176,35.39207148,-97.50065267,269.8,29.480286,3,364,-1.028,3.662,9.298,0
177,35.39206279,-97.50096873,270,29.86,3,364,-0.973,3.519,9.231,0
178,35.39205705,-97.50130364,269.7,30.330002,3,364,-0.886,3.497,8.997,0
179,35.39204752,-97.50164381,269.6,30.82004,3,365,-1.132,3.624,9.084,0
180,35.39203489,-97.50199393,269.4,31.350193,3,365,-1.18,3.754,9.343,0
181,35.39202649,-97.50234945,269.3,31.860628,3,365,-1.016,3.188,9.327,0
182,35.39203979,-97.50268435,269.5,31.841413,3,364,-1.093,2.987,9.358,0
183,35.39204152,-97.50302557,269.5,31.881319,3,363,-1.09,2.937,9.257,0
184,35.39204099,-97.50337774,269.4,32.061054,3,363,-1.027,3.134,9.283,0
185,35.39204415,-97.50372639,269.6,32.141052,3,362,-1.087,3.151,9.172,0
186,35.39204015,-97.50408176,269.5,32.26089,3,362,-1.104,2.995,9.41,0
187,35.39202925,-97.50444525,269.5,32.27082,3,362,-0.921,2.857,9.479,0
188,35.39202648,-97.50479172,269.5,32.081055,3,361,-0.858,3.168,9.52,0
189,35.39203256,-97.50515658,270,32.3105,3,360,-0.72,3.219,9.564,0
190,35.39203438,-97.50551162,270.4,32.280125,3,360,-1.358,3.054,9.687,0
191,35.39204457,-97.50587299,270.7,32.350124,3,360,-1.295,3.031,9.567,0
192,35.39204302,-97.50621265,270,31.980076,3,359,-1.218,2.864,9.356,0
193,35.39203917,-97.50655246,270,31.65,3,360,-1.171,2.831,9.23,0
194,35.39205486,-97.50691127,270.1,31.33013,4,360,-1.009,3.005,9.516,0
195,35.39206208,-97.50726225,270,31.41,4,360,-1.146,3.195,9.708,0
196,35.39205888,-97.50760049,269.7,30.940002,4,360,-1.169,3.215,9.532,0
197,35.39204929,-97.50793356,269.6,30.79,4,360,-0.858,3.065,9.41,0
198,35.39203945,-97.50826653,269.6,30.630196,4,360,-0.981,3.144,9.661,0
199,35.3920426,-97.50859668,269.9,30.47008,4,360,-1.009,3.148,9.53,0
200,35.39203307,-97.50892218,269.6,30.230324,4,360,-1.353,3.063,9.352,0
201,35.39203197,-97.50925941,269.7,30.140478,4,360,-1.176,3.104,9.483,0
202,35.3920252,-97.50959075,269.6,29.940428,3,360,-0.959,3.181,9.614,0
203,35.39202993,-97.50992623,269.6,29.771137,3,360,-1.002,3.17,9.573,0
204,35.39203334,-97.51025131,269.8,29.510977,3,360,-0.836,3.121,9.26,0
205,35.39203343,-97.51056644,269.7,29.292091,3,360,-0.879,3.183,9.865,0
206,35.39203186,-97.51088274,270.1,29.07318,3,361,-1.05,3.127,9.462,0
207,35.39203992,-97.51120591,270.2,28.863356,3,361,-1.322,2.975,9.384,0
208,35.39205022,-97.51152819,270.3,28.651272,3,361,-1.175,3.027,9.027,0
209,35.39204504,-97.51182874,269.5,28.410852,3,361,-1.256,3.07,9.498,0
210,35.39203965,-97.51214077,269.2,28.310934,3,361,-0.831,3.348,9.457,0
211,35.3920339,-97.51245443,268.7,28.350254,3,362,-1.045,3.351,9.269,0
213,35.39202897,-97.51276748,268.8,28.300007,3,362,-0.976,3.067,9.125,0
214,35.39202215,-97.51307703,269.1,28.300085,3,362,-0.885,3.02,9.374,0
215,35.39202401,-97.51338486,269.5,28.290573,3,362,-0.989,2.944,9.129,0
216,35.39201592,-97.51368882,269.6,28.281105,3,361,-1.034,2.925,9.03,0
217,35.39202473,-97.51399945,269.4,28.302826,3,360,-1.04,2.968,9.27,0
218,35.39201718,-97.51431397,268.8,28.333261,3,360,-0.983,2.816,9.528,0
219,35.39201267,-97.51463163,268.2,28.403564,3,359,-0.99,2.847,10.032,0
220,35.39199729,-97.51493935,267.5,28.312288,3,358,-1.249,2.721,9.826,0
221,35.39198894,-97.51524625,266.9,27.941404,3,357,-1.121,3.159,9.479,0
222,35.39195615,-97.51586061,264.5,28.100258,3,356,-1.512,3.492,9.117,0
223,35.39192552,-97.51617822,262.8,28.620342,3,356,-1.601,3.486,9.326,0
224,35.39188428,-97.51649861,261.1,29.090387,3,355,-0.921,3.459,9.216,0
225,35.39183586,-97.51682471,260.7,29.570488,3,355,-0.804,3.67,9.265,0
226,35.39179569,-97.51715843,261.1,30.090479,3,355,-0.655,3.593,9.319,0
227,35.39175343,-97.51750364,261.7,30.670528,3,355,-0.942,3.666,9.154,0
228,35.39171683,-97.51785441,261.9,31.200579,3,354,-1.194,3.687,9.368,0
229,35.39168165,-97.51820686,261.9,31.680159,3,354,-1.165,3.754,9.473,0
230,35.39164056,-97.51856274,262,32.0901,3,354,-0.931,3.791,9.532,0
231,35.39159492,-97.51891638,262,32.36075,3,354,-0.976,3.821,9.639,0
232,35.39155984,-97.51927225,262.1,32.552216,3,355,-0.773,3.792,9.624,0
233,35.39152669,-97.51962919,263,32.60399,3,356,-0.329,3.545,9.601,0
234,35.39150248,-97.51998983,264.4,32.69352,3,357,-0.16,3.557,9.113,0
235,35.39148253,-97.52035234,266,32.94243,3,358,-0.417,3.682,9.208,0
236,35.39146849,-97.52071289,267.1,32.940945,3,358,-0.718,3.673,8.942,0
237,35.39145526,-97.52108061,267.7,33.32025,3,359,-0.764,3.311,8.769,0
238,35.39144348,-97.52145393,268.5,33.730072,3,359,-0.283,3.41,9.44,0
239,35.39144008,-97.52182313,269.8,33.700012,3,359,-0.834,2.994,9.166,0
240,35.39143973,-97.52217194,270,33.360252,3,358,-0.976,2.737,8.956,0
241,35.39144151,-97.5225323,270.1,33.150944,3,358,-1.206,2.853,8.947,0
242,35.39143349,-97.522907,269.9,33.03242,3,358,-1.006,2.846,9.334,0
243,35.39145074,-97.52324675,270.3,32.845123,4,355,-1.151,2.696,9.169,0
244,35.39144203,-97.52361191,269.9,32.82075,3,354,-1.057,2.849,9.548,0
245,35.39144334,-97.52397586,269.8,32.829994,3,352,-0.836,2.762,9.574,0
246,35.39144154,-97.52433563,270,32.779766,3,351,-1.016,2.892,9.733,0
247,35.39144052,-97.52469798,269.9,32.763515,3,350,-1.172,2.841,9.551,0
248,35.39143688,-97.52505818,269.9,32.571476,4,349,-1.057,2.915,9.751,0
249,35.39143564,-97.5254104,270,32.320618,5,349,-1.14,2.883,9.834,0
250,35.39144078,-97.52576954,269.9,32.170074,4,349,-1.031,2.941,10.003,0
251,35.39144119,-97.52611566,270,31.63004,4,349,-1.143,3.143,9.654,0
252,35.39143731,-97.52645819,270,31.410515,4,349,-1.194,3.364,9.686,0
253,35.3914341,-97.52680121,269.9,31.322186,4,350,-0.968,3.517,9.74,0
254,35.39143248,-97.527129,270,31.11386,5,350,-1.36,3.393,9.467,0
255,35.39142698,-97.52746015,270.1,30.762732,5,351,-1.186,3.376,9.703,0
256,35.39142621,-97.52779451,270.1,30.52289,5,351,-1.2,3.609,9.396,0
257,35.39142274,-97.52813933,269.9,30.72016,4,353,-1.163,3.578,9.355,0
258,35.39141635,-97.52847287,269.9,30.697983,4,354,-1.102,3.505,8.958,0
259,35.39141433,-97.52880698,270,30.683012,4,355,-0.973,3.538,9.234,0
260,35.39140888,-97.52914655,270,30.813583,4,356,-1.022,3.579,9.389,0
261,35.39140789,-97.52949035,270.3,30.961357,4,357,-1.196,3.52,8.749,0
262,35.39140705,-97.52983932,270.1,31.19041,4,357,-1.059,3.465,9.578,0
263,35.39140818,-97.53019035,269.9,31.470057,4,357,-0.901,3.177,8.623,0
264,35.39141102,-97.53053833,269.9,31.61004,4,357,-0.951,2.945,9.311,0
265,35.39140924,-97.53087831,269.9,31.400229,4,356,-1.128,2.781,9.372,0
266,35.39140864,-97.53122204,270,31.29064,4,356,-1.163,2.735,9.386,0
267,35.39140706,-97.53156348,269.9,31.171444,4,356,-1.359,2.792,9.5,0
268,35.39140987,-97.53190381,270,31.061752,4,355,-1.213,2.806,9.906,0
269,35.39141147,-97.5322359,270,30.771015,4,355,-1.057,2.909,9.696,0
270,35.39140051,-97.53256054,269.6,30.45028,4,355,-0.942,3.105,9.559,0
271,35.39140693,-97.53290338,270,30.570059,4,355,-0.737,3.195,9.424,0
272,35.39141528,-97.53324468,270.7,30.520002,4,355,-1.016,3.129,9.381,0
273,35.39141555,-97.53358198,271.3,30.44008,4,356,-1.157,3.085,9.337,0
274,35.39141845,-97.53391215,271.7,30.390059,4,356,-1.292,3.103,9.446,0
275,35.39142286,-97.5342456,271.6,30.290028,4,356,-1.385,3.08,9.537,0
277,35.39142521,-97.5345672,270.9,30.010042,4,355,-1.214,3.463,9.539,0
278,35.39142941,-97.53489591,270.6,30.130001,4,355,-0.983,3.576,9.142,0
279,35.3914258,-97.53522358,270,30.33,4,355,-1.088,3.635,9.205,0
280,35.39142227,-97.53556486,269.1,30.910196,4,355,-0.981,3.653,9.245,0
281,35.39142544,-97.53590546,269.9,31.040026,3,355,-1.128,3.098,9.436,0
282,35.39141679,-97.53625043,269.9,31.250103,3,355,-1.155,3.343,9.325,0
283,35.39142036,-97.53658251,270.1,30.960001,3,355,-0.956,3.422,9.339,0
284,35.39141933,-97.53692226,270.1,31.010103,3,356,-1.112,3.399,9.63,0
285,35.39141894,-97.53727284,269.9,31.120079,3,355,-1.077,3.124,9.53,0
286,35.39141828,-97.53760201,269.9,31.11071,3,355,-0.975,3.356,9.265,0
287,35.39141415,-97.53829448,269.9,30.92176,3,356,-0.822,3.27,9.196,0
288,35.39141434,-97.53863492,270.2,30.821661,3,356,-0.981,3.186,9.168,0
289,35.39141428,-97.53896692,270.2,30.711565,3,356,-0.744,3.283,9.211,0
290,35.39141595,-97.53930311,270.3,30.601675,3,357,-0.988,3.181,9.169,0
291,35.39142107,-97.53964307,270.6,30.520592,4,357,-1.154,3.143,9.13,0
292,35.39142697,-97.53998434,270,30.590105,3,357,-1.169,3.111,9.318,0
293,35.39142232,-97.54032558,269.8,30.700008,4,357,-1.018,3.31,9.289,0
294,35.39143494,-97.54066401,270.2,30.830025,5,357,-0.672,3.418,9.446,0
295,35.39143401,-97.54100396,270.1,30.930132,5,357,-0.928,3.327,9.38,0
296,35.39145174,-97.54134069,270.5,30.99013,6,357,-1.116,3.298,9.51,0
297,35.39145259,-97.54168145,270.1,31.03004,4,357,-1.138,3.316,9.357,0
298,35.39144712,-97.5420285,269.8,31.15,4,357,-1.031,3.246,9.088,0
299,35.39145079,-97.5423787,269.8,31.120016,4,357,-1.185,3.17,9.092,0
300,35.39145776,-97.54270734,270,31.070059,4,356,-0.904,3.199,9.686,0
301,35.39145647,-97.54305386,269.9,31.190016,5,356,-1.116,3.187,9.368,0
302,35.3914606,-97.54339311,269.9,31.220078,4,356,-1.002,3.298,9.467,0
303,35.39145115,-97.54373838,269.8,31.350006,4,356,-1.113,3.394,9.881,0
304,35.39144055,-97.54408632,269.7,31.360079,4,357,-1.277,3.198,9.86,0
305,35.3914358,-97.54442659,269.9,31.29041,4,357,-0.739,3.591,9.877,0
306,35.39143514,-97.54476687,270,31.16283,4,358,-0.745,3.336,9.637,0
307,35.39143235,-97.5451099,270.2,30.98506,4,359,-1.225,3.404,9.458,0
308,35.39143125,-97.54545247,270.2,30.785654,4,360,-1.147,3.225,9.333,0
309,35.39143168,-97.54579349,270,30.586082,4,361,-1.108,3.306,9.155,0
310,35.39143218,-97.54612665,269.9,30.415531,4,361,-1.033,3.186,8.877,0
311,35.39143303,-97.54646517,270.1,30.25556,4,362,-0.94,3.526,9.058,0
312,35.3914362,-97.54679317,270.1,30.15382,3,363,-1.085,3.45,8.987,0
313,35.39143723,-97.54711742,270.2,30.101921,4,363,-1.135,3.314,9.14,0
314,35.39143874,-97.54745075,270.2,30.130598,4,363,-0.982,3.67,9.312,0
315,35.39144707,-97.54778372,270.1,30.180042,4,363,-0.962,3.5,9.11,0
316,35.39144425,-97.5481215,269.9,30.400015,4,364,-0.998,3.49,9.698,0
317,35.39144308,-97.54845815,269.8,30.6202,4,363,-1.176,3.353,9.117,0
318,35.39144365,-97.54880483,269.9,31.010523,5,363,-1.222,3.282,9.109,0
319,35.39146282,-97.54916423,270.1,31.541245,5,362,-1.025,3.171,9.21,0
320,35.39145713,-97.54951349,269.7,31.684433,4,361,-1.017,3.184,9.476,0
321,35.39145415,-97.54987303,269.6,31.911604,4,361,-0.928,3.156,9.703,0
322,35.3914702,-97.55023524,270.1,31.9804,4,361,-0.889,3.211,9.645,0
323,35.39147439,-97.55057898,270.1,31.8001,10,360,-0.831,2.919,9.249,0
324,35.39147498,-97.55093014,269.8,31.680025,10,360,-0.926,2.86,9.522,0
325,35.39148321,-97.55126325,270.2,31.470158,10,360,-0.888,3.117,9.566,0
326,35.39147866,-97.55160264,270,31.36013,10,359,-0.869,3.267,9.433,0
327,35.39147089,-97.5519456,270.2,31.290009,10,360,-0.506,2.818,9.471,0
328,35.39147407,-97.55228443,271.2,30.980001,10,360,-0.211,2.967,9.498,0
329,35.39151118,-97.55263991,273.6,30.820162,10,359,-0.018,2.791,9.603,0
330,35.39153242,-97.55298265,274.7,30.92,9,358,-0.375,2.857,9.665,0
331,35.39155873,-97.55331221,276.6,30.170015,10,357,-0.449,2.841,9.483,0
332,35.39161805,-97.55364862,278.9,30.000135,9,356,-0.215,2.978,9.326,0
333,35.39166513,-97.55398056,280.1,29.660109,9,356,-0.769,3.426,9.448,0
334,35.39172953,-97.55431176,281.4,29.630108,4,356,-0.446,3.696,9.378,0
335,35.39178153,-97.55463787,282,29.810015,4,355,-0.401,3.478,9.407,0
336,35.39184689,-97.55496297,283.1,30.070026,4,355,-0.758,3.065,9.341,0
337,35.39192868,-97.55529592,285.3,30.320236,3,355,-0.949,2.873,9.452,0
338,35.39200469,-97.55562327,285.8,30.050135,3,354,-1.205,2.81,9.358,0
339,35.39208252,-97.55595046,285.8,29.800081,3,353,-1.63,2.881,9.448,0
341,35.39215517,-97.55626656,285.4,29.53,3,353,-1.324,3.432,9.231,0
342,35.39220986,-97.55658194,284.6,29.500061,3,352,-1.43,3.578,8.952,0
343,35.39227754,-97.55689971,284.3,29.86,4,353,-1.191,3.615,9.502,0
344,35.39235724,-97.55722798,284.2,30.390007,3,353,-1.078,3.586,9.176,0
345,35.39242813,-97.55755969,284,30.84,3,353,-0.875,3.688,9.447,0
346,35.39248281,-97.55789159,283.7,31.190016,4,353,-1.376,3.567,9.356,0
347,35.39254468,-97.55822554,283.8,31.600025,3,353,-1.248,3.58,9.236,0
348,35.39262645,-97.55857105,284.1,32.170006,4,353,-1.133,3.508,9.416,0
349,35.39271539,-97.55892726,284.2,32.650013,4,352,-1.098,3.601,9.622,0
350,35.39279206,-97.55928686,284.2,33.050037,3,352,-1.201,3.16,9.499,0
351,35.392932,-97.55997907,284.4,33.04,3,350,-1.165,2.769,9.513,0
352,35.39300278,-97.5603266,284.3,32.6,3,350,-1.096,2.833,9.362,0
353,35.39307187,-97.5606665,284.2,32.150005,3,351,-0.858,2.816,9.387,0
354,35.39314095,-97.56099908,284.4,31.690006,3,351,-1.162,2.9,9.422,0
355,35.39321102,-97.56133025,284.4,31.300024,3,352,-1.294,2.774,9.224,0
356,35.39326709,-97.56165123,283.9,30.800007,3,352,-1.182,2.854,9.438,0
357,35.39333844,-97.56197661,283.9,30.380236,3,351,-0.995,3.196,9.297,0
358,35.39340084,-97.56229832,284.2,30.230875,3,352,-0.794,3.467,9.796,0
359,35.39345982,-97.56262049,284.4,30.26159,3,352,-1.202,3.582,9.404,0
360,35.39352506,-97.56294434,284.2,30.43179,3,353,-1.247,3.632,9.177,0
361,35.39359745,-97.56327406,284.1,30.622116,3,354,-1.134,3.75,9.527,0
362,35.39366489,-97.56360707,284.1,30.86234,3,355,-1.044,3.665,9.137,0
363,35.39372748,-97.56393737,284.3,31.072325,3,355,-0.99,3.574,9.151,0
364,35.3937975,-97.56427244,284.6,31.291958,3,356,-1.17,3.624,9.228,0
365,35.39386962,-97.56461063,284.5,31.502056,3,357,-1.202,3.663,9.201,0
366,35.39394468,-97.56495104,284.2,31.711418,3,356,-1.21,3.546,9.105,0
367,35.39401004,-97.56529414,283.9,31.960625,3,357,-0.943,3.497,8.709,0
368,35.39407717,-97.56563704,283.9,32.250126,3,357,-1.259,2.892,8.784,0
369,35.39414578,-97.5659818,283.9,32.150055,3,358,-1.104,2.656,9.232,0
370,35.39420966,-97.56631532,283.9,31.770191,3,357,-1.082,2.719,9.353,0
371,35.39427519,-97.56664748,283.9,31.51004,3,358,-1.094,3.008,9.304,0
372,35.39434027,-97.56698779,283.6,31.590015,3,358,-1.106,2.933,9.548,0
373,35.39440964,-97.56732177,283.6,31.57,3,359,-1.105,2.828,9.548,0
374,35.39447684,-97.56766132,283.7,31.46,3,359,-0.887,3.01,9.38,0
375,35.39454567,-97.56799954,283.8,31.5,3,360,-1.285,3.116,9.831,0
376,35.39460776,-97.56833604,283.6,31.610008,4,361,-1.167,2.99,9.71,0
377,35.39467631,-97.56867503,283.7,31.570057,4,361,-1.196,3.294,9.611,0
378,35.39474359,-97.56901336,283,31.51004,4,360,-0.917,3.531,9.596,0
379,35.39480471,-97.56935535,283.5,31.810076,4,361,-0.909,3.538,9.423,0
380,35.39488151,-97.56970208,284.2,32.1301,4,361,-1.102,3.633,9.634,0
381,35.39496892,-97.57005146,284.6,32.480038,3,360,-1.05,3.48,9.447,0
382,35.39503644,-97.57039878,284.4,32.680054,4,361,-1.181,3.483,9.412,0
383,35.39512242,-97.57075007,284.5,32.960022,4,361,-1.118,3.422,8.979,0
384,35.39518791,-97.57110562,284.4,33.090054,4,361,-1.117,3.425,9.868,0
385,35.39527378,-97.57146084,284.8,33.000023,4,361,-0.933,2.758,9.401,0
386,35.39533953,-97.57180325,284.9,32.450077,4,363,-0.172,2.935,9.817,0
387,35.39543414,-97.57214496,286.5,31.910007,3,362,0.047,2.746,9.377,0
388,35.39553587,-97.57247759,288.4,31.800188,3,363,0.272,3.003,9.929,0
389,35.39562516,-97.57279423,290.1,31.26041,3,363,-0.24,3.08,9.929,0
390,35.39573732,-97.57308815,293.8,30.670105,3,364,-0.654,2.889,9.371,0
391,35.39586298,-97.57338236,296.1,30.33004,3,364,-0.354,3.623,9.875,0
392,35.39599496,-97.57367875,297.3,30.330015,3,364,-0.19,3.427,9.495,0
393,35.39613262,-97.57396123,300,30.630024,3,363,-0.489,3.396,9.8,0
394,35.396273,-97.57424712,301.9,30.28,3,364,-0.595,3.151,9.9,0
395,35.39643129,-97.57451985,303.6,29.990059,3,365,-0.459,2.751,9.315,0
396,35.39659159,-97.57478525,305.9,29.480331,3,364,-0.273,2.937,9.399,0
397,35.39675073,-97.57503061,308,29.300137,3,364,-0.626,2.901,9.242,0
398,35.39691752,-97.57527556,309.6,29.160015,3,364,-0.581,2.417,9.664,0
399,35.3970846,-97.57551154,311.4,28.820017,3,363,-0.504,2.529,9.887,0
400,35.39727227,-97.57572128,313.6,28.510143,3,362,-0.52,2.728,8.94,0
401,35.39745718,-97.57593515,315.1,28.290087,4,362,0.148,3.255,9.478,0
403,35.39765938,-97.57613603,319.3,27.750008,3,362,0.959,3.027,9.619,0
404,35.39786902,-97.57631455,323.3,27.380411,3,363,0.139,2.812,9.28,0
405,35.39807449,-97.57647022,327.7,27.15009,3,363,-0.443,2.971,9.222,0
406,35.39828366,-97.5766117,330.9,26.920008,3,363,-0.083,3.056,9.412,0
407,35.39849672,-97.57673476,334,26.670092,3,363,-0.222,2.914,9.395,0
408,35.39871346,-97.57685577,335.5,26.640316,3,364,0.078,2.993,9.24,0
409,35.39894787,-97.57693527,341.3,26.480047,3,363,-0.152,2.787,9.321,0
410,35.39918163,-97.57701765,344.5,26.280018,3,363,0.739,2.854,9.593,0
411,35.39942202,-97.57706713,349.5,25.950378,3,364,0.578,3.215,9.445,0
412,35.39986577,-97.57708236,359.8,25.170004,3,363,0.82,2.984,9.521,0
413,35.40008979,-97.57705898,4.1,25.020649,3,363,0.182,3.066,10.066,0
414,35.40031176,-97.57700965,7.9,24.740341,3,362,0.208,3.187,9.768,0
415,35.40052825,-97.57693909,11.8,24.590246,3,362,0.177,2.604,9.877,0
416,35.4007398,-97.57685987,15.5,24.38046,3,361,0.192,3.119,9.836,0
417,35.40094407,-97.57677072,19.8,23.990751,3,361,0.294,2.873,9.179,0
418,35.40114513,-97.57666852,23.5,23.890001,3,360,0.405,2.808,8.902,0
419,35.40134071,-97.57654953,25.8,23.680477,3,360,-1.33,2.901,9.562,0
420,35.40153788,-97.57644737,22.8,23.500053,3,361,-1.975,2.633,9.365,0
421,35.40172892,-97.57636553,19.4,22.88,4,361,-2.107,2.778,9.357,0
422,35.4019244,-97.57630858,14.1,22.610142,4,361,-1.959,2.905,9.793,0
423,35.40212962,-97.57626758,9.7,22.350002,4,361,-1.496,3.283,9.412,0
424,35.40232855,-97.57624058,6.7,22.090021,4,361,-1.785,3.343,9.586,0
425,35.40251585,-97.57623486,2.3,22.27008,4,360,-2.442,3.537,9.417,0
426,35.40271113,-97.57625292,357.4,22.620268,4,359,-2.451,3.89,9.494,0
427,35.40291677,-97.57627835,355,22.540888,4,360,-0.78,3.759,9.486,0
428,35.40312149,-97.57629792,356.2,23.100262,5,360,-0.015,3.479,9.524,0
429,35.40333759,-97.57630257,358.3,23.760033,5,360,-0.393,3.297,9.375,0
430,35.40355556,-97.57629508,0.4,23.960133,4,361,-0.356,3.031,9.504,0
431,35.40377725,-97.57628019,2.3,23.59,3,359,-0.871,2.896,9.465,0
432,35.40398507,-97.57627682,2.8,23.260138,3,359,-0.798,2.885,9.57,0
433,35.40419155,-97.57626534,2.8,22.930107,3,359,-0.749,2.855,9.471,0
434,35.40439345,-97.57625619,2.9,22.640108,3,358,-0.799,2.964,9.434,0
435,35.40459483,-97.57624328,2.8,22.380033,3,358,-1.026,3.062,9.42,0
436,35.40479323,-97.57623138,2.5,22.08002,3,358,-0.831,3.002,9.365,0
437,35.4049866,-97.57622374,2.6,21.76,3,358,-0.717,2.899,9.583,0
438,35.4051838,-97.57621723,2.9,21.440002,3,359,-0.414,2.738,9.621,0
439,35.40537598,-97.57620768,4.1,21.170116,3,358,-0.483,2.951,9.591,0
440,35.40556177,-97.57618025,6.4,20.84006,3,359,-0.545,2.2,9.906,0
441,35.40573994,-97.57614205,8.3,19.71004,3,358,-0.338,1.64,9.819,0
442,35.40589635,-97.57611131,10.3,17.920025,3,358,-0.377,1.554,9.739,0
443,35.40604596,-97.5760786,11.2,16.330305,3,359,-0.837,1.302,9.769,0
444,35.4061653,-97.57603689,12.6,14.060175,3,359,-0.893,0.991,10.004,0
445,35.40626481,-97.57600262,12.8,11.850609,3,358,-0.997,0.689,10.015,0
446,35.40634508,-97.57597862,12.9,9.360262,3,358,-0.871,0.816,9.641,0
447,35.40640044,-97.57596404,12.7,6.690269,3,357,-0.807,0.858,9.844,0
448,35.40643656,-97.57595258,12.5,4.060197,3,357,-0.789,1.503,9.827,0
449,35.40645008,-97.57594636,12.7,2.01,3,357,-0.846,2.196,9.649,0
450,35.40646096,-97.57594501,12.7,0.79,3,356,-0.92,2.823,9.487,0
451,35.40646096,-97.57594501,12.7,0.79,3,356,-0.957,3.268,9.383,0
452,35.40646096,-97.57594501,12.7,0.79,3,356,-0.953,3.373,9.355,0
453,35.40646096,-97.57594501,12.7,0.79,3,356,-0.958,3.382,9.348,0
454,35.40645149,-97.57594982,0,0,3,356,-0.952,3.378,9.347,0
455,35.40645149,-97.57594982,0,0,3,356,-0.955,3.4,9.356,0
456,35.40645149,-97.57594982,0,0,3,356,-0.951,3.4,9.371,0
457,35.40645149,-97.57594982,0,0,3,356,-0.981,3.392,9.381,0
458,35.40645149,-97.57594982,0,0,3,356,-0.979,3.383,9.407,0
459,35.40645149,-97.57594982,0,0,3,356,-0.957,3.352,9.372,0
460,35.40645149,-97.57594982,0,0,3,356,-0.947,3.363,9.401,0
461,35.40645149,-97.57594982,0,0,3,356,-0.906,3.324,9.407,0
462,35.40645149,-97.57594982,0,0,3,356,-0.942,3.339,9.395,0
463,35.40645149,-97.57594982,0,0,3,356,-0.959,3.385,9.394,0
465,35.40645149,-97.57594982,0,0,3,356,-0.937,3.329,9.384,0
466,35.40645149,-97.57594982,0,0,3,356,-1.005,3.412,9.372,0
467,35.40645149,-97.57594982,0,0,3,356,-1.023,3.427,9.352,0
468,35.40645149,-97.57594982,0,0,3,356,-1.001,3.428,9.318,0
469,35.40645149,-97.57594982,0,0,3,356,-1.12,5.114,8.915,0
470,35.40645149,-97.57594982,0,0,3,356,-1.121,5.601,8.79,0
471,35.40646781,-97.57594149,11.2,2.2763567,3,357,-1.423,5.33,8.866,0
472,35.40651456,-97.57593462,11.3,4.5515823,3,357,-2.519,4.564,9.668,0
473,35.40657784,-97.57593683,1.9,6.126867,3,357,-3.895,4.275,9.523,0
474,35.40664389,-97.57594955,352.1,6.742143,3,357,-4.584,3.788,9.466,0
475,35.4067623,-97.57607464,319.6,8.410024,4,357,-5.062,4.078,9.38,0
476,35.40680895,-97.57618965,303.6,10.190043,5,357,-2.58,4.754,8.83,0
477,35.40679739,-97.57634017,283,12.19041,3,356,-1.611,4.799,8.978,0
478,35.40684818,-97.57649811,282.2,13.8000145,3,357,-1.157,4.732,8.909,0
479,35.40688001,-97.57665646,282.2,15.26003,3,356,-1.07,4.554,9.115,0
480,35.40691068,-97.57681897,282,15.590116,4,355,-1.162,4.408,8.953,0
481,35.40693522,-97.57701297,280.4,17.480024,4,355,-1.039,4.26,9.042,0
482,35.40696516,-97.57721393,282.9,18.480877,4,355,-1.179,4.004,9.205,0
483,35.40700246,-97.5774219,281.8,19.330662,4,355,-1.193,3.311,9.284,0
484,35.40702713,-97.57762871,281.9,19.840124,3,354,-1.362,3.105,9.508,0
485,35.40705974,-97.57784902,281.5,19.680092,3,355,-0.993,2.923,9.368,0
486,35.40710168,-97.57806342,282.3,19.45004,3,354,-0.715,3.031,9.177,0
487,35.40714828,-97.57828432,283.4,19.560062,3,355,-0.272,3.456,9.531,0
488,35.40719725,-97.57849253,285.7,19.890123,3,355,-0.256,3.587,9.471,0
489,35.4072591,-97.57870634,288.2,20.27004,3,354,0.495,3.367,9.288,0
490,35.40732504,-97.57891214,290.9,19.930492,4,354,1.127,3.37,9.468,0
491,35.40742227,-97.57910302,299.6,19.75,4,355,0.751,3.096,9.105,0
492,35.40753698,-97.57930517,302,20.730038,4,355,0.401,3.073,9.422,0
493,35.40765936,-97.5794619,309.7,20.330711,4,356,0.47,3.441,9.446,0
494,35.40781138,-97.57960357,315.5,20.40001,3,353,0.978,3.403,9.51,0
495,35.4079511,-97.57974842,321.5,20.400087,3,353,0.908,3.431,9.381,0
496,35.40810535,-97.57988262,326.8,20.46,3,353,0.835,3.652,9.313,0
497,35.40827559,-97.57999053,331.6,20.670197,3,353,0.919,3.899,9.18,0
498,35.40844741,-97.58008372,336.1,21.010239,3,353,0.771,4.132,9.092,0
499,35.4086348,-97.58016038,341.1,21.79,3,353,-0.097,3.709,8.911,0
500,35.40882664,-97.58023715,342.8,22.39011,3,353,-0.947,3.763,9.059,0
501,35.40902225,-97.58031855,342.7,22.92037,3,354,-0.936,3.133,9.559,0
502,35.40921664,-97.5803952,342.4,23.040176,3,354,-0.986,2.939,9.633,0
503,35.40941008,-97.58046768,342.2,22.730267,3,354,-1.028,2.832,9.442,0
504,35.40960216,-97.58054244,342.2,22.370378,3,355,-0.939,2.934,9.352,0
505,35.40979336,-97.58061771,342.2,22.200226,3,355,-0.808,2.986,9.323,0
506,35.40998615,-97.58068694,342.7,22.030111,4,355,-0.798,2.999,9.475,0
507,35.41016751,-97.5807636,341.7,21.570187,4,355,-1.187,3.16,9.488,0
508,35.41033901,-97.58085389,339.6,21.070286,3,356,-1.88,3.282,9.562,0
509,35.41051858,-97.58093446,336,21.1,3,354,-2.48,3.181,9.3,0
510,35.41069018,-97.5810553,329.8,21.290115,3,355,-2.425,3.297,9.325,0
511,35.41085216,-97.5811988,324.1,21.520187,3,355,-2.579,3.391,9.356,0
512,35.41099406,-97.58136343,318.1,21.730036,3,355,-2.312,3.284,9.356,0
513,35.41112333,-97.58154447,312.6,21.87001,3,355,-1.835,1.717,9.898,0
514,35.41124551,-97.58174,308,21.460114,3,355,-1.956,0.977,9.594,0
515,35.41134254,-97.58192401,303.1,19.300436,3,354,-1.715,0.776,9.851,0
516,35.41142089,-97.58209863,300,18.130068,3,354,-1.78,2.684,9.732,0
517,35.4114806,-97.58225626,296.1,16.570435,3,354,-1.639,2.104,9.662,0
518,35.41153297,-97.58242948,291.8,16.330076,4,354,-1.649,1.643,9.619,0
519,35.41158169,-97.58256834,292.4,15.3200035,5,354,-1.357,1.963,9.382,0
520,35.41157482,-97.58269535,281.7,12.56,3,355,-1.898,3.94,9.139,0
521,35.4115824,-97.58283643,279.1,12.870191,3,355,-1.834,4.16,9.277,0
522,35.41159226,-97.58299764,276,13.760004,4,355,-1.893,4.17,8.949,0
523,35.41159172,-97.58315082,273,14.4303465,4,355,-1.693,4.468,8.905,0
524,35.41158133,-97.58332632,270.6,15.730114,4,356,-1.353,4.175,9.22,0
525,35.41159172,-97.58352084,270.2,16.730001,4,355,-1.225,4.019,9.397,0
526,35.41158783,-97.58371567,269.7,17.65007,3,356,-1.11,4.106,9.213,0
528,35.41158697,-97.58391883,269.4,18.510044,3,356,-1.277,4.298,9.659,0
529,35.41157788,-97.5841318,269.3,19.29044,3,357,-1.21,4.064,9.3,0
530,35.41157471,-97.58434947,269.3,19.970722,3,357,-1.128,3.98,9.322,0
531,35.41158161,-97.58458728,269.1,20.570972,3,357,-1.017,3.961,9.314,0
532,35.41157491,-97.58482259,269.2,21.101254,3,358,-0.914,3.839,9.285,0
533,35.41157903,-97.58505771,269.6,21.591948,3,359,-0.997,3.899,9.184,0
534,35.4115648,-97.58529785,269.9,22.0211,3,359,-1.032,3.439,9.47,0
535,35.4115546,-97.58554179,270.2,22.450891,3,358,-1.035,3.146,9.397,0
536,35.41155342,-97.58578225,270,22.361753,3,359,-1.088,3.174,9.429,0
537,35.41154995,-97.5860312,269.9,22.171524,3,360,-0.954,3.243,9.354,0
538,35.41154487,-97.58651363,270.2,22.080654,3,361,-0.921,3.347,9.283,0
539,35.41154348,-97.58673822,270.1,21.81167,3,361,-0.983,3.384,9.412,0
540,35.41154404,-97.58697996,270.3,21.821432,3,362,-1.133,3.562,9.272,0
541,35.41154194,-97.5872149,270.3,21.82111,3,362,-1.065,3.375,9.073,0
542,35.41154585,-97.5874621,270.1,21.870586,3,362,-1.119,3.395,9.412,0
543,35.41154269,-97.58769813,270.3,21.920229,3,362,-1.043,3.401,9.168,0
544,35.4115467,-97.58793896,270.3,22.000183,3,362,-1.086,3.391,9.168,0
545,35.41155277,-97.58819007,270.1,22.060183,3,362,-1.049,3.354,9.394,0
546,35.41155372,-97.58843751,270.1,22.140224,3,362,-1.035,3.369,9.228,0
547,35.4115534,-97.58868596,270,22.250002,3,362,-0.993,3.206,9.211,0
548,35.41155904,-97.58893821,270,22.410223,3,361,-0.884,3.211,9.657,0
549,35.41156117,-97.58919206,270.2,22.500034,3,360,-0.953,3.213,9.517,0
550,35.41156621,-97.58944894,270.3,22.570055,3,360,-1.04,3.278,9.497,0
551,35.41156938,-97.58970604,270.2,22.61018,3,359,-0.98,3.175,9.498,0
552,35.41156707,-97.58995687,270.2,22.590109,3,359,-1.144,3.219,9.371,0
553,35.41156624,-97.59019903,269.9,22.52011,3,360,-1.089,3.159,9.39,0
554,35.41156366,-97.59044353,269.7,22.480019,3,360,-0.931,3.236,9.31,0
555,35.41156909,-97.59068282,269.9,22.39,3,359,-0.875,3.112,9.499,0
556,35.41156844,-97.59092451,270.1,22.280058,3,359,-0.804,2.858,9.546,0
557,35.41156829,-97.59116722,270.1,21.930037,3,359,-0.808,2.78,9.733,0
558,35.41157028,-97.59140501,270.2,21.520037,3,360,-0.86,2.847,9.598,0
559,35.41157294,-97.59163795,270.2,21.100153,3,360,-1.024,2.914,9.411,0
560,35.41157561,-97.59187168,270.1,20.680197,3,360,-0.891,2.907,9.533,0
561,35.41157593,-97.59209205,270.2,20.2302,3,360,-0.913,3.07,9.439,0
562,35.41157895,-97.592314,270.4,19.99016,3,360,-0.961,3.329,9.122,0
563,35.4115794,-97.59253788,270.5,20.07004,3,360,-0.839,3.131,9.13,0
564,35.41158046,-97.59275367,270.6,19.980001,3,360,-0.82,2.917,9.521,0
565,35.41158411,-97.59297575,271,19.700024,3,360,-0.88,2.886,9.324,0
566,35.41159089,-97.59319316,271.4,19.530024,3,360,-1.025,2.879,9.613,0
567,35.41159353,-97.59339134,271.3,19.080065,4,360,-1.226,2.79,9.736,0
568,35.41159657,-97.59359194,271,18.830095,4,360,-1.731,2.51,9.563,0
569,35.41159465,-97.59379758,269.5,18.410069,3,359,-1.736,2.079,9.91,0
570,35.41159122,-97.59398726,266.9,17.32,3,360,-1.045,1.656,9.829,0
571,35.41159348,-97.59417187,265.5,15.820202,3,360,-0.332,1.619,9.809,0
572,35.41158834,-97.59432902,266.5,14.260425,3,361,-0.21,1.324,9.803,0
573,35.41159315,-97.59446977,269.3,12.330101,3,360,-0.516,1.141,9.925,0
574,35.41159646,-97.59457925,270.5,10.27,3,360,-0.531,0.722,9.986,0
575,35.41159704,-97.59466446,270.6,7.710058,3,361,-0.665,0.678,9.945,0
576,35.41159691,-97.59470751,270.9,4.99025,3,360,-0.605,0.484,9.962,0
577,35.41159329,-97.59472562,271.1,2.05,3,361,-0.789,2.459,9.575,0
578,35.41159329,-97.59472562,271.1,2.05,3,361,-0.842,3.037,9.44,0
579,35.41159329,-97.59472562,271.1,2.05,3,361,-0.841,3.112,9.436,0
580,35.41159329,-97.59472562,271.1,2.05,3,361,-0.86,3.386,9.365,0
581,35.4115847,-97.59471988,0,0.01,3,361,-1.356,5.407,8.844,0
582,35.41158873,-97.59473352,267.7,1.5001334,3,360,-2.945,4.976,8.837,0
583,35.41158533,-97.59478388,255.8,3.9108183,3,360,-4.409,4.29,9.083,0
584,35.41153243,-97.59482583,221.5,5.9510164,3,360,-3.098,4.361,8.957,0
585,35.41148441,-97.59486344,216,5.9206843,3,359,-2.518,4.303,9.001,0
586,35.41138189,-97.59486457,186.1,8.950944,3,360,-1.766,4.752,9.376,0
587,35.41129909,-97.59486836,184,9.290134,3,360,-1.178,4.486,9.09,0
589,35.4111965,-97.59486989,182.4,10.5300045,4,359,-0.802,4.384,9.101,0
590,35.41108216,-97.59487286,182.4,11.840068,4,359,-0.948,4.371,9.148,0
591,35.41097241,-97.59488461,183.6,12.800317,4,358,-1.083,4.291,9.11,0
592,35.41082685,-97.5948773,181.7,14.380014,4,358,-0.936,4.348,9.56,0
593,35.41067328,-97.59487177,181,15.420081,5,358,-1.086,4.163,8.928,0
594,35.41053131,-97.59488154,181.5,16.140049,4,358,-0.9,4.086,9.239,0
595,35.41036752,-97.59487822,181.2,17.140024,5,358,-1.186,3.633,8.932,0
596,35.41018817,-97.59487224,180.7,17.990044,5,358,-0.787,3.746,9.074,0
597,35.41007043,-97.59491692,181.9,17.77034,5,355,-0.894,3.089,9.393,0
598,35.4097035,-97.59489576,179.9,18.640041,7,354,-0.784,2.915,9.222,0
599,35.40953376,-97.59488954,179.6,18.41,7,354,-0.97,2.858,9.194,0
600,35.40935673,-97.59487472,179,18.200012,6,354,-0.766,2.733,9.092,0
