time,lat,lng,bearing,spd,acc,alt,accx,accy,accz,stable,
0,35.22,-97.423,0,0,6.068,335,-0.2,1.492,9.485,1
1,35.22,-97.423,0,0,7.585,335,-0.202,1.53,9.474,1
2,35.22,-97.423,0,0,7.585,334,-0.199,1.537,9.481,1
3,35.22,-97.423,0,0,7.585,334,-0.199,1.537,9.473,1
4,35.22,-97.423,0,0,6.068,335,-0.198,1.536,9.473,1
5,35.22,-97.423,0,0,6.068,335,-0.202,1.54,9.477,1
6,35.22,-97.423,0,0,6.068,335,-0.2,1.54,9.477,1
7,35.22,-97.423,0,0,6.068,335,-0.202,1.537,9.476,1
8,35.22,-97.423,0,0,6.068,335,-0.2,1.537,9.478,1
9,35.22,-97.423,0,0,6.068,335,-0.201,1.537,9.473,1
10,35.22,-97.423,0,0,6.068,335,-0.199,1.538,9.471,1
11,35.22,-97.423,0,0,6.068,335,-0.202,1.537,9.472,1
12,35.22,-97.423,0,0,6.068,335,-0.192,1.54,9.473,1
13,35.22,-97.423,0,0,6.068,335,-0.196,1.538,9.477,1
14,35.22,-97.423,0,0,6.068,335,-0.202,1.538,9.478,1
15,35.22,-97.423,0,0,6.068,335,-0.195,1.541,9.472,1
16,35.22,-97.423,0,0,6.068,335,-0.19,1.543,9.469,1
17,35.22,-97.423,0,0,6.068,335,-0.192,1.541,9.467,1
18,35.22,-97.423,0,0,6.068,335,-0.191,1.901,9.376,1
19,35.22,-97.423,0,0,6.068,335,-0.171,2.685,9.139,1
20,35.22,-97.423,269.4,1.96,6.068,332,0.111,2.94,9.129,1
21,35.22,-97.423,272.3,3.47,4.551,332,2.05,2.822,9.095,1
22,35.22,-97.423,300.2,4.47,4.551,332,2.77,2.669,9.07,1
23,35.22,-97.424,331.2,6.09,4.551,335,2.122,3.228,9.024,1
24,35.22,-97.424,349.2,7.89,4.551,335,1.05,3.439,8.925,1
25,35.22,-97.424,357,9.44,4.551,335,0.349,3.268,9.008,1
26,35.22,-97.424,359.5,11.44,4.551,335,-0.08,3.04,9.071,1
27,35.22,-97.424,0,12.68,4.551,336,-0.273,2.607,9.191,1
28,35.221,-97.424,359.6,13.79,4.551,336,-0.257,2.391,9.185,1
29,35.221,-97.424,359.4,14.08,4.551,335,-0.199,2.424,9.246,1
30,35.221,-97.424,0.4,15.27,4.551,335,-0.4,2.388,9.245,1
31,35.221,-97.424,359.8,16.18,4.551,336,-0.61,2.307,9.205,1
32,35.221,-97.424,358.8,16.69,6.068,336,-0.185,1.682,9.43,1
33,35.221,-97.424,359.6,16.56,6.068,336,-0.2,1.403,9.493,1
34,35.222,-97.424,359.7,16.58,6.068,336,-0.245,1.528,9.466,1
35,35.222,-97.424,359.9,16.61,6.068,336,-0.187,1.567,9.444,1
36,35.222,-97.424,0.2,16.68,6.068,336,-0.277,1.556,9.418,1
37,35.222,-97.424,0.3,16.7,6.068,336,-0.307,1.557,9.471,1
38,35.222,-97.424,0.1,16.34,6.068,337,-0.286,1.503,9.485,1
39,35.222,-97.424,0.7,16.46,6.068,337,-0.298,1.494,9.465,1
40,35.222,-97.424,0.3,16.27,6.068,336,-0.273,1.485,9.465,1
41,35.223,-97.424,0.6,16.32,6.068,336,-0.27,1.496,9.504,1
42,35.223,-97.424,1.4,16.24,4.551,336,-0.058,1.527,9.456,1
43,35.223,-97.424,2,16.2,4.551,336,-0.076,1.557,9.434,1
44,35.223,-97.424,1.6,16.2,4.551,337,-0.402,1.557,9.458,1
45,35.223,-97.424,0.5,16.38,4.551,337,-0.476,1.548,9.465,1
46,35.223,-97.424,0.3,16.27,4.551,337,-0.419,1.549,9.443,1
47,35.223,-97.424,0.4,16.23,4.551,337,-0.329,1.555,9.466,1
48,35.224,-97.424,0.5,16,4.551,337,-0.154,1.308,9.514,1
49,35.224,-97.424,1.4,15.39,4.551,337,-0.191,1.143,9.589,1
50,35.224,-97.424,1.1,15.2,4.551,337,-0.304,1.1,9.558,1
51,35.224,-97.424,0.5,14.58,4.551,338,-0.341,1.101,9.57,1
52,35.224,-97.424,0.5,14.58,4.551,338,-0.365,1.09,9.581,1
53,35.224,-97.424,0.5,13.9,4.551,339,-0.363,1.09,9.58,1
54,35.224,-97.424,0.4,13.44,4.551,338,-0.362,1.098,9.607,1
55,35.225,-97.424,0.2,12.76,4.551,339,-0.285,1.074,9.557,1
56,35.225,-97.424,0.4,12.16,4.551,339,-0.284,1.084,9.587,1
57,35.225,-97.424,0.3,11.82,4.551,339,-0.278,0.543,9.709,1
58,35.225,-97.424,0.1,10.71,6.068,340,-0.317,0.336,9.761,1
59,35.225,-97.424,0.3,8.91,6.068,340,-0.26,0.347,9.742,1
60,35.225,-97.424,359.2,8.23,4.551,340,-0.291,0.355,9.746,1
61,35.225,-97.424,1.2,6.39,4.551,340,-0.275,0.219,9.785,1
62,35.225,-97.424,0.4,5.72,4.551,340,-0.316,0.596,9.695,1
63,35.225,-97.424,1.1,4.37,6.068,340,-0.31,0.638,9.682,1
65,35.225,-97.424,0.4,4.1,6.068,340,-0.28,0.475,9.724,1
66,35.225,-97.424,0.1,2.87,6.068,340,-0.282,0.343,9.755,1
67,35.225,-97.424,359.5,0.44,6.068,338,-0.28,0.479,9.723,1
68,35.225,-97.424,359.5,0.44,6.068,338,-0.29,1.313,9.52,1
69,35.225,-97.424,359.5,0.44,6.068,338,-0.288,1.505,9.472,1
70,35.225,-97.424,359.5,0.44,6.068,338,-0.286,1.553,9.464,1
71,35.225,-97.424,359.5,0.44,6.068,338,-0.289,1.564,9.464,1
72,35.225,-97.424,0,0,6.068,339,-0.287,1.563,9.461,1
73,35.225,-97.424,0,0,6.068,339,-0.288,1.564,9.458,1
74,35.225,-97.424,0,0,6.068,339,-0.287,1.562,9.461,1
75,35.225,-97.424,0,0,4.551,339,-0.288,1.563,9.46,1
76,35.225,-97.424,0,0,4.551,339,-0.287,1.563,9.459,1
77,35.225,-97.424,0,0,4.551,339,-0.287,1.564,9.461,1
78,35.225,-97.424,0,0,4.551,339,-0.288,1.564,9.463,1
79,35.225,-97.424,0,0,4.551,339,-0.285,1.566,9.459,1
80,35.225,-97.424,0,0,4.551,339,-0.283,1.564,9.46,1
81,35.225,-97.424,0,0,4.551,339,-0.289,1.566,9.463,1
82,35.225,-97.424,0,0,4.551,339,-0.29,1.564,9.46,1
83,35.225,-97.424,0,0,4.551,339,-0.282,1.559,9.461,1
84,35.225,-97.424,0,0,4.551,339,-0.298,1.559,9.461,1
85,35.225,-97.424,0,0,4.551,339,-0.295,1.56,9.46,1
89,35.225,-97.424,0,0,4.551,339,-0.295,3.218,9.019,1
90,35.225,-97.424,358.6,3.15,4.551,340,-0.315,2.989,9.108,1
91,35.225,-97.424,358.7,3.15,6.068,340,-0.295,2.765,9.164,1
92,35.225,-97.424,1.4,4.96,6.068,339,-0.249,2.606,9.233,1
93,35.225,-97.424,0.5,8.66,6.068,337,-0.203,2.475,9.254,1
94,35.225,-97.424,0.5,8.65,6.068,337,-0.234,2.37,9.26,1
95,35.226,-97.424,1.5,9.02,7.585,335,-0.28,2.289,9.279,1
96,35.226,-97.424,0.2,10.99,7.585,336,-0.203,2.245,9.302,1
97,35.226,-97.424,0.2,10.99,7.585,337,-0.303,2.32,9.285,1
98,35.226,-97.424,0.5,11.51,9.102,338,-0.307,2.275,9.273,1
99,35.226,-97.424,0.4,12.58,7.585,338,-0.245,2.265,9.254,1
100,35.226,-97.424,0.6,13.89,7.585,338,-0.256,2.237,9.321,1
101,35.226,-97.424,0.6,13.89,7.585,338,-0.308,2.19,9.314,1
102,35.226,-97.424,0.5,14.39,9.102,338,-0.295,2.149,9.284,1
103,35.227,-97.424,0.2,15.77,7.585,339,-0.309,1.974,9.368,1
104,35.227,-97.424,0.7,16.03,7.585,338,-0.299,1.938,9.335,1
105,35.227,-97.424,0.6,16.26,7.585,339,-0.31,1.915,9.351,1
106,35.227,-97.424,0.9,16.97,6.068,334,-0.357,1.96,9.377,1
107,35.227,-97.424,0.5,17.62,6.068,334,-0.303,1.967,9.366,1
108,35.227,-97.424,0.5,17.92,6.068,335,-0.308,1.838,9.404,1
109,35.228,-97.424,0.6,17.96,6.068,336,-0.265,1.372,9.514,1
110,35.228,-97.424,0.5,17.93,6.068,338,-0.222,1.489,9.469,1
111,35.228,-97.424,0.4,18.07,6.068,337,-0.332,1.645,9.45,1
112,35.228,-97.424,0,18.27,7.585,336,-0.385,1.675,9.436,1
113,35.228,-97.424,359.6,18.27,6.068,336,-0.405,1.67,9.475,1
114,35.229,-97.424,359.7,18.27,6.068,337,-0.369,1.64,9.453,1
115,35.229,-97.424,359.5,18.01,6.068,338,-0.226,1.623,9.44,1
116,35.229,-97.424,359.5,18,7.585,338,-0.16,1.626,9.449,1
117,35.229,-97.424,0.3,18.36,6.068,337,-0.107,1.606,9.419,1
118,35.229,-97.424,0.4,18.56,4.551,336,-0.273,1.587,9.462,1
119,35.229,-97.424,359.3,18.74,4.551,335,-0.275,1.564,9.489,1
120,35.229,-97.424,0.4,18.59,4.551,335,-0.222,1.56,9.459,1
121,35.23,-97.424,0.5,18.46,4.551,335,-0.196,1.614,9.407,1
122,35.23,-97.424,0.6,18.74,4.551,336,-0.245,1.636,9.445,1
123,35.23,-97.424,0.5,18.69,4.551,336,-0.263,1.374,9.464,1
124,35.23,-97.424,0.5,18.39,4.551,336,-0.279,1.242,9.56,1
125,35.23,-97.424,0.5,17.96,6.068,336,-0.229,1.335,9.487,1
126,35.23,-97.424,1,17.88,6.068,336,-0.198,1.417,9.448,1
127,35.231,-97.424,1.3,17.76,6.068,336,-0.222,1.203,9.532,1
128,35.231,-97.424,0.8,17.31,6.068,337,-0.257,1.129,9.484,1
129,35.231,-97.424,0.8,17.07,6.068,337,-0.246,1.144,9.625,1
130,35.231,-97.424,0.8,16.64,6.068,337,-0.216,1.082,9.427,1
131,35.231,-97.423,0.7,16.32,6.068,338,-0.278,0.688,9.806,1
132,35.231,-97.423,0,15.41,6.068,338,-0.599,0.516,9.79,1
133,35.232,-97.424,358.1,14.13,6.068,339,-0.782,0.686,9.816,0
134,35.232,-97.424,356.5,13.64,6.068,338,-0.402,0.465,9.808,0
136,35.232,-97.424,356.1,12.84,7.585,339,0.142,0.408,9.754,0
137,35.232,-97.424,355.7,12.08,7.585,338,0.244,0.285,9.781,0
138,35.232,-97.424,355.7,12.08,10.619,339,0.132,0.105,9.796,0
139,35.232,-97.424,355,9.36,9.102,339,0.117,-0.078,9.846,0
140,35.232,-97.424,359.7,6.65,7.585,339,0.021,-0.213,9.853,0
141,35.232,-97.424,359.6,5.14,6.068,337,0.006,-0.168,9.863,0
142,35.232,-97.424,358.3,2.25,4.551,338,-0.016,0.644,9.703,1
143,35.232,-97.424,358.3,2.25,4.551,338,-0.024,0.951,9.606,1
144,35.232,-97.424,359,0.97,4.551,338,-0.011,1.222,9.544,1
145,35.232,-97.424,0,0,6.068,338,-0.009,1.382,9.491,1
146,35.232,-97.424,0,0,6.068,338,0,1.501,9.466,1
147,35.232,-97.424,0,0,6.068,338,-0.013,1.635,9.436,1
148,35.232,-97.424,0,0,6.068,338,-0.01,1.778,9.401,1
149,35.232,-97.424,0,0,4.551,337,0.003,1.315,9.51,1
150,35.232,-97.424,0,0,4.551,337,-0.008,1.534,9.462,1
151,35.232,-97.424,0,0,4.551,337,-0.002,1.606,9.441,1
152,35.232,-97.424,0,0,4.551,337,-0.002,1.624,9.436,1
153,35.232,-97.424,0,0,4.551,337,-0.003,1.63,9.434,1
154,35.232,-97.424,0,0,4.551,337,-0.002,1.628,9.433,1
155,35.232,-97.424,0,0,4.551,337,-0.006,1.629,9.435,1
156,35.232,-97.424,0,0,4.551,337,-0.002,1.633,9.438,1
157,35.232,-97.424,0,0,4.551,337,-0.003,1.629,9.439,1
158,35.232,-97.424,0,0,4.551,337,0.002,1.633,9.436,1
159,35.232,-97.424,0,0,4.551,337,-0.001,1.629,9.437,1
160,35.232,-97.424,0,0,4.551,337,-0.004,1.63,9.435,1
161,35.232,-97.424,0,0,4.551,337,0.001,1.634,9.432,1
162,35.232,-97.424,0,0,4.551,337,0.003,1.637,9.428,1
163,35.232,-97.424,0,0,4.551,337,0.004,1.637,9.429,1
164,35.232,-97.424,0,0,4.551,337,0.004,1.636,9.431,1
165,35.232,-97.424,0,0,4.551,337,-0.007,1.631,9.433,1
166,35.232,-97.424,0,0,4.551,337,-0.015,1.628,9.434,1
167,35.232,-97.424,0,0,4.551,337,-0.006,1.631,9.433,1
168,35.232,-97.424,0,0,4.551,337,0.003,1.635,9.431,1
169,35.232,-97.424,0,0,4.551,337,-0.009,1.63,9.434,1
170,35.232,-97.424,0,0,4.551,337,-0.01,1.63,9.434,1
171,35.232,-97.424,0,0,4.551,337,-0.003,1.631,9.435,1
172,35.232,-97.424,0,0,4.551,337,0.001,1.633,9.435,1
173,35.232,-97.424,0,0,4.551,337,-0.005,2.084,9.321,1
174,35.232,-97.424,0,0,4.551,337,-0.022,2.809,9.14,1
175,35.232,-97.424,2.5,1.48,13.653,338,-0.016,3.124,9.078,1
176,35.232,-97.424,2.5,3.09,13.653,337,-0.019,3.141,9.045,1
177,35.232,-97.424,1.4,4.55,13.653,337,-0.016,3.478,8.985,1
178,35.232,-97.424,0.1,6.24,13.653,337,0.01,2.837,9.178,1
179,35.232,-97.424,0.1,6.24,13.653,338,0.093,2.477,9.203,1
180,35.232,-97.424,1.2,7.88,13.653,338,0.131,1.913,9.317,1
181,35.233,-97.424,0.6,8.25,13.653,339,0.126,1.712,9.396,1
182,35.233,-97.424,1.3,8.41,13.653,339,0.053,1.463,9.417,1
183,35.233,-97.424,354.3,8.08,4.551,341,-1.041,1.359,9.457,1
184,35.233,-97.424,341.8,7.77,4.551,341,-1.781,1.288,9.567,1
185,35.233,-97.424,321.6,7.51,4.551,340,-2.516,1.167,9.503,1
186,35.233,-97.424,305.7,7.76,4.551,341,-2.66,1.077,9.344,1
187,35.233,-97.424,282.5,7.65,4.551,339,-2.566,1.495,9.591,0
188,35.233,-97.424,270.6,8.58,4.551,338,-1.671,1.81,9.537,0
189,35.233,-97.424,269.7,9.24,4.551,340,-0.682,2.133,9.372,0
190,35.233,-97.424,269.7,9.99,4.551,338,-0.526,2.251,9.313,0
191,35.233,-97.424,271,10.8,4.551,338,-0.476,2.266,9.296,0
192,35.233,-97.424,269.4,12.04,4.551,339,-0.429,2.181,9.284,0
193,35.233,-97.424,269.4,12.04,4.551,339,-0.442,2.138,9.276,0
194,35.233,-97.425,270,13.27,4.551,339,-0.479,1.901,9.4,0
195,35.233,-97.425,269.7,13.71,4.551,339,-0.413,1.842,9.434,0
196,35.233,-97.425,269.8,14.04,4.551,338,-0.38,1.906,9.452,1
197,35.233,-97.425,269.5,14.51,4.551,338,-0.408,1.827,9.407,1
198,35.233,-97.425,268.6,14.9,6.068,337,-0.348,1.98,9.37,1
199,35.233,-97.425,269.3,15.55,6.068,338,-0.466,2.195,9.267,1
200,35.233,-97.425,268,16.5,6.068,339,-0.878,2.434,9.245,1
201,35.233,-97.426,265.4,17.52,6.068,339,-0.812,2.427,9.247,1
202,35.233,-97.426,265.1,18.58,6.068,340,-0.435,2.448,9.243,1
203,35.233,-97.426,264.7,19.97,6.068,341,0.249,2.39,9.217,1
204,35.233,-97.426,267,20.5,6.068,341,0.318,2.376,9.219,1
205,35.233,-97.427,267.7,21.54,7.585,340,0.064,2.185,9.275,1
206,35.233,-97.427,268.9,21.72,6.068,341,-0.053,1.35,9.504,1
207,35.233,-97.427,269.2,21.37,6.068,342,-0.103,1.158,9.538,1
208,35.233,-97.427,269.4,21.22,7.585,343,-0.101,1.125,9.571,1
209,35.233,-97.428,270.2,20.72,7.585,342,-0.256,1.127,9.576,1
211,35.233,-97.428,269.7,20.45,7.585,341,-0.206,1.128,9.566,1
212,35.233,-97.428,269.8,20.18,7.585,342,-0.155,1.119,9.572,1
213,35.233,-97.428,269.2,20.18,7.585,341,-0.241,1.234,9.533,1
214,35.233,-97.428,269.9,19.64,6.068,339,-0.261,1.453,9.49,1
215,35.233,-97.429,269.7,19.88,7.585,339,0.127,1.497,9.483,1
216,35.233,-97.429,270.9,20.01,7.585,338,0.079,1.565,9.507,1
217,35.233,-97.429,271,20.14,7.585,338,-0.052,1.66,9.455,1
218,35.233,-97.429,271.5,20.38,7.585,338,-0.083,1.654,9.397,1
219,35.233,-97.429,272.1,20.55,7.585,338,-0.105,1.348,9.494,1
220,35.233,-97.43,271.8,20.57,7.585,338,-0.232,1.196,9.543,1
221,35.233,-97.43,272,20.21,6.068,339,-0.45,1.154,9.588,1
222,35.233,-97.43,272,20.21,9.102,339,-0.671,1.234,9.537,1
223,35.233,-97.43,271.2,19.55,7.585,337,-0.721,1.416,9.509,1
224,35.233,-97.431,270.7,19.54,7.585,337,-0.563,1.409,9.496,1
225,35.233,-97.431,270.2,19.39,7.585,337,-0.412,1.27,9.54,1
226,35.233,-97.431,271,18.98,9.102,336,-0.389,1.175,9.559,1
227,35.233,-97.431,269.8,19.09,6.068,337,-0.377,1.156,9.584,1
228,35.233,-97.431,270.1,18.91,6.068,336,-0.384,1.154,9.564,1
229,35.233,-97.432,269.9,18.77,7.585,337,-0.399,1.281,9.53,1
230,35.233,-97.432,269.6,18.28,6.068,336,-0.406,1.337,9.54,1
231,35.233,-97.432,269.6,18.27,7.585,336,-0.399,1.208,9.623,1
232,35.233,-97.432,269.8,17.83,6.068,333,-0.377,1.18,9.647,1
233,35.233,-97.432,269.8,17.83,7.585,333,-0.364,1.346,9.546,1
234,35.233,-97.433,270.3,17.62,12.136,333,-0.394,1.51,9.446,1
235,35.233,-97.433,270.1,17.3,7.585,333,-0.389,1.591,9.456,1
236,35.233,-97.433,270.1,17.3,9.102,333,-0.335,1.577,9.486,1
237,35.233,-97.433,269.5,17.42,9.102,331,-0.349,1.267,9.548,1
238,35.233,-97.433,269.5,17.42,12.136,331,-0.387,1.187,9.58,1
239,35.233,-97.433,270.5,16.64,12.136,331,-0.42,1.187,9.573,1
240,35.233,-97.434,270.5,16.63,15.17,331,-0.44,1.171,9.559,1
241,35.233,-97.434,270.3,15.78,12.136,333,-0.444,1.172,9.565,1
242,35.233,-97.434,270.3,15.78,13.653,333,-0.455,1.409,9.532,1
243,35.233,-97.434,269.8,15.12,9.102,333,-0.37,1.712,9.414,1
244,35.233,-97.434,269.8,15.12,10.619,333,-0.384,1.713,9.375,1
245,35.233,-97.435,269.9,15.43,7.585,337,-0.396,1.717,9.388,1
246,35.233,-97.435,270,15.38,7.585,337,-0.374,1.377,9.414,1
247,35.233,-97.435,270,15.4,9.102,337,-0.488,1.184,9.446,1
248,35.233,-97.435,269.5,15.13,9.102,337,-0.457,1.241,9.494,1
249,35.233,-97.435,269,14.93,10.619,337,-0.448,1.216,9.503,1
250,35.233,-97.435,269.9,14.67,10.619,337,-0.437,1.177,9.583,1
251,35.233,-97.436,270.4,14.37,10.619,337,-0.438,1.159,9.559,1
252,35.233,-97.436,270.8,14.03,10.619,336,-0.445,1.153,9.587,1
253,35.233,-97.436,268.7,13.98,10.619,336,-0.356,0.038,9.802,1
254,35.233,-97.436,268,13.77,10.619,335,-0.385,-0.476,9.951,1
255,35.233,-97.436,267.5,12.84,13.653,336,-0.413,0.212,9.788,1
256,35.233,-97.436,267.5,12.84,19.721,336,-0.45,1.006,9.588,1
257,35.233,-97.436,269.5,8.95,9.102,334,-0.463,2.067,9.333,1
258,35.233,-97.437,270.3,9.38,7.585,334,-0.471,1.701,9.399,1
259,35.233,-97.437,270,9.47,7.585,334,-0.407,1.457,9.492,1
260,35.233,-97.437,270.6,9.26,9.102,334,-0.386,1.196,9.52,1
261,35.233,-97.437,270.4,8.83,7.585,333,-0.393,0.911,9.631,1
262,35.233,-97.437,269,7.84,9.102,333,-0.447,0.162,9.778,1
263,35.233,-97.437,269.9,5.77,9.102,331,-0.429,-0.219,9.92,1
264,35.233,-97.437,267,5.02,9.102,331,-0.43,0.197,9.803,1
265,35.233,-97.437,270.9,3.4,9.102,330,-0.433,0.291,9.767,1
266,35.233,-97.437,267.7,2.43,9.102,329,-0.425,0.551,9.704,1
267,35.233,-97.437,270.8,1.74,9.102,330,-0.422,0.963,9.616,1
268,35.233,-97.437,270.8,1.74,10.619,330,-0.408,0.889,9.62,1
269,35.233,-97.437,270.8,1.74,10.619,330,-0.396,0.684,9.675,1
270,35.233,-97.437,263.7,0.15,7.585,330,-0.395,1.145,9.567,1
271,35.233,-97.437,263.7,0.15,7.585,330,-0.399,1.29,9.531,1
272,35.233,-97.437,0,0,6.068,333,-0.404,1.392,9.505,1
273,35.233,-97.437,0,0,6.068,333,-0.402,1.418,9.498,1
274,35.233,-97.437,0,0,6.068,332,-0.407,1.422,9.496,1
275,35.233,-97.437,0,0,6.068,332,-0.404,1.426,9.497,1
276,35.233,-97.437,0,0,6.068,332,-0.4,1.426,9.496,1
277,35.233,-97.437,0,0,6.068,331,-0.402,1.423,9.5,1
278,35.233,-97.437,0,0,6.068,331,-0.405,1.425,9.499,1
279,35.233,-97.437,0,0,6.068,331,-0.403,1.917,9.366,1
280,35.233,-97.437,0,0,6.068,331,-0.406,3.189,9.045,1
281,35.233,-97.437,0,0,6.068,331,-0.406,3.195,9.048,1
282,35.233,-97.437,276.8,1.88,7.585,331,-0.433,3.152,9.04,1
284,35.233,-97.437,269.8,6.49,6.068,334,-0.403,2.907,9.118,1
285,35.233,-97.437,268.9,6.34,7.585,334,-0.386,2.633,9.168,1
286,35.233,-97.437,270.5,8.43,9.102,334,-0.36,2.586,9.211,1
287,35.233,-97.438,271,10.24,7.585,333,-0.326,2.507,9.244,1
288,35.233,-97.438,270.9,10.96,7.585,334,-0.429,2.42,9.326,1
289,35.233,-97.438,271.4,11.11,9.102,333,-0.492,2.306,9.323,1
290,35.233,-97.438,269.8,12.64,7.585,333,-0.398,1.746,9.416,1
291,35.233,-97.438,269.9,12.81,7.585,334,-0.349,0.838,9.656,1
292,35.233,-97.438,269.5,12.04,6.068,334,-0.394,0.466,9.688,1
293,35.233,-97.438,267.6,12.16,7.585,333,-0.385,0.929,9.595,1
294,35.233,-97.439,270,10.02,6.068,332,-0.398,1.035,9.573,1
295,35.233,-97.439,269.8,9.83,6.068,332,-0.372,0.063,9.803,1
296,35.233,-97.439,272.6,9.38,9.102,332,-0.366,-0.079,9.86,1
297,35.233,-97.439,272.6,9.38,13.653,332,-0.359,-0.238,9.885,1
298,35.233,-97.439,269.5,4.89,9.102,332,-0.377,0.227,9.779,1
299,35.233,-97.439,272.3,3.36,9.102,331,-0.377,0.285,9.767,1
300,35.233,-97.439,270.7,2.61,10.619,332,-0.393,0.241,9.785,1
301,35.233,-97.439,270.7,2.61,12.136,332,-0.395,0.787,9.656,1
302,35.233,-97.439,266.2,2.7,18.204,332,-0.403,1.535,9.471,1
303,35.233,-97.439,270.3,0.7,15.17,332,-0.403,2.305,9.29,1
304,35.233,-97.439,272.4,1.33,15.17,333,-0.4,0.81,9.641,1
305,35.233,-97.439,267.3,1.37,15.17,333,-0.406,0.512,9.731,1
306,35.233,-97.439,262.1,0.25,15.17,333,-0.403,1.206,9.549,1
307,35.233,-97.439,262.1,0.25,15.17,333,-0.403,1.37,9.511,1
308,35.233,-97.439,262.1,0.25,15.17,333,-0.404,1.684,9.437,1
309,35.233,-97.439,262.1,0.25,15.17,333,-0.409,1.64,9.447,1
310,35.233,-97.439,262.1,0.25,15.17,333,-0.402,1.502,9.484,1
311,35.233,-97.439,266.8,0.63,13.653,331,-0.409,1.247,9.543,1
312,35.233,-97.439,266.8,0.63,13.653,331,-0.409,1.113,9.574,1
313,35.233,-97.439,0,0,13.653,332,-0.412,1.297,9.531,1
314,35.233,-97.439,0,0,13.653,332,-0.413,1.418,9.493,1
315,35.233,-97.439,0,0,13.653,331,-0.41,1.805,9.407,1
316,35.233,-97.439,0,0,13.653,331,-0.41,1.859,9.394,1
317,35.233,-97.439,270.6,0.92,13.653,329,-0.416,1.842,9.396,1
318,35.233,-97.439,271.1,1.4,13.653,328,-0.407,2.683,9.195,1
319,35.233,-97.439,269,2.28,13.653,330,-0.394,2.652,9.199,1
320,35.233,-97.439,270.1,3.62,13.653,330,-0.374,3.058,9.052,1
321,35.233,-97.439,270.7,5.06,13.653,330,-0.393,2.46,9.264,1
322,35.233,-97.439,270,6.32,13.653,331,-0.418,2.04,9.344,1
323,35.233,-97.439,271.4,6.66,13.653,331,-0.421,1.98,9.391,1
324,35.233,-97.439,269.8,7.45,13.653,331,-0.435,2.22,9.308,1
325,35.233,-97.439,269.7,8.07,13.653,331,-0.469,2.371,9.27,1
326,35.233,-97.44,270.6,9.09,13.653,331,-0.477,2.338,9.273,1
327,35.233,-97.44,270.5,10.49,13.653,330,-0.383,1.895,9.376,1
328,35.233,-97.44,270.6,10.99,13.653,331,-0.425,1.965,9.391,1
329,35.233,-97.44,271.3,11.28,13.653,331,-0.434,1.959,9.355,1
330,35.233,-97.44,270.6,12.05,13.653,329,-0.431,1.837,9.375,1
331,35.233,-97.44,270,12.29,13.653,330,-0.429,1.704,9.426,1
332,35.233,-97.44,270.1,12.1,13.653,330,-0.407,1.438,9.511,1
333,35.233,-97.441,270.9,12.01,13.653,331,-0.387,1.334,9.538,1
334,35.233,-97.441,269.9,12.27,13.653,331,-0.337,2.092,9.345,1
335,35.233,-97.441,270.1,13.69,13.653,330,-0.324,2.687,9.252,1
336,35.233,-97.441,270.7,14.25,13.653,331,-0.258,1.586,9.458,1
337,35.233,-97.441,271.3,13.69,13.653,331,-0.074,1.226,9.371,1
338,35.233,-97.441,271,13.73,13.653,331,-0.155,1.157,9.582,1
339,35.233,-97.441,269.9,13.25,13.653,331,-0.357,1.147,9.606,1
340,35.233,-97.442,269.7,13.04,13.653,332,-0.34,1.134,9.59,1
341,35.233,-97.442,270.9,12.55,13.653,331,-0.345,1.291,9.56,1
342,35.233,-97.442,269.9,12.71,13.653,331,-0.385,1.401,9.514,1
343,35.233,-97.442,270,12.75,13.653,331,-0.411,1.669,9.429,1
344,35.233,-97.442,269.9,12.88,13.653,331,-0.413,1.767,9.381,1
345,35.233,-97.442,269.6,13.46,13.653,331,-0.393,1.843,9.404,1
346,35.233,-97.442,269.9,13.78,13.653,331,-0.346,1.742,9.407,1
347,35.233,-97.443,270.9,13.8,13.653,332,-0.368,1.419,9.513,1
348,35.233,-97.443,270.3,13.62,13.653,332,-0.379,1.218,9.545,1
349,35.233,-97.443,270.3,13.23,13.653,331,-0.402,1.434,9.49,1
350,35.233,-97.443,269.8,13.62,13.653,332,-0.35,1.62,9.435,1
351,35.233,-97.443,270,13.89,13.653,333,-0.316,1.516,9.483,1
352,35.233,-97.443,270.1,13.86,13.653,334,-0.351,1.293,9.536,1
353,35.233,-97.444,270.3,13.61,13.653,334,-0.333,1.301,9.502,1
354,35.233,-97.444,270.3,13.26,13.653,334,-0.359,1.598,9.464,1
355,35.233,-97.444,271.2,13.27,13.653,333,-0.412,1.756,9.436,1
356,35.233,-97.444,270.3,14,13.653,332,-0.374,1.75,9.432,1
357,35.233,-97.444,269.5,14.2,13.653,332,-0.336,1.8,9.381,1
358,35.233,-97.444,270.4,14.49,13.653,331,-0.338,1.867,9.368,1
359,35.233,-97.444,269.8,15.1,13.653,332,-0.372,1.888,9.376,1
360,35.233,-97.445,270.8,15.65,13.653,332,-0.403,1.577,9.431,1
361,35.233,-97.445,269.7,15.53,13.653,332,-0.406,1.597,9.547,1
362,35.233,-97.445,269.5,15.66,13.653,332,-0.361,1.642,9.487,1
363,35.233,-97.445,270,15.75,13.653,333,-0.379,1.622,9.435,1
364,35.233,-97.445,269.8,15.76,13.653,333,-0.47,1.628,9.442,1
365,35.233,-97.446,270.6,15.76,13.653,332,-0.51,1.727,9.411,1
366,35.233,-97.446,269.2,16.23,13.653,333,-0.444,1.922,9.393,1
368,35.233,-97.446,269.4,16.37,13.653,334,-0.305,2.025,9.293,1
369,35.233,-97.446,270.1,16.9,13.653,334,-0.219,2.049,9.336,1
370,35.233,-97.446,269.7,17.5,13.653,335,-0.299,2.004,9.279,1
371,35.233,-97.446,270.1,17.92,13.653,336,-0.321,1.55,9.438,1
372,35.233,-97.447,270.1,17.73,13.653,336,-0.379,1.25,9.557,1
373,35.233,-97.447,270.9,17.29,13.653,337,-0.449,1.196,9.568,1
374,35.233,-97.447,270.4,16.99,13.653,337,-0.456,1.186,9.544,1
375,35.233,-97.447,270.5,16.58,13.653,336,-0.454,1.187,9.6,1
376,35.233,-97.447,270.1,16.18,13.653,337,-0.423,1.175,9.563,1
377,35.233,-97.448,270.5,15.77,13.653,337,-0.382,0.565,9.696,1
378,35.233,-97.448,269.6,14.6,13.653,337,-0.375,0.274,9.818,1
379,35.233,-97.448,270.5,13.25,13.653,338,-0.386,0.906,9.715,1
380,35.233,-97.448,269.7,12.73,13.653,338,-0.39,1.079,9.535,1
381,35.233,-97.448,270.3,12.31,13.653,338,-0.277,1.439,9.436,1
382,35.233,-97.448,270.4,12.32,13.653,339,-0.202,1.643,9.379,1
383,35.233,-97.448,271.3,12.41,13.653,340,-0.027,1.595,9.387,1
384,35.233,-97.449,271.9,12.55,13.653,339,0.104,1.69,9.396,1
385,35.233,-97.449,275.4,12.97,13.653,335,0.04,1.663,9.323,1
386,35.233,-97.449,276.3,13.3,13.653,334,-0.212,1.723,9.383,1
387,35.233,-97.449,275.6,13.54,13.653,333,-0.532,1.509,9.477,1
388,35.233,-97.449,275.5,13.7,13.653,332,-0.541,1.663,9.348,1
389,35.233,-97.449,275.5,13.7,15.17,332,-0.553,1.572,9.439,1
390,35.233,-97.449,272,14.49,13.653,332,-0.594,1.45,9.437,1
391,35.233,-97.45,271.3,14.62,13.653,333,-0.45,1.545,9.433,1
392,35.233,-97.45,270.4,15.11,13.653,332,-0.41,1.286,9.565,1
393,35.233,-97.45,270.2,15.23,13.653,332,-0.352,1.151,9.486,1
394,35.233,-97.45,270,15.37,13.653,332,-0.316,1.282,9.539,1
395,35.233,-97.45,270,15.4,13.653,332,-0.218,1.219,9.579,1
396,35.233,-97.45,269.8,15.58,13.653,333,-0.235,1.184,9.601,1
397,35.233,-97.451,270.1,15.48,13.653,333,-0.279,1.189,9.644,1
398,35.233,-97.451,270,15.47,13.653,333,-0.297,1.189,9.652,1
399,35.233,-97.451,270.1,15.37,13.653,333,-0.255,1.308,9.665,1
400,35.233,-97.451,270.5,15.24,13.653,332,-0.224,1.401,9.627,1
401,35.233,-97.451,269.9,15.28,13.653,332,-0.229,1.294,9.64,1
402,35.233,-97.451,270.7,14.48,13.653,331,-0.238,1.414,9.544,1
403,35.233,-97.452,270.3,14.67,13.653,332,0.05,1.671,9.471,1
404,35.233,-97.452,270.9,14.95,13.653,332,0.294,1.864,9.517,1
405,35.233,-97.452,271.9,15.15,13.653,333,-0.162,1.852,9.485,1
406,35.233,-97.452,271.7,15.37,13.653,333,-0.509,2.16,9.451,1
407,35.233,-97.452,274,15.52,13.653,332,-0.798,2.278,9.406,1
408,35.233,-97.452,271.8,15.97,13.653,333,-0.529,1.663,9.636,1
409,35.233,-97.453,270.4,16.06,13.653,334,-0.383,1.331,9.628,1
410,35.233,-97.453,270,15.35,13.653,335,-0.128,0.598,9.665,1
411,35.233,-97.453,269.3,14.21,13.653,336,0.346,-0.226,9.838,1
412,35.233,-97.453,269.8,12.24,13.653,337,2.065,-0.135,9.783,0
413,35.233,-97.453,276.8,9.6,13.653,336,3.703,0.452,9.418,0
414,35.233,-97.453,299.3,8.08,13.653,336,3.418,2.218,9.034,0
415,35.233,-97.453,327.2,7.98,13.653,336,2.539,3.132,8.797,0
416,35.233,-97.453,332.7,7.65,13.653,336,1.176,3.26,8.924,0
417,35.233,-97.453,355.7,11.14,13.653,336,0.167,3.064,9.009,0
418,35.233,-97.453,358.4,12.92,13.653,336,-0.443,2.899,9.091,0
419,35.234,-97.453,357.7,14.97,13.653,336,-0.648,2.735,9.123,0
420,35.234,-97.453,357.7,14.97,13.653,336,-0.673,2.27,9.271,0
421,35.234,-97.453,353.1,17.44,4.551,335,-0.742,2.137,9.349,0
422,35.234,-97.453,351.9,17.76,4.551,336,-0.799,2.095,9.268,0
423,35.234,-97.453,349.9,18.81,4.551,335,-0.729,2.079,9.283,1
424,35.235,-97.453,348.9,19.23,4.551,335,-0.649,2.077,9.503,1
425,35.235,-97.454,347.7,19.8,4.551,335,-0.756,1.962,9.341,1
426,35.235,-97.454,346.2,20.2,4.551,335,-0.933,1.935,9.377,1
427,35.235,-97.454,344.9,20.69,4.551,336,-1.029,1.889,9.378,1
428,35.235,-97.454,344.9,20.69,4.551,336,-0.784,1.894,9.377,1
429,35.235,-97.454,342.9,21.45,4.551,335,-0.421,1.905,9.4,1
430,35.236,-97.454,342.8,21.81,4.551,335,-0.287,1.889,9.392,1
431,35.236,-97.454,342.6,22.23,4.551,336,-0.326,1.869,9.39,1
432,35.236,-97.454,342.6,22.65,4.551,335,-0.346,1.86,9.385,1
433,35.236,-97.454,342.4,22.97,4.551,335,-0.189,1.842,9.402,1
434,35.236,-97.454,342.6,23.43,4.551,335,0.021,1.809,9.392,1
435,35.237,-97.454,342.4,23.69,4.551,335,0.074,1.782,9.374,1
436,35.237,-97.454,341.9,24,4.551,335,0.052,1.661,9.406,1
437,35.237,-97.454,341.3,23.82,4.551,335,-0.109,1.234,9.499,1
438,35.237,-97.454,340.5,23.63,4.551,336,-0.184,1.112,9.602,1
439,35.237,-97.455,339.2,23.41,4.551,338,-0.198,1.091,9.592,1
440,35.238,-97.455,338.6,23.18,6.068,335,-0.076,1.159,9.599,1
441,35.238,-97.455,337.4,22.6,6.068,333,-0.043,1.128,9.572,1
442,35.238,-97.455,336.8,22.19,6.068,333,-0.074,1.204,9.617,1
443,35.238,-97.455,335.4,21.83,4.551,330,-0.084,1.368,9.497,1
444,35.238,-97.455,334.5,21.85,6.068,329,-0.071,1.43,9.519,1
445,35.239,-97.455,334.3,22.01,6.068,330,0.057,1.442,9.496,1
446,35.239,-97.455,333.7,22.07,6.068,330,-0.015,1.473,9.593,1
447,35.239,-97.455,333.7,22.07,9.102,330,0.052,1.504,9.458,1
448,35.239,-97.455,332.8,21.99,6.068,329,0.022,1.531,9.437,1
449,35.239,-97.456,332.5,21.91,6.068,330,-0.017,1.548,9.479,1
450,35.239,-97.456,332.4,21.84,6.068,331,-0.058,1.545,9.451,1
451,35.24,-97.456,332.6,21.82,6.068,331,-0.135,1.533,9.447,1
452,35.24,-97.456,333,21.94,6.068,330,-0.325,1.538,9.462,1
453,35.24,-97.456,333,21.94,7.585,330,-0.319,1.524,9.445,1
455,35.24,-97.456,332.6,21.84,6.068,330,-0.296,1.508,9.393,1
456,35.24,-97.456,332.4,21.85,6.068,330,-0.364,1.51,9.458,1
457,35.24,-97.456,332.4,21.85,7.585,330,-0.3,1.319,9.532,1
458,35.241,-97.456,333,21.86,6.068,331,-0.326,1.413,9.499,1
459,35.241,-97.457,332.6,21.77,6.068,331,-0.505,1.504,9.502,1
460,35.241,-97.457,332.4,21.9,6.068,331,-0.418,1.564,9.437,1
461,35.241,-97.457,332.4,22.08,6.068,331,-0.359,1.606,9.475,1
462,35.241,-97.457,332.4,22.07,7.585,331,-0.291,1.605,9.442,1
463,35.241,-97.457,332.6,22.36,6.068,330,-0.272,1.612,9.452,1
464,35.242,-97.457,332.6,22.57,6.068,331,-0.384,1.616,9.461,1
465,35.242,-97.457,332.7,22.78,6.068,329,-0.307,1.617,9.452,1
466,35.242,-97.457,332.4,22.8,6.068,330,-0.282,1.418,9.499,1
467,35.242,-97.457,332.7,22.67,7.585,330,-0.26,1.292,9.545,1
468,35.242,-97.458,332.7,22.67,9.102,330,-0.313,1.296,9.585,1
469,35.243,-97.458,333.2,22.43,7.585,330,-0.308,1.286,9.548,1
470,35.243,-97.458,333.2,22.43,9.102,330,-0.348,1.282,9.467,1
471,35.243,-97.458,332.6,21.79,7.585,330,-0.371,1.249,9.55,1
472,35.243,-97.458,332.6,21.79,9.102,330,-0.312,1.159,9.584,1
473,35.243,-97.458,333,21.35,9.102,329,-0.308,1.136,9.569,1
474,35.243,-97.458,333,21.35,10.619,329,-0.316,1.136,9.575,1
475,35.244,-97.458,333,20.6,7.585,328,-0.32,1.142,9.593,1
476,35.244,-97.458,333,20.6,9.102,328,-0.313,1.177,9.55,1
477,35.244,-97.459,332.7,20.01,7.585,329,-0.382,1.359,9.58,1
478,35.244,-97.459,332.7,20.01,10.619,329,-0.375,1.385,9.514,1
479,35.244,-97.459,331.5,19.53,7.585,330,-0.147,1.372,9.508,1
480,35.244,-97.459,331.5,19.53,9.102,330,0.117,1.345,9.485,1
481,35.245,-97.459,331.6,19.6,7.585,332,0.212,1.276,9.491,1
482,35.245,-97.459,331.6,19.6,10.619,332,0.216,1.168,9.54,1
483,35.245,-97.459,331.4,19.07,7.585,334,0.111,1.147,9.552,1
484,35.245,-97.459,331.4,19.07,10.619,334,0.04,1.156,9.539,1
485,35.245,-97.459,329.7,18.36,7.585,331,0.117,1.145,9.558,1
486,35.245,-97.459,329.3,18.17,7.585,331,0.164,1.151,9.564,1
487,35.245,-97.46,328.5,17.49,7.585,331,0.177,1.152,9.582,1
488,35.246,-97.46,328.2,17.27,7.585,332,0.096,1.152,9.6,1
489,35.246,-97.46,327.9,16.88,7.585,331,0.05,1.153,9.553,1
490,35.246,-97.46,327,16.57,6.068,330,0.032,1.153,9.565,1
491,35.246,-97.46,325.8,16.06,6.068,330,0.055,1.159,9.582,1
492,35.246,-97.46,325.5,15.94,6.068,330,0.147,1.142,9.542,1
493,35.246,-97.46,325.7,15.52,6.068,330,0.236,1.143,9.554,1
494,35.246,-97.46,324.9,15.09,6.068,330,0.214,1.143,9.539,1
495,35.246,-97.46,325.1,14.59,6.068,331,0.226,1.154,9.535,1
496,35.246,-97.46,324.6,14.21,6.068,331,0.092,1.543,9.453,1
497,35.247,-97.461,323.8,14.26,7.585,332,0.067,1.679,9.384,1
498,35.247,-97.461,323.7,14.55,7.585,332,0.066,1.588,9.445,1
499,35.247,-97.461,323.6,14.61,6.068,332,0.023,1.627,9.402,1
500,35.247,-97.461,324.3,14.81,6.068,331,-0.052,1.632,9.418,1
501,35.247,-97.461,323.8,14.91,6.068,332,-0.113,1.631,9.443,1
502,35.247,-97.461,323.2,15.06,6.068,332,-0.22,1.627,9.401,1
503,35.247,-97.461,324,15.28,6.068,333,-0.323,1.633,9.433,1
504,35.247,-97.461,323.7,15.49,6.068,333,-0.371,1.625,9.432,1
505,35.247,-97.461,323.2,15.64,6.068,333,-0.346,1.61,9.458,1
506,35.248,-97.462,323,16.04,6.068,332,-0.307,1.622,9.45,1
507,35.248,-97.462,323,16.04,6.068,333,-0.285,1.663,9.452,1
508,35.248,-97.462,323.1,16.49,4.551,331,-0.3,1.702,9.456,1
509,35.248,-97.462,323.4,16.77,4.551,332,-0.32,1.744,9.43,1
510,35.248,-97.462,323.5,17.16,6.068,332,-0.286,1.749,9.385,1
511,35.248,-97.462,323.2,17.4,6.068,331,-0.264,1.759,9.403,1
512,35.248,-97.462,322.9,17.77,6.068,331,-0.299,1.752,9.44,1
513,35.249,-97.462,323.3,18.18,6.068,331,-0.294,1.74,9.423,1
514,35.249,-97.462,323.6,18.36,6.068,331,-0.315,1.731,9.424,1
515,35.249,-97.463,323.6,18.67,6.068,331,-0.304,1.732,9.439,1
516,35.249,-97.463,323.8,19.04,6.068,331,-0.293,1.725,9.414,1
517,35.249,-97.463,323.6,19.32,6.068,331,-0.317,1.708,9.399,1
518,35.249,-97.463,323.6,19.61,6.068,331,-0.304,1.706,9.41,1
519,35.249,-97.463,323.6,19.85,6.068,331,-0.321,1.444,9.483,1
520,35.25,-97.463,323.1,19.73,6.068,330,-0.335,1.422,9.478,1
521,35.25,-97.463,323.1,19.72,7.585,330,-0.297,1.512,9.473,1
522,35.25,-97.463,323.2,19.88,6.068,328,-0.301,1.522,9.437,1
523,35.25,-97.464,323.5,20.01,6.068,328,-0.28,1.574,9.469,1
524,35.25,-97.464,323.8,20.5,6.068,327,-0.291,1.581,9.482,1
525,35.25,-97.464,323.8,20.49,7.585,327,-0.281,1.582,9.508,1
526,35.25,-97.464,323.7,20.84,6.068,327,-0.273,1.595,9.521,1
527,35.251,-97.464,323.6,20.97,6.068,325,-0.293,1.589,9.55,1
528,35.251,-97.464,323.6,21.15,6.068,324,-0.303,1.731,9.518,1
529,35.251,-97.464,323.4,21.57,6.068,325,-0.302,1.857,9.475,1
530,35.251,-97.465,323.5,21.9,6.068,326,-0.26,1.879,9.45,1
532,35.251,-97.465,323.6,22.21,6.068,325,-0.234,1.886,9.379,1
533,35.251,-97.465,323.6,22.65,6.068,325,-0.257,1.867,9.396,1
534,35.252,-97.465,323.9,22.87,6.068,323,-0.283,1.859,9.398,1
535,35.252,-97.465,323.4,23.15,6.068,323,-0.359,1.855,9.419,1
536,35.252,-97.465,323.6,23.49,6.068,324,-0.35,1.836,9.442,1
537,35.252,-97.465,323.5,23.79,6.068,324,-0.32,1.821,9.417,1
538,35.252,-97.466,323.5,24.04,6.068,324,-0.234,1.819,9.413,1
539,35.252,-97.466,323.6,24.24,6.068,325,-0.28,1.809,9.442,1
540,35.253,-97.466,323.6,24.5,6.068,326,-0.353,1.8,9.409,1
541,35.253,-97.466,323.5,24.63,6.068,326,-0.346,1.442,9.499,1
542,35.253,-97.466,323.4,24.34,6.068,327,-0.325,1.379,9.483,1
543,35.253,-97.466,323.5,24.12,6.068,327,-0.289,1.39,9.495,1
544,35.253,-97.467,323,23.9,6.068,327,-0.284,1.497,9.509,1
545,35.253,-97.467,323.5,23.9,6.068,327,-0.241,1.522,9.488,1
546,35.254,-97.467,323.5,23.82,6.068,327,-0.3,1.614,9.432,1
547,35.254,-97.467,323.6,23.83,6.068,327,-0.344,1.635,9.44,1
548,35.254,-97.467,323.6,23.83,7.585,327,-0.307,1.702,9.436,1
549,35.254,-97.467,323.3,24.09,6.068,329,-0.309,1.713,9.451,1
550,35.254,-97.467,323.3,24.08,7.585,330,-0.286,1.827,9.425,1
551,35.255,-97.468,323.4,24.36,6.068,329,-0.221,1.955,9.418,1
552,35.255,-97.468,323.4,24.36,7.585,330,-0.235,1.956,9.306,1
553,35.255,-97.468,323.8,25.3,4.551,330,-0.337,1.959,9.331,1
554,35.255,-97.468,323.8,25.3,6.068,331,-0.248,1.893,9.36,1
555,35.255,-97.468,323.7,25.93,6.068,331,-0.352,1.67,9.423,1
556,35.255,-97.468,323.7,25.93,7.585,331,-0.317,1.543,9.486,1
557,35.256,-97.469,323.7,26.01,6.068,331,-0.288,1.33,9.542,1
558,35.256,-97.469,323.7,26.01,7.585,332,-0.256,1.267,9.519,1
559,35.256,-97.469,324,25.45,6.068,331,-0.327,1.18,9.492,1
560,35.256,-97.469,324,25.45,7.585,331,-0.347,1.261,9.446,1
561,35.256,-97.469,323.8,24.84,6.068,331,-0.347,1.257,9.471,1
562,35.257,-97.469,323.8,24.84,9.102,331,-0.281,1.144,9.572,1
563,35.257,-97.47,323.3,24.26,6.068,330,-0.287,1.146,9.567,1
564,35.257,-97.47,323.3,24.25,9.102,330,-0.328,1.255,9.533,1
565,35.257,-97.47,323.8,23.78,7.585,328,-0.213,1.315,9.523,1
566,35.257,-97.47,324,23.62,7.585,328,-0.177,1.325,9.516,1
567,35.257,-97.47,324.1,23.44,7.585,328,0.116,1.324,9.483,1
568,35.258,-97.47,325.4,23.35,13.653,329,-0.148,1.322,9.497,1
569,35.258,-97.471,325.7,23.32,13.653,324,-0.396,1.333,9.478,1
570,35.258,-97.471,325.3,22.95,13.653,325,-0.514,1.359,9.524,1
571,35.258,-97.471,324.9,22.95,13.653,326,-0.576,1.411,9.541,1
572,35.258,-97.471,324.1,22.93,13.653,326,-0.575,1.348,9.598,1
573,35.258,-97.471,324,22.8,15.17,327,-0.361,1.282,9.522,1
574,35.259,-97.471,323.9,22.6,15.17,326,-0.425,1.219,9.581,1
575,35.259,-97.471,323.8,22.33,15.17,325,-0.402,1.263,9.575,1
576,35.259,-97.472,323.6,22.12,13.653,325,-0.249,1.317,9.606,1
577,35.259,-97.472,324,21.94,13.653,325,-0.356,1.319,9.553,1
578,35.259,-97.472,323.8,21.71,13.653,325,-0.319,1.259,9.583,1
579,35.259,-97.472,324,21.48,13.653,325,-0.422,1.177,9.544,1
580,35.26,-97.472,323.9,21.03,13.653,325,-0.464,1.174,9.561,1
581,35.26,-97.472,323.7,20.74,13.653,325,-0.434,1.159,9.532,1
582,35.26,-97.473,322.9,19.95,13.653,326,-0.383,1.152,9.505,1
583,35.26,-97.473,323,19.57,13.653,327,-0.302,1.162,9.554,1
584,35.26,-97.473,323,19.57,15.17,327,-0.256,1.167,9.552,1
585,35.26,-97.473,323.4,19.12,13.653,326,-0.268,1.171,9.538,1
586,35.261,-97.473,323.8,18.75,13.653,327,-0.349,1.18,9.555,1
587,35.261,-97.473,323.7,18.21,13.653,326,-0.376,0.711,9.653,1
588,35.261,-97.473,323.2,16.54,13.653,326,-0.382,0,9.862,1
589,35.261,-97.473,323,15.19,13.653,327,-0.36,-0.08,9.847,1
590,35.261,-97.473,323.2,13.68,13.653,327,-0.326,0.246,9.782,1
591,35.261,-97.474,323.7,12.67,13.653,328,-0.313,0.39,9.76,1
592,35.261,-97.474,323.7,11.38,13.653,329,-0.373,0.198,9.777,1
593,35.261,-97.474,323.2,9.8,13.653,329,-0.353,-0.035,9.868,1
594,35.261,-97.474,323.3,8.14,13.653,328,-0.342,-0.439,9.958,1
595,35.261,-97.474,323.3,8.14,15.17,328,-0.354,-0.355,9.934,1
596,35.261,-97.474,324.1,4.38,13.653,324,-0.35,-0.173,9.889,1
597,35.261,-97.474,323.3,3.02,13.653,324,-0.343,0.114,9.811,1
598,35.261,-97.474,324.8,1.68,13.653,325,-0.344,0.47,9.728,1
599,35.261,-97.474,324.9,1.21,13.653,326,-0.339,0.979,9.61,1
600,35.261,-97.474,320.5,1.17,13.653,327,-0.342,1.53,9.475,1
601,35.261,-97.474,320.5,1.17,15.17,327,-0.339,1.716,9.43,1
602,35.262,-97.474,323.9,1.72,13.653,327,-0.335,1.7,9.435,1
603,35.262,-97.474,321.9,2.05,13.653,327,-0.341,1.683,9.442,1
604,35.262,-97.474,323.7,2.19,13.653,325,-0.349,1.653,9.446,1
605,35.262,-97.474,323.3,2.31,13.653,325,-0.348,1.731,9.414,1
606,35.262,-97.474,323.3,3.22,13.653,325,-0.339,2.471,9.245,1
607,35.262,-97.474,322.9,4.54,13.653,326,-0.33,2.66,9.189,1
608,35.262,-97.474,324,5.81,13.653,327,-0.326,2.801,9.161,1
609,35.262,-97.474,325.1,7.23,13.653,328,-0.325,2.831,9.141,1
