time,lat,lng,bearing,spd,acc,alt,accx,accy,accz,stable,
0,35.22,-97.423,0,0,3,338,-0.108,3.299,9.389,0
1,35.22,-97.423,0,0,3,338,-0.142,3.322,9.342,0
2,35.22,-97.423,0,0,3,338,-0.142,3.324,9.376,0
3,35.22,-97.423,0,0,3,338,-0.166,3.326,9.374,1
4,35.22,-97.423,0,0,3,338,-0.167,3.326,9.372,1
5,35.22,-97.423,0,0,3,338,-0.16,3.331,9.37,1
6,35.22,-97.423,0,0,3,338,-0.161,3.321,9.385,1
7,35.22,-97.423,0,0,3,338,-0.172,3.318,9.388,1
8,35.22,-97.423,0,0,3,338,-0.152,3.307,9.418,1
9,35.22,-97.423,0,0,3,338,-0.162,3.315,9.41,1
10,35.22,-97.423,0,0,3,338,-0.173,3.327,9.343,1
11,35.22,-97.423,0,0,3,338,-0.163,3.32,9.378,1
12,35.22,-97.423,0,0,3,338,-0.166,3.33,9.387,1
13,35.22,-97.423,0,0,3,338,-0.144,3.334,9.359,1
14,35.22,-97.423,0,0,3,338,-0.137,3.333,9.353,1
15,35.22,-97.423,0,0,3,338,-0.186,3.32,9.404,1
16,35.22,-97.423,0,0,3,338,-0.164,3.316,9.406,1
17,35.22,-97.423,0,0,3,338,-0.136,3.616,9.307,1
18,35.22,-97.423,0,0,3,338,-0.075,4.384,9.101,0
19,35.22,-97.423,271.6,1.254,3,337,0.21,4.639,8.987,0
20,35.22,-97.423,270.3,2.4865,3,337,1.799,4.625,8.826,0
22,35.22,-97.423,282,4.3706,3,336,3.007,4.188,8.814,0
23,35.22,-97.424,317.4,5.6607,3,335,2.361,4.909,8.478,0
24,35.22,-97.424,332.1,5.8807,3,335,1.533,5.234,8.727,0
25,35.22,-97.424,338.8,5.7003,3,335,0.56,5.192,8.828,0
26,35.22,-97.424,359.2,7.6426,4,336,0.132,4.882,8.807,0
27,35.22,-97.424,357.5,10.431,4,336,-0.161,4.46,9.081,0
28,35.221,-97.424,359.9,13.32,3,336,-0.097,4.219,9.072,0
29,35.221,-97.424,359.8,14.06,3,335,0.086,4.318,9.17,0
30,35.221,-97.424,0.1,14.85,3,335,-0.19,4.387,9.044,0
31,35.221,-97.424,0.1,15.71,3,335,-0.521,4.127,9.21,0
32,35.221,-97.424,359.3,16.49,3,335,0.009,3.332,9.274,0
33,35.221,-97.424,359.6,16.8,3,335,-0.295,3.051,8.577,0
34,35.222,-97.424,359.7,16.59,3,335,-0.262,3.336,9.436,0
35,35.222,-97.424,359.8,16.58,3,335,-0.078,3.357,9.385,0
36,35.222,-97.424,359.7,16.591,3,335,-0.126,3.473,9.319,0
37,35.222,-97.424,0.4,16.56,3,335,-0.242,3.274,9.218,0
38,35.222,-97.424,0.4,16.56,3,335,-0.173,3.261,9.136,0
39,35.222,-97.424,0.4,16.56,3,335,-0.096,3.384,9.359,0
40,35.223,-97.424,0.4,16.36,3,335,-0.109,3.348,9.283,0
41,35.223,-97.424,0.5,16.27,3,334,-0.154,3.46,9.663,0
42,35.223,-97.424,0.8,16.22,3,334,0.064,3.505,9.204,0
43,35.223,-97.424,1.5,15.67,3,334,-0.176,3.294,9.15,0
44,35.223,-97.424,1.9,16.08,3,334,-0.275,3.345,9.138,0
45,35.223,-97.424,1,16.15,3,335,-0.417,3.525,9.162,0
46,35.223,-97.424,0.5,16.181,3,335,-0.349,3.528,9.196,0
47,35.224,-97.424,0.1,16.161,3,336,-0.168,3.366,9.553,0
48,35.224,-97.424,0.2,16.03,3,336,-0.089,2.923,9.472,0
49,35.224,-97.424,0.7,15.71,3,336,0.004,2.911,9.323,0
50,35.224,-97.424,0.9,15.09,3,336,-0.195,2.997,9.292,0
51,35.224,-97.424,0.9,14.71,3,336,-0.283,3.016,9.402,0
52,35.224,-97.424,0.9,14.432,3,336,-0.148,2.996,9.466,0
54,35.224,-97.424,0.5,13.76,3,337,-0.202,2.972,9.257,0
55,35.224,-97.424,0.4,13.27,3,337,-0.085,2.821,9.52,0
56,35.225,-97.424,0.2,12.74,3,337,-0.11,2.884,9.593,0
57,35.225,-97.424,0.2,12.26,3,337,-0.135,2.605,9.327,0
58,35.225,-97.424,0.3,11.75,3,337,-0.212,2.143,9.458,0
59,35.225,-97.424,0.5,10.61,3,337,-0.12,1.999,9.58,0
60,35.225,-97.424,0.4,9.2503,3,337,-0.248,2.292,9.582,0
61,35.225,-97.424,0.4,8.0602,3,336,-0.234,2.271,9.666,0
62,35.225,-97.424,1,7.1716,3,337,-0.184,2.33,9.726,0
63,35.225,-97.424,0.8,5.6223,3,336,-0.304,2.544,9.474,0
64,35.225,-97.424,0.5,4.5605,3,337,-0.265,2.614,9.471,0
65,35.225,-97.424,0.3,3.56,3,336,-0.228,2.194,9.633,0
66,35.225,-97.424,0.8,2.5007,3,336,-0.224,2.272,9.643,0
67,35.225,-97.424,0.8,2.5007,3,336,-0.198,3.048,9.468,0
68,35.225,-97.424,0,0,3,334,-0.162,3.414,9.361,0
69,35.225,-97.424,0,0,3,334,-0.158,3.442,9.354,0
70,35.225,-97.424,0,0,3,334,-0.152,3.459,9.354,1
71,35.225,-97.424,0,0,3,334,-0.16,3.458,9.333,1
72,35.225,-97.424,0,0,3,334,-0.153,3.458,9.341,1
73,35.225,-97.424,0,0,3,334,-0.165,3.463,9.354,1
74,35.225,-97.424,0,0,3,334,-0.16,3.462,9.359,1
75,35.225,-97.424,0,0,3,334,-0.148,3.452,9.35,1
76,35.225,-97.424,0,0,3,334,-0.158,3.472,9.355,1
77,35.225,-97.424,0,0,3,334,-0.154,3.457,9.339,1
78,35.225,-97.424,0,0,3,334,-0.158,3.454,9.322,1
79,35.225,-97.424,0,0,3,334,-0.16,3.466,9.401,0
80,35.225,-97.424,0,0,3,334,-0.191,3.507,9.406,0
81,35.225,-97.424,0,0,3,334,-0.188,3.485,9.355,0
82,35.225,-97.424,0,0,3,334,-0.148,3.466,9.38,0
83,35.225,-97.424,0,0,3,334,-0.186,3.463,9.308,0
84,35.225,-97.424,0,0,3,334,-0.175,3.459,9.362,0
85,35.225,-97.424,0,0,3,334,-0.14,3.474,9.344,0
86,35.225,-97.424,0,0,3,334,-0.103,4.849,8.978,0
87,35.225,-97.424,359.6,0.82152,3,337,-0.062,5.352,8.786,0
88,35.225,-97.424,359.5,1.9901,3,337,-0.071,5.177,8.87,0
89,35.225,-97.424,0.2,4.64,3,337,-0.097,4.842,9.011,0
90,35.225,-97.424,1.3,5.03,3,337,-0.18,4.743,8.974,0
91,35.225,-97.424,1.6,6.24,3,337,-0.18,4.495,8.861,0
93,35.226,-97.424,0.4,8.2807,3,338,-0.109,4.466,8.959,0
94,35.226,-97.424,0.1,9.1703,3,338,-0.084,4.19,9.304,0
95,35.226,-97.424,0.2,10.02,3,338,-0.181,4.172,9.202,0
96,35.226,-97.424,0.2,10.75,3,340,-0.028,4.274,9.064,0
97,35.226,-97.424,0.3,11.44,3,340,-0.116,4.225,9.318,0
98,35.226,-97.424,0.7,12.18,3,339,-0.101,4.154,9.404,0
99,35.226,-97.424,0.3,12.88,3,339,-0.08,4.069,9.095,0
100,35.226,-97.424,0.3,13.62,3,339,-0.079,4.067,9.337,0
101,35.226,-97.424,0.4,14.18,3,340,-0.128,4.018,9.191,0
102,35.226,-97.424,0.3,14.97,3,339,-0.016,3.972,9.132,0
103,35.227,-97.424,0.4,15.58,3,340,-0.151,3.92,9.05,0
104,35.227,-97.424,0.7,16.03,3,340,-0.135,3.701,9.165,0
105,35.227,-97.424,0.7,16.44,3,341,-0.152,3.835,9.036,0
106,35.227,-97.424,0.7,16.93,3,340,-0.139,3.719,9.278,0
107,35.227,-97.424,0.5,17.23,3,340,-0.163,3.793,9.231,0
108,35.227,-97.424,0.3,17.71,3,340,-0.157,3.657,9.135,0
109,35.228,-97.424,0.3,18.13,3,340,-0.043,3.166,9.215,0
110,35.228,-97.424,0.6,17.87,3,340,-0.165,3.545,9.269,0
111,35.228,-97.423,0.6,17.87,3,340,-0.232,3.482,9.585,0
112,35.228,-97.423,0.3,18.05,3,340,-0.177,3.416,9.526,0
113,35.228,-97.423,359.9,18.15,3,340,-0.076,3.392,9.547,0
114,35.229,-97.423,359.6,18.25,3,340,-0.061,3.306,9.401,0
115,35.229,-97.423,359.4,18.29,3,340,-0.041,3.533,9.141,0
116,35.229,-97.423,359.4,18.44,3,340,0.083,3.494,9.131,0
117,35.229,-97.423,0.1,18.44,3,339,0.04,3.404,9.308,0
118,35.229,-97.423,0.5,18.48,3,339,-0.172,3.544,9.474,0
119,35.229,-97.423,0.3,18.49,3,339,-0.029,3.488,9.266,0
120,35.23,-97.423,0.3,18.52,3,339,-0.192,3.61,9.439,0
121,35.23,-97.423,0.4,18.56,3,339,-0.288,3.607,9.454,0
122,35.23,-97.423,0.5,18.62,3,339,-0.095,3.502,9.47,0
123,35.23,-97.423,0.6,18.68,3,340,-0.149,3.187,9.229,0
124,35.23,-97.423,0.7,18.45,3,340,-0.174,3.195,9.455,0
125,35.23,-97.423,0.7,18.1,3,340,-0.226,3.418,9.143,0
126,35.231,-97.423,0.7,17.9,3,340,0.036,3.137,9.567,0
127,35.231,-97.423,0.9,17.78,3,341,0.034,2.948,9.569,0
128,35.231,-97.423,0.9,17.49,3,341,-0.151,2.819,9.53,0
129,35.231,-97.423,0.9,17.1,3,341,-0.099,2.989,9.518,0
130,35.231,-97.423,0.8,16.7,3,341,-0.064,2.972,9.448,0
131,35.231,-97.423,0.9,16.34,3,341,-0.42,2.269,9.79,0
132,35.231,-97.423,0.7,15.58,3,340,-0.536,1.864,9.644,0
133,35.232,-97.423,359,14.54,3,340,-0.316,2.257,8.65,0
134,35.232,-97.423,356.8,13.59,3,340,0.015,2.023,9.042,0
135,35.232,-97.423,356.1,12.75,3,339,0.283,2.169,10.237,0
137,35.232,-97.424,357.8,11.2,3,340,0.285,2.202,9.399,0
138,35.232,-97.424,359.5,9.9103,3,340,0.029,1.698,9.858,0
139,35.232,-97.423,0,8.3103,3,340,0.179,1.709,9.579,0
140,35.232,-97.424,0.6,6.6409,3,340,0.107,1.526,10.004,0
141,35.232,-97.424,0.2,4.7202,3,340,0.139,2.038,9.658,0
142,35.232,-97.424,0.9,2.8411,3,340,0.081,2.697,9.48,0
143,35.232,-97.424,0.5,1.9207,3,339,0.04,2.885,9.516,0
144,35.232,-97.424,0.8,1.2004,3,339,0.123,3.272,9.343,0
145,35.232,-97.424,0.8,1.2004,3,339,0.13,3.31,9.351,0
146,35.232,-97.424,0.7,0.51,3,340,0.112,3.426,9.327,0
147,35.232,-97.424,0.7,0.51,3,340,0.152,3.607,9.184,0
148,35.232,-97.424,0.7,0.51,3,340,0.115,3.384,9.258,1
149,35.232,-97.424,0.5,0.41,3,340,0.118,3.206,9.412,1
150,35.232,-97.424,0.5,0.41,3,340,0.132,3.467,9.333,1
151,35.232,-97.424,0.5,0.41,3,340,0.132,3.494,9.341,1
152,35.232,-97.424,0.5,0.41,3,340,0.134,3.498,9.322,1
153,35.232,-97.424,0,0,3,340,0.126,3.509,9.335,1
154,35.232,-97.424,0,0,3,340,0.133,3.519,9.334,1
155,35.232,-97.424,0,0,3,340,0.141,3.515,9.313,1
156,35.232,-97.424,0,0,3,340,0.129,3.51,9.303,1
157,35.232,-97.424,0,0,3,340,0.116,3.529,9.379,0
158,35.232,-97.424,0,0,3,340,0.108,3.55,9.395,0
159,35.232,-97.424,0,0,3,340,0.103,3.552,9.295,0
160,35.232,-97.424,0,0,3,340,0.144,3.533,9.3,0
161,35.232,-97.424,0,0,3,340,0.155,3.527,9.267,0
162,35.232,-97.424,0,0,3,340,0.152,3.517,9.267,0
163,35.232,-97.424,0,0,3,340,0.125,3.509,9.329,0
164,35.232,-97.424,0,0,3,340,0.142,3.515,9.327,0
165,35.232,-97.424,0,0,3,340,0.137,3.503,9.344,0
166,35.232,-97.424,0,0,3,340,0.124,3.499,9.35,1
167,35.232,-97.424,0,0,3,340,0.158,3.514,9.328,1
168,35.232,-97.424,0,0,3,340,0.143,3.531,9.289,1
169,35.232,-97.424,0,0,3,340,0.123,3.525,9.346,1
170,35.232,-97.424,0,0,3,340,0.138,3.494,9.348,0
171,35.232,-97.424,0,0,3,340,0.147,3.513,9.32,0
172,35.232,-97.424,0,0,3,340,0.152,3.635,9.31,0
173,35.232,-97.424,0,0,3,340,0.178,4.229,9.121,0
174,35.232,-97.424,359.3,0.82055,4,340,0.194,5.075,8.944,0
175,35.232,-97.424,359.8,2.2708,4,340,0.215,4.976,8.839,0
176,35.232,-97.424,358.7,3.174,4,340,0.254,5.193,8.689,0
177,35.232,-97.424,0.1,4.0803,3,340,0.375,4.688,8.731,0
178,35.232,-97.424,6,5.0802,3,341,0.297,4.51,9.111,0
179,35.233,-97.424,0.2,7.7702,3,340,0.372,3.696,9.48,0
180,35.233,-97.424,0.3,8.1801,3,340,0.271,3.67,9.386,0
182,35.233,-97.424,0.9,8.3502,3,341,0.341,3.368,9.493,0
183,35.233,-97.424,1.6,8.3107,3,339,-0.659,3.479,9.834,0
184,35.233,-97.424,358.5,8.1802,3,339,-1.373,3.333,9.51,0
185,35.233,-97.424,347.6,7.8,3,340,-2.398,3.078,9.797,0
186,35.233,-97.424,331.1,7.6101,3,339,-2.464,2.931,9.246,0
187,35.233,-97.424,308.4,7.3302,3,340,-2.349,3.542,9.625,0
188,35.233,-97.424,290,7.5132,3,340,-1.59,3.911,9.202,0
189,35.233,-97.424,274.5,8.2738,3,340,-0.592,4.044,9.287,0
190,35.233,-97.424,270,8.8823,3,339,-0.076,4.144,9.161,0
191,35.233,-97.424,269.6,9.7213,3,339,-0.279,4.138,9.493,0
192,35.233,-97.424,269.2,10.611,3,338,-0.338,4.158,9.362,0
193,35.233,-97.424,269.6,11.531,3,337,-0.178,4.197,9.145,0
194,35.233,-97.424,269.6,12.39,3,337,-0.245,3.758,8.991,0
195,35.233,-97.425,269.9,13.05,3,337,-0.25,3.653,9.1,0
196,35.233,-97.425,269.7,13.53,3,337,-0.193,3.739,9.407,0
197,35.233,-97.425,269.7,13.94,3,337,-0.188,3.708,9.483,0
198,35.233,-97.425,269.4,14.63,3,337,-0.134,3.878,9.518,0
199,35.233,-97.425,269.5,15.09,3,337,-0.248,4.271,8.96,0
200,35.233,-97.426,269.1,15.851,3,337,-0.49,4.137,9.473,0
201,35.233,-97.426,266.4,17.18,3,337,-0.614,4.412,9.134,0
202,35.233,-97.426,265.3,18.14,3,337,-0.041,4.31,8.933,0
203,35.233,-97.426,265.4,19.15,3,337,0.516,4.269,8.725,0
204,35.233,-97.426,267.3,20.06,3,336,0.669,4.243,9.012,0
205,35.233,-97.427,268.6,20.881,3,336,0.292,3.897,9.011,0
206,35.233,-97.427,269.1,21.541,3,336,0.07,3.151,9.457,0
207,35.233,-97.427,269.5,21.39,3,334,0.077,2.911,9.474,0
208,35.233,-97.427,269.7,21.15,3,334,0.008,2.906,9.701,0
209,35.233,-97.427,269.8,20.83,3,334,-0.134,3.026,9.548,0
210,35.233,-97.428,269.8,20.62,3,333,-0.049,3.055,9.252,0
211,35.233,-97.428,269.7,20.34,3,332,-0.002,3.105,8.986,0
212,35.233,-97.428,269.9,20.08,3,332,-0.129,3.214,9.622,0
213,35.233,-97.428,269.7,19.83,3,332,-0.009,3.301,9.464,0
214,35.233,-97.429,269.7,19.87,3,332,0.327,3.333,9.522,0
215,35.233,-97.429,270.5,19.94,3,333,0.297,3.288,9.579,0
216,35.233,-97.429,271.3,20.01,3,333,0.147,3.479,9.288,0
217,35.233,-97.429,271.7,20.3,3,333,0.138,3.544,9.451,0
218,35.233,-97.429,272,20.52,3,333,0.156,3.115,9.034,0
219,35.233,-97.43,272.3,20.46,3,333,-0.025,3.028,9.345,0
220,35.233,-97.43,272.3,20.17,3,333,-0.29,2.962,9.426,0
221,35.233,-97.43,271.9,19.88,3,333,-0.546,3.213,9.582,0
222,35.233,-97.43,271.2,19.62,3,333,-0.468,3.316,9.332,0
223,35.233,-97.431,270.2,19.58,3,333,-0.264,3.254,9.28,0
224,35.233,-97.431,269.7,19.58,3,333,-0.193,3.007,9.189,0
225,35.233,-97.431,269.6,19.44,3,333,-0.232,3.051,9.508,0
227,35.233,-97.431,269.6,19.18,3,332,-0.34,3.108,9.546,0
228,35.233,-97.431,269.7,18.84,3,332,-0.291,2.996,9.545,0
229,35.233,-97.432,269.6,18.55,3,332,-0.244,3.244,9.163,0
230,35.233,-97.432,269.6,18.32,3,331,-0.246,3.291,9.317,0
231,35.233,-97.432,269.8,18.24,3,331,-0.347,3.244,9.117,0
232,35.233,-97.432,269.9,17.94,3,330,-0.165,3.116,9.488,0
233,35.233,-97.432,269.9,17.57,3,330,-0.153,3.404,9.554,0
234,35.233,-97.433,269.7,17.27,3,331,-0.285,3.565,9.097,0
235,35.233,-97.433,269.7,17.2,3,330,-0.269,3.601,9.283,0
236,35.233,-97.433,269.4,17.12,3,331,-0.203,3.259,9.264,0
237,35.233,-97.433,270.3,17.4,3,330,-0.219,3.107,9.403,0
238,35.233,-97.433,270.4,17.15,3,329,-0.278,3.233,9.432,0
239,35.233,-97.434,270.5,16.75,3,329,-0.348,3.037,9.556,0
240,35.233,-97.434,271,16.42,3,329,-0.282,3.013,9.377,0
241,35.233,-97.434,270.2,15.87,3,329,-0.228,3.219,9.418,0
242,35.233,-97.434,270.1,15.42,3,329,-0.266,3.454,9.275,0
243,35.233,-97.434,269.9,15.12,3,330,-0.19,3.718,9.306,0
244,35.233,-97.434,269.9,15.05,3,330,-0.286,3.719,9.231,0
245,35.233,-97.435,270.1,15.27,3,331,-0.234,3.552,9.344,0
246,35.233,-97.435,270.3,15.38,3,330,-0.366,3.148,9.725,0
247,35.233,-97.435,270.2,15.12,3,330,-0.371,3.073,9.607,0
248,35.233,-97.435,269.8,14.8,3,331,-0.279,3.219,9.506,0
249,35.233,-97.435,269.9,14.64,3,331,-0.286,3.058,9.556,0
250,35.233,-97.436,269.6,14.41,3,331,-0.319,3.073,9.277,0
251,35.233,-97.436,269.4,14.12,3,331,-0.295,3.019,9.312,0
252,35.233,-97.436,269.4,13.84,3,332,-0.262,2.773,9.35,0
253,35.233,-97.436,269.8,13.03,3,331,-0.288,1.742,9.675,0
254,35.233,-97.436,270.1,11.1,3,331,-0.415,1.471,9.833,0
255,35.233,-97.436,270.1,10.4,3,331,-0.234,2.383,9.552,0
256,35.233,-97.436,270.3,8.4301,3,332,-0.19,3.458,9.413,0
257,35.233,-97.436,270.1,8.6501,3,331,-0.241,4.199,9.173,0
258,35.233,-97.437,269.8,9.4101,3,331,-0.298,3.438,9.361,0
259,35.233,-97.437,269.7,9.5503,3,331,-0.282,3.367,9.39,0
260,35.233,-97.437,270.3,9.4602,3,331,-0.275,3.098,9.458,0
261,35.233,-97.437,270.1,9.06,3,331,-0.364,2.38,9.648,0
262,35.233,-97.437,270.5,8.2201,3,331,-0.341,1.837,9.766,0
263,35.233,-97.437,270.1,7.66,3,331,-0.329,1.759,9.869,0
264,35.233,-97.437,266.5,5.572,9,331,-0.313,2.123,9.677,0
265,35.233,-97.437,269.2,3.9205,9,331,-0.315,2.207,9.667,0
266,35.233,-97.437,266.5,3.0513,9,331,-0.278,2.644,9.55,0
267,35.233,-97.437,265.3,2.2914,9,331,-0.261,2.905,9.441,0
268,35.233,-97.437,269.9,1.6705,9,331,-0.27,2.632,9.495,0
269,35.233,-97.437,269.9,1.6705,9,331,-0.26,2.746,9.507,0
270,35.233,-97.437,269.9,1.6705,9,331,-0.256,3.177,9.406,0
271,35.233,-97.437,269.9,1.6705,9,331,-0.237,3.27,9.392,0
272,35.233,-97.437,0,0,9,331,-0.227,3.316,9.369,0
273,35.233,-97.437,0,0,9,331,-0.218,3.324,9.382,1
275,35.233,-97.437,0,0,9,331,-0.228,3.325,9.382,1
276,35.233,-97.437,0,0,9,331,-0.228,3.33,9.41,1
277,35.233,-97.437,0,0,9,331,-0.214,3.333,9.384,1
278,35.233,-97.437,0,0,9,331,-0.229,3.337,9.401,1
279,35.233,-97.437,0,0,9,331,-0.226,3.395,9.344,1
280,35.233,-97.437,0,0,9,331,-0.161,4.747,8.984,0
281,35.233,-97.437,0,0,9,331,-0.174,5.202,8.925,0
282,35.233,-97.437,268.4,2.452,9,331,-0.125,5.078,8.911,0
283,35.233,-97.437,273.1,4.024,9,331,-0.071,4.875,8.839,0
284,35.233,-97.437,269.3,6.1812,9,330,0.034,4.64,9.073,0
285,35.233,-97.437,269.7,7.5105,9,330,-0.055,4.462,9.093,0
286,35.233,-97.437,269.5,8.76,9,330,0.028,4.391,8.978,0
287,35.233,-97.438,269.8,9.7301,9,330,-0.246,4.242,9.261,0
288,35.233,-97.438,270.1,10.82,9,330,-0.448,4.356,9.201,0
289,35.233,-97.438,270.2,11.82,9,330,-0.368,4.183,9.274,0
290,35.233,-97.438,270,12.55,9,331,-0.213,3.052,9.432,0
291,35.233,-97.438,270,12.76,9,331,-0.206,2.107,9.729,0
292,35.233,-97.438,270,11.981,9,331,-0.217,2.629,9.558,0
293,35.233,-97.438,270.1,10.73,9,332,-0.198,2.882,9.484,0
294,35.233,-97.439,269.9,9.65,9,331,-0.254,2.138,9.617,0
295,35.233,-97.439,269.5,8.3401,9,331,-0.211,1.884,9.637,0
296,35.233,-97.439,269.9,6.8001,9,331,-0.278,1.715,9.775,0
297,35.233,-97.439,271.1,6.08,9,331,-0.261,1.98,9.728,0
298,35.233,-97.439,270.2,4.9,9,331,-0.269,2.319,9.671,0
299,35.233,-97.439,271,3.76,9,331,-0.311,2.005,9.704,1
300,35.233,-97.439,265,2.7603,9,331,-0.273,2.202,9.565,1
301,35.233,-97.439,278,1.9702,9,331,-0.22,3.176,9.412,1
302,35.233,-97.439,278,1.9702,9,331,-0.22,3.699,9.371,0
303,35.233,-97.439,270.5,1.34,9,331,-0.185,3.868,9.205,0
304,35.233,-97.439,270.5,1.34,9,331,-0.309,2.322,9.694,0
305,35.233,-97.439,270.5,1.34,9,331,-0.257,3.02,9.52,0
306,35.233,-97.439,270.5,1.34,9,331,-0.239,3.287,9.394,0
307,35.233,-97.439,270.5,1.34,9,331,-0.222,3.513,9.376,0
308,35.233,-97.439,270.5,1.34,9,331,-0.199,3.657,9.291,0
309,35.233,-97.439,266.3,0.34,9,331,-0.205,3.461,9.235,0
310,35.233,-97.439,249.6,0.201,9,331,-0.218,3.249,9.396,0
311,35.233,-97.439,280,0.54,9,331,-0.226,3.017,9.464,0
312,35.233,-97.439,280,0.54,9,331,-0.227,3.146,9.44,0
313,35.233,-97.439,280,0.54,9,331,-0.231,3.287,9.362,0
314,35.233,-97.439,280,0.54,9,331,-0.22,3.647,9.323,0
315,35.233,-97.439,280,0.54,9,331,-0.199,3.768,9.266,0
316,35.233,-97.439,289.8,0.58,9,333,-0.25,3.779,9.32,0
317,35.233,-97.439,273.9,1.212,9,331,-0.158,4.413,9.117,0
318,35.233,-97.439,275,2.1304,9,332,-0.139,4.612,8.995,0
319,35.233,-97.439,269.5,2.4602,9,332,-0.106,4.851,9.12,0
320,35.233,-97.439,268.6,3.4704,9,332,-0.113,4.423,9.183,0
321,35.233,-97.439,268,4.7903,9,331,-0.213,3.865,9.285,0
322,35.233,-97.439,269.4,5.6602,9,332,-0.163,3.739,9.142,0
323,35.233,-97.439,270,7.3602,9,332,-0.165,3.985,9.148,0
324,35.233,-97.439,269.8,7.9209,9,331,-0.254,4.293,9.112,0
325,35.233,-97.44,269.6,8.8406,9,331,-0.122,4.317,9.175,0
326,35.233,-97.44,269.8,9.8902,9,330,-0.197,3.75,9.27,0
327,35.233,-97.44,269.8,10.58,9,330,-0.129,3.826,9.147,0
328,35.233,-97.44,269.8,11.02,9,330,-0.224,3.912,9.043,0
329,35.233,-97.44,269.9,11.56,9,329,-0.193,3.84,9.252,0
330,35.233,-97.44,269.6,12.07,9,330,-0.184,3.57,9.241,0
332,35.233,-97.44,269.8,12.34,9,330,-0.33,3.396,9.367,0
333,35.233,-97.44,269.8,12.56,9,330,-0.214,3.255,9.443,0
334,35.233,-97.441,270.1,12.43,9,329,-0.243,3.94,9.117,0
335,35.233,-97.441,270,12.44,9,329,-0.04,4.689,8.921,0
336,35.233,-97.441,270.4,13.47,9,328,-0.11,3.537,9.217,0
337,35.233,-97.441,270.2,14.14,9,329,0.075,3.102,9.118,0
338,35.233,-97.441,270.3,13.91,9,328,-0.014,3.082,8.969,0
339,35.233,-97.441,269.9,13.73,9,329,-0.28,3.091,9.702,0
340,35.233,-97.441,269.9,13.43,9,329,-0.208,3.017,9.475,0
341,35.233,-97.442,270.2,13.16,9,328,-0.139,3.21,9.46,0
342,35.233,-97.442,270.2,12.8,9,328,-0.19,3.217,9.357,0
343,35.233,-97.442,270.4,12.72,9,328,-0.195,3.548,9.304,0
344,35.233,-97.442,270.3,12.76,9,327,-0.343,3.669,9.098,0
345,35.233,-97.442,270.2,13.01,9,327,-0.264,3.842,9.324,0
346,35.233,-97.442,270,13.42,9,328,-0.183,3.74,9.333,0
347,35.233,-97.442,269.9,13.73,9,327,-0.229,3.444,9.405,0
348,35.233,-97.443,270.2,13.91,9,327,-0.238,3.172,9.451,0
349,35.233,-97.443,270.1,13.72,9,327,-0.256,3.346,9.422,0
350,35.233,-97.443,270,13.63,9,327,-0.191,3.646,9.167,0
351,35.233,-97.443,270,13.55,9,326,-0.088,3.433,9.274,0
352,35.233,-97.443,270.4,13.74,9,326,-0.18,3.057,9.232,0
353,35.233,-97.443,270.5,13.75,9,326,-0.161,3.272,9.378,0
354,35.233,-97.444,270.3,13.44,9,327,-0.262,3.601,9.177,0
355,35.233,-97.444,270.3,13.64,9,327,-0.222,3.674,9.22,0
356,35.233,-97.444,270.1,13.94,9,327,-0.193,3.584,9.204,0
357,35.233,-97.444,270.1,14.24,9,326,-0.138,3.617,9.217,0
358,35.233,-97.444,270.2,14.59,9,327,-0.127,3.791,9.239,0
359,35.233,-97.444,270.4,15.07,9,327,-0.278,3.909,9.14,0
360,35.233,-97.445,270.1,15.49,9,329,-0.259,3.685,9.327,0
361,35.233,-97.445,269.9,15.56,9,328,-0.153,3.427,9.456,0
362,35.233,-97.445,270,15.67,9,329,-0.133,3.488,9.428,0
363,35.233,-97.445,269.8,15.75,9,330,-0.178,3.523,9.302,0
364,35.233,-97.445,270,15.83,9,331,-0.264,3.494,9.651,0
365,35.233,-97.445,269.6,15.89,9,332,-0.347,3.626,9.164,0
366,35.233,-97.446,269.3,16.04,9,332,-0.258,3.824,9.093,0
367,35.233,-97.446,268.9,16.35,9,332,-0.061,3.992,8.997,0
368,35.233,-97.446,269.3,16.97,9,332,0.003,3.975,9.267,0
369,35.233,-97.446,269.8,17.47,9,331,-0.041,3.897,8.926,0
370,35.233,-97.446,270.6,17.93,9,331,-0.268,3.517,9.232,0
371,35.233,-97.447,270.5,17.73,9,332,-0.114,3.074,9.24,0
372,35.233,-97.447,270.6,17.31,9,330,-0.194,3.087,9.349,0
373,35.233,-97.447,270.5,16.98,9,331,-0.332,3.215,9.389,0
374,35.233,-97.447,270.4,16.53,9,331,-0.231,2.996,9.548,0
375,35.233,-97.447,270.3,16.23,9,331,-0.259,3.01,9.555,0
376,35.233,-97.448,270,15.74,9,332,-0.276,2.351,9.627,0
377,35.233,-97.448,270.2,14.74,9,332,-0.282,2.292,9.643,0
378,35.233,-97.448,270.1,13.35,9,332,-0.302,2.874,9.874,0
379,35.233,-97.448,270,12.71,9,333,-0.129,2.865,9.55,0
380,35.233,-97.448,270.3,12.32,9,332,-0.033,3.317,9.197,0
381,35.233,-97.448,270.5,12.23,9,333,0.057,3.679,9.07,0
382,35.233,-97.448,271.7,12.48,9,333,0.324,3.414,9.484,0
383,35.233,-97.449,273,12.64,9,332,0.352,3.442,9.506,0
384,35.233,-97.449,275,12.93,9,332,-0.013,3.659,9.392,0
385,35.233,-97.449,276.1,13.16,9,332,-0.252,3.56,9.604,0
386,35.233,-97.449,275.9,13.541,3,332,-0.396,3.423,9.554,0
387,35.233,-97.449,274.7,13.631,3,332,-0.371,3.509,9.22,0
388,35.233,-97.449,273.3,14.061,3,332,-0.649,3.476,9.109,0
389,35.233,-97.449,272.3,14.472,3,332,-0.424,3.444,9.332,0
391,35.233,-97.45,271.2,14.703,3,332,-0.251,3.327,9.5,0
392,35.233,-97.45,270.6,15.105,3,332,-0.144,2.943,9.668,0
393,35.233,-97.45,270,15.305,3,332,-0.232,3.073,9.588,0
394,35.233,-97.45,270.1,15.295,3,332,-0.294,3.196,9.851,0
395,35.233,-97.45,270.1,15.465,3,332,-0.188,3.018,9.536,0
396,35.233,-97.45,270.2,15.534,3,331,-0.138,3.076,9.461,0
397,35.233,-97.451,270.4,15.494,3,331,-0.192,3.072,9.317,0
398,35.233,-97.451,270.4,15.462,3,330,-0.095,3.21,9.745,0
399,35.233,-97.451,270.2,15.351,3,330,-0.095,2.977,9.791,0
400,35.233,-97.451,270,15.33,3,330,-0.022,3.584,9.554,0
401,35.233,-97.451,270,15.25,3,330,0.015,3.02,9.733,0
402,35.233,-97.451,270.2,15.17,3,330,-0.283,3.31,9.317,0
403,35.233,-97.452,270,15.04,5,330,0.427,3.539,9.393,0
404,35.233,-97.452,270.6,15.39,6,329,0.547,3.585,9.487,0
405,35.233,-97.452,273.4,15.101,4,329,-0.039,3.814,10.089,0
406,35.233,-97.452,274.5,15.261,3,329,-0.468,4.112,9.36,0
407,35.233,-97.452,273.8,15.433,3,329,-0.626,4.266,9.29,0
408,35.233,-97.452,272.1,15.943,3,329,-0.147,3.397,9.215,0
409,35.233,-97.453,270.6,16.087,3,331,-0.302,3.436,9.414,0
410,35.233,-97.453,269.7,15.365,3,331,0.098,2.248,9.508,0
411,35.233,-97.453,270.4,12.467,3,332,0.893,1.353,9.502,0
412,35.233,-97.453,275.5,9.8416,3,332,2.763,1.88,9.649,0
413,35.233,-97.453,298.6,8.1941,3,333,4.218,2.577,9.049,0
414,35.233,-97.453,328.3,8.0918,3,333,3.213,4.31,8.838,0
415,35.233,-97.453,347.1,9.52,3,332,1.938,5.11,8.285,0
416,35.233,-97.453,355.9,11.041,3,333,0.842,5.18,8.581,0
417,35.234,-97.453,358.8,12.85,3,332,0.15,4.939,8.694,0
418,35.234,-97.453,358.6,14.3,3,332,-0.341,4.895,9.278,0
419,35.234,-97.453,357.1,15.401,3,332,-0.539,4.446,9.112,0
420,35.234,-97.453,355.3,16.191,3,332,-0.499,4.032,9.109,0
421,35.234,-97.453,353.9,17.07,3,332,-0.596,3.886,9.108,0
422,35.234,-97.453,352.2,17.78,3,333,-0.597,3.951,8.839,0
423,35.234,-97.453,350.6,18.41,3,333,-0.587,4.006,9.558,0
424,35.235,-97.453,349.4,19.01,3,333,-0.473,3.892,9.205,0
425,35.235,-97.454,348.4,19.53,3,333,-0.67,3.808,9.452,0
426,35.235,-97.454,346.9,20,3,332,-0.826,3.781,9.478,0
427,35.235,-97.454,345,20.45,3,332,-0.724,3.739,9.228,0
428,35.235,-97.454,343.6,20.88,3,332,-0.611,3.874,9.117,0
429,35.235,-97.454,343,21.08,3,332,-0.052,3.774,9.348,0
430,35.236,-97.454,343.1,21.83,3,331,-0.188,3.842,9.265,0
431,35.236,-97.454,343.2,22.14,3,331,-0.11,3.657,9.401,0
432,35.236,-97.454,343.2,22.53,3,331,-0.124,3.795,9.089,0
433,35.236,-97.454,342.9,22.96,3,331,0.158,3.601,9.286,0
434,35.236,-97.454,342.8,23.19,3,331,0.175,3.586,9.114,0
435,35.237,-97.454,342.7,23.56,3,331,0.383,3.628,9.436,0
436,35.237,-97.454,342.5,23.83,3,331,0.072,3.369,9.223,0
437,35.237,-97.454,342,23.84,3,332,0.027,2.91,9.48,0
438,35.237,-97.454,340.5,23.62,3,332,-0.073,2.99,9.421,0
439,35.237,-97.455,339.4,23.24,3,332,-0.05,2.959,9.433,0
440,35.238,-97.455,338.4,22.93,3,332,-0.085,3.13,9.324,0
441,35.238,-97.455,338.5,23.12,3,332,0.109,2.942,9.621,0
442,35.238,-97.455,336.9,22.2,3,331,0.051,3.207,9.449,0
443,35.238,-97.455,336,21.96,3,332,0.075,3.162,9.466,0
444,35.238,-97.455,335.1,21.93,3,332,0.304,3.139,9.54,0
445,35.239,-97.455,334.3,21.91,3,332,-0.015,3.463,9.272,0
446,35.239,-97.455,333.8,21.86,3,333,0.012,3.503,9.597,0
447,35.239,-97.455,333,21.82,3,333,0.244,3.39,9.433,0
448,35.239,-97.455,332.7,21.84,3,334,0.128,3.442,9.25,0
449,35.239,-97.456,332.5,21.86,3,334,0.111,3.377,9.317,0
451,35.239,-97.456,332.5,21.88,3,333,0,3.282,9.371,0
452,35.24,-97.456,332.6,21.9,3,333,-0.038,3.395,9.41,0
453,35.24,-97.456,332.8,21.92,3,333,-0.232,3.396,9.18,0
454,35.24,-97.456,332.7,21.93,3,333,-0.182,3.463,9.376,0
455,35.24,-97.456,332.7,21.97,3,333,-0.261,3.409,9.321,0
456,35.24,-97.456,332.7,22.02,3,333,-0.203,3.276,9.444,0
457,35.24,-97.456,332.6,22.07,3,332,-0.152,3.156,9.395,0
458,35.241,-97.456,332.8,21.89,3,332,-0.417,3.308,9.2,0
459,35.241,-97.457,332.8,21.8,3,332,-0.396,3.358,9.357,0
460,35.241,-97.457,332.4,21.87,3,331,-0.173,3.354,9.505,0
461,35.241,-97.457,332.2,21.99,3,331,-0.139,3.443,9.297,0
462,35.241,-97.457,332.2,22.13,3,330,-0.17,3.424,9.29,0
463,35.242,-97.457,332.4,22.27,3,330,-0.253,3.515,9.454,0
464,35.242,-97.457,332.5,22.43,3,330,-0.291,3.438,9.299,0
465,35.242,-97.457,332.3,22.56,3,330,-0.342,3.559,9.293,0
466,35.242,-97.457,332.3,22.71,3,329,-0.175,3.202,9.427,0
467,35.242,-97.457,332.4,22.67,3,329,-0.178,3.147,9.494,0
468,35.242,-97.458,332.7,22.45,3,329,-0.179,3.029,9.545,0
469,35.243,-97.458,332.7,22.27,3,329,-0.272,3.296,9.297,0
470,35.243,-97.458,332.7,22.09,3,329,-0.294,3.063,9.495,0
471,35.243,-97.458,332.7,21.92,3,328,-0.335,3.114,9.36,0
472,35.243,-97.458,332.6,21.71,3,327,-0.235,3.055,9.465,0
473,35.243,-97.458,332.7,21.38,3,327,-0.26,3.058,9.448,0
474,35.243,-97.458,332.8,21.03,3,326,-0.213,2.984,9.469,0
475,35.244,-97.458,332.9,20.34,3,327,-0.266,2.95,9.592,0
476,35.244,-97.459,332.9,20.05,3,327,-0.335,3.208,9.569,0
477,35.244,-97.459,332.6,19.91,3,327,-0.326,3.249,9.509,0
478,35.244,-97.459,332,19.81,3,326,-0.218,3.278,9.457,0
479,35.244,-97.459,331.5,19.68,3,327,0.191,3.182,9.129,0
480,35.245,-97.459,331.4,19.55,3,328,0.31,3.198,9.349,0
481,35.245,-97.459,331.5,19.36,3,328,0.285,3.096,9.523,0
482,35.245,-97.459,331.4,19.1,3,328,0.376,3.031,9.404,0
483,35.245,-97.459,330.9,18.78,3,328,0.163,2.98,9.315,0
484,35.245,-97.459,330.1,18.45,3,329,0.192,2.942,9.513,0
485,35.245,-97.459,329.3,18.14,3,330,0.45,2.888,9.514,0
486,35.245,-97.46,328.9,17.82,3,331,0.357,2.914,9.497,0
487,35.246,-97.46,328.4,17.49,3,331,0.138,2.974,9.358,0
488,35.246,-97.46,327.9,17.12,3,331,0.161,2.95,9.538,0
489,35.246,-97.46,327.4,16.74,3,331,0.181,2.971,9.528,0
490,35.246,-97.46,326.7,16.38,3,331,0.217,3.052,9.429,0
491,35.246,-97.46,325.9,15.99,3,331,0.117,3.063,9.361,0
492,35.246,-97.46,325.4,15.61,3,331,0.243,3.04,9.501,0
493,35.246,-97.46,325.2,15.21,3,331,0.262,3.041,9.169,0
494,35.246,-97.46,325,14.82,3,331,0.35,3.081,9.367,0
495,35.247,-97.46,324.8,14.44,3,331,0.185,3.326,9.24,0
496,35.247,-97.461,324.4,14.23,3,331,0.195,3.652,9.063,0
497,35.247,-97.461,323.8,14.45,3,331,0.281,3.328,9.246,0
498,35.247,-97.461,323.7,14.54,3,331,0.161,3.421,9.175,0
499,35.247,-97.461,323.8,14.67,3,332,0.167,3.521,9.185,1
500,35.247,-97.461,323.9,14.86,3,332,0.038,3.429,9.261,0
501,35.247,-97.461,324,15.03,3,331,0.127,3.507,9.308,0
502,35.247,-97.461,324,15.18,3,330,-0.099,3.49,9.365,0
503,35.247,-97.461,323.9,15.36,3,330,-0.211,3.562,9.204,0
504,35.248,-97.461,323.6,15.55,3,330,-0.178,3.473,9.393,0
505,35.248,-97.461,323.3,15.74,3,330,-0.189,3.507,9.338,0
506,35.248,-97.462,323.3,15.93,3,330,-0.19,3.494,9.33,0
507,35.248,-97.462,323.3,16.13,3,330,-0.04,3.442,9.39,0
508,35.248,-97.462,323.3,16.39,3,330,-0.152,3.473,9.294,0
509,35.248,-97.462,323.3,16.64,3,330,-0.168,3.58,9.107,0
510,35.248,-97.462,323.3,16.95,3,330,-0.089,3.638,9.27,0
511,35.248,-97.462,323.4,17.27,3,330,-0.126,3.639,9.403,0
512,35.248,-97.462,323.5,17.59,3,330,-0.194,3.538,9.429,0
513,35.249,-97.462,323.5,17.89,3,330,-0.231,3.686,9.133,0
514,35.249,-97.462,323.6,18.2,3,330,-0.208,3.652,9.233,0
515,35.249,-97.463,323.6,18.52,3,330,-0.206,3.668,9.349,0
517,35.249,-97.463,323.6,18.84,3,330,-0.092,3.434,9.288,0
518,35.249,-97.463,323.6,19.13,3,330,-0.288,3.666,9.396,0
519,35.249,-97.463,323.6,19.45,3,330,-0.209,3.584,9.183,0
520,35.249,-97.463,323.5,19.77,3,329,-0.225,3.172,9.498,0
521,35.25,-97.463,323.5,19.76,3,330,-0.187,3.35,9.534,0
522,35.25,-97.463,323.6,19.73,3,330,-0.161,3.4,9.47,0
523,35.25,-97.463,323.4,19.92,3,330,-0.104,3.445,9.215,0
524,35.25,-97.464,323.7,20.01,3,330,-0.171,3.431,9.52,0
525,35.25,-97.464,323.5,20.31,3,330,-0.17,3.436,9.504,0
526,35.25,-97.464,323.6,20.54,3,330,-0.167,3.492,9.311,0
527,35.25,-97.464,323.7,20.77,3,330,-0.135,3.395,9.379,0
528,35.251,-97.464,323.8,20.95,3,329,-0.256,3.514,9.374,0
529,35.251,-97.464,323.7,21.1,3,328,-0.173,3.69,9.317,0
530,35.251,-97.464,323.5,21.39,3,329,-0.145,3.764,9.221,0
531,35.251,-97.465,323.4,21.73,3,329,-0.127,3.729,9.091,0
532,35.251,-97.465,323.5,22.07,3,329,-0.021,3.663,9.231,0
533,35.251,-97.465,323.6,22.4,3,329,-0.02,3.636,9.18,0
534,35.252,-97.465,323.7,22.74,3,329,-0.243,3.704,9.305,0
535,35.252,-97.465,323.8,23.05,3,329,-0.213,3.777,9.25,0
536,35.252,-97.465,323.6,23.38,3,330,0.028,3.573,9.165,0
537,35.252,-97.465,323.5,23.65,3,331,-0.014,3.74,9.113,0
538,35.252,-97.466,323.4,23.89,3,332,-0.066,3.859,9.153,0
539,35.252,-97.466,323.6,24.16,3,333,-0.127,3.774,9.3,0
540,35.253,-97.466,323.7,24.41,3,333,-0.043,3.427,9.529,0
541,35.253,-97.466,323.5,24.48,3,333,-0.154,3.075,9.523,0
542,35.253,-97.466,323.5,24.23,3,332,-0.114,3.091,9.468,0
543,35.253,-97.467,323.5,24.03,3,333,-0.113,3.377,9.407,0
544,35.253,-97.467,323.5,23.95,3,333,-0.169,3.538,9.332,0
545,35.254,-97.467,323.6,23.89,3,333,-0.239,3.652,9.334,0
546,35.254,-97.467,323.6,23.88,3,333,-0.108,3.409,9.24,0
547,35.254,-97.467,323.6,23.94,3,334,-0.118,3.537,9.276,0
548,35.254,-97.467,323.5,24.05,3,335,-0.265,3.482,9.561,0
549,35.254,-97.467,323.4,24.17,3,335,-0.186,3.526,9.436,0
550,35.255,-97.468,323.4,24.37,3,335,0.038,3.641,9.504,0
551,35.255,-97.468,323.6,24.71,3,335,0.005,3.794,9.283,0
552,35.255,-97.468,323.7,25.09,3,336,-0.241,3.83,9.244,0
553,35.255,-97.468,323.7,25.49,3,336,-0.166,3.864,9.215,0
554,35.255,-97.468,323.7,25.84,3,335,-0.181,3.699,9.294,0
555,35.255,-97.468,323.7,26.03,3,334,-0.155,3.327,9.373,0
556,35.256,-97.469,323.7,26.01,3,334,-0.1,3.232,9.494,0
557,35.256,-97.469,323.7,25.82,3,335,-0.054,3.162,9.354,0
558,35.256,-97.469,323.8,25.54,3,335,-0.342,3.039,9.417,0
559,35.256,-97.469,323.8,25.24,3,334,-0.137,3.081,9.665,0
560,35.256,-97.469,323.6,24.87,3,334,-0.294,3.114,9.43,0
561,35.257,-97.469,323.5,24.73,3,334,-0.339,3.213,9.155,0
562,35.257,-97.47,323.5,24.38,3,334,-0.244,3.131,9.547,0
563,35.257,-97.47,323.6,24.02,3,334,-0.228,3.117,9.421,0
564,35.257,-97.47,323.6,23.77,3,335,-0.168,3.081,9.094,0
565,35.257,-97.47,323.7,23.61,3,334,-0.068,3.231,9.43,0
566,35.257,-97.47,324,23.47,3,334,0.225,3.146,9.335,0
567,35.258,-97.47,324.8,23.38,3,334,0.131,3.14,9.421,0
568,35.258,-97.471,325.6,23.23,3,333,-0.245,3.233,9.473,0
569,35.258,-97.471,325.4,23.1,3,333,-0.441,3.252,9.546,0
570,35.258,-97.471,325.1,23,3,333,-0.639,3.302,9.383,0
571,35.258,-97.471,324.6,22.95,3,333,-0.454,3.232,9.233,0
572,35.258,-97.471,324.1,22.87,3,333,-0.344,3.218,9.391,0
573,35.259,-97.471,323.8,22.66,3,332,-0.298,3.244,9.596,0
574,35.259,-97.471,323.9,22.46,3,332,-0.29,2.987,9.308,0
575,35.259,-97.472,323.6,22.18,3,332,-0.059,3.266,9.367,0
576,35.259,-97.472,323.7,21.99,3,333,-0.264,3.315,9.297,0
577,35.259,-97.472,323.9,21.84,3,332,-0.166,3.156,9.473,0
578,35.259,-97.472,323.9,21.6,3,332,-0.241,2.979,9.39,0
579,35.26,-97.472,323.9,21.25,3,332,-0.397,3.043,9.471,0
580,35.26,-97.472,323.6,20.89,3,332,-0.304,3.01,9.301,0
582,35.26,-97.472,323.3,20.48,3,332,-0.306,3.029,9.099,0
583,35.26,-97.473,323.2,20.14,3,332,-0.217,3.017,9.367,0
584,35.26,-97.473,323.1,19.8,3,332,-0.13,2.992,9.433,0
585,35.26,-97.473,323.3,19.5,3,331,-0.189,3.023,9.399,0
586,35.26,-97.473,323.6,19.22,3,331,-0.191,3.025,9.388,0
587,35.261,-97.473,323.8,18.91,3,330,-0.258,2.76,9.455,0
588,35.261,-97.473,323.7,18.59,3,330,-0.279,1.944,9.72,1
589,35.261,-97.473,323.7,17.47,3,330,-0.252,1.707,9.695,0
590,35.261,-97.473,323.6,15.8,3,330,-0.266,1.916,9.663,0
591,35.261,-97.473,323.5,14.25,3,330,-0.177,2.232,9.735,0
592,35.261,-97.474,323.6,13.14,3,329,-0.378,2.03,9.855,0
593,35.261,-97.474,323.6,12.01,3,329,-0.306,1.826,9.814,0
594,35.261,-97.474,323.5,10.67,3,330,-0.303,1.442,9.766,0
595,35.261,-97.474,323.6,8.99,3,330,-0.252,1.433,9.837,0
596,35.261,-97.474,323.7,6.87,3,330,-0.263,1.583,9.837,0
597,35.261,-97.474,323.9,5.1301,3,329,-0.221,1.871,9.738,0
598,35.261,-97.474,323.9,3.5607,3,329,-0.277,2.309,9.637,0
599,35.261,-97.474,324,2.3201,3,329,-0.269,2.717,9.514,0
600,35.261,-97.474,323.5,1.4603,3,329,-0.196,3.383,9.319,1
601,35.261,-97.474,323.5,1.4603,3,329,-0.193,3.601,9.343,0
602,35.262,-97.474,323.8,1.34,3,329,-0.198,3.59,9.337,0
603,35.262,-97.474,323.3,1.64,3,329,-0.193,3.523,9.329,0
604,35.262,-97.474,323.8,1.87,3,329,-0.22,3.506,9.337,0
605,35.262,-97.474,323.6,2.26,3,331,-0.218,3.475,9.315,0
606,35.262,-97.474,323.5,2.77,3,331,-0.191,4.391,9.092,0
607,35.262,-97.474,323.3,3.9303,3,332,-0.185,4.529,9.053,0
608,35.262,-97.474,323.7,5.22,3,332,-0.16,4.695,9.104,0
609,35.262,-97.474,323.3,6.5801,3,332,-0.177,4.653,9.139,0
610,35.262,-97.474,323.2,7.9501,3,332,-0.146,4.634,9.174,0
611,35.262,-97.474,323.5,9.25,3,333,-0.046,4.656,9.067,0
