time,lat,lng,bearing,spd,acc,alt,accx,accy,accz,stable,
0,35.204,-97.478,270.2,12.981,9,319,-3.135,0.18,8.971,1
1,35.204,-97.479,273.3,12.55,9,318,-3.26,0.669,9.142,0
2,35.204,-97.479,279.7,12.45,9,318,-3.507,1.07,8.907,0
3,35.204,-97.479,288.4,12.5,9,318,-3.999,1.56,9.218,0
4,35.204,-97.479,300.5,12.6,9,318,-3.734,1.159,9.265,0
5,35.204,-97.479,313,12.52,10,318,-4.057,0.829,9.218,0
6,35.204,-97.479,324.8,12.791,5,318,-3.467,-0.366,9.13,1
7,35.205,-97.479,339.6,12.973,5,318,-3.512,-0.646,8.781,1
8,35.205,-97.479,342.9,13.307,10,318,-3.409,-0.655,9.016,1
9,35.205,-97.479,343.5,13.933,9,317,-2.595,-1.651,8.504,1
10,35.205,-97.479,341.5,13.792,8,317,-2.778,-1.183,8.915,0
11,35.205,-97.479,341.6,13.793,3,316,-2.892,-1.151,9.287,0
12,35.205,-97.479,341,14.073,4,316,-2.729,-1.504,9.062,1
13,35.205,-97.48,340.3,14.402,4,316,-2.901,-1.295,9.013,0
14,35.205,-97.48,340.3,14.991,4,315,-3.06,-1.313,9.2,1
15,35.205,-97.48,340.3,14.991,4,315,-3.102,-1.293,9.007,0
16,35.206,-97.48,340.4,16.384,5,314,-3.019,-1.254,9.362,0
17,35.206,-97.48,340.4,17.252,5,313,-3.361,-1.409,8.743,0
18,35.206,-97.48,340.4,18.45,5,313,-3.659,-1.282,8.304,0
19,35.206,-97.48,340.2,19.65,6,314,-4.035,-1.701,9.17,0
20,35.206,-97.48,340.1,20.622,5,314,-3.849,-1.684,8.835,0
21,35.206,-97.48,339.7,21.744,4,315,-3.396,-2.146,9.443,0
22,35.207,-97.48,338.8,22.664,4,316,-3.175,-1.165,7.987,0
23,35.207,-97.48,338.3,23.417,4,317,-3.207,-0.773,9.177,0
24,35.207,-97.48,337.8,23.897,4,317,-2.93,-1.198,9.624,0
25,35.207,-97.481,335.9,25.014,4,318,-3.112,-0.606,9.092,0
26,35.208,-97.481,335.4,25.595,4,318,-3.113,-0.773,8.91,0
27,35.208,-97.481,334.9,25.986,3,319,-2.949,-1.008,8.355,0
28,35.208,-97.481,333.8,26.268,3,320,-2.755,-1.605,8.862,0
29,35.208,-97.481,331.8,26.808,3,321,-3.015,-1.442,9.084,0
30,35.208,-97.481,330.5,27.497,3,321,-3.328,-0.801,8.762,1
31,35.209,-97.481,330.1,28.356,3,321,-3.478,-0.673,8.67,0
32,35.209,-97.481,330.8,29.065,3,322,-3.94,-1.144,8.914,0
33,35.209,-97.482,331.5,30.134,3,322,-3.651,-1.402,8.742,0
34,35.209,-97.482,331.8,31.272,3,322,-2.692,-2.289,8.831,1
35,35.21,-97.482,330.3,31.882,4,322,-3.084,-2.017,9.084,0
36,35.21,-97.482,329.5,32.761,4,322,-4.037,-0.784,8.85,0
37,35.21,-97.482,331,33.831,4,322,-3.249,-1.708,8.592,0
38,35.21,-97.482,331.4,34.771,4,321,-3.074,-2.038,8.819,0
39,35.211,-97.483,331,35.5,4,321,-2.306,-2.702,9.289,0
40,35.211,-97.483,329.4,35.841,4,321,-3.992,-0.153,8.634,0
41,35.211,-97.483,331,36.88,4,321,-3.585,-0.904,8.827,0
42,35.212,-97.483,332.1,37.94,4,321,-2.399,-1.821,8.317,0
43,35.212,-97.483,331.1,38.42,5,321,-2.456,-1.996,8.34,0
44,35.212,-97.484,329.8,38.76,4,321,-3.908,-0.116,8.452,0
45,35.212,-97.484,331.5,39.51,5,321,-2.8,0.09,9.307,0
46,35.213,-97.484,332.7,39.18,5,321,-3.314,0.428,9.853,0
47,35.213,-97.484,334.9,39.151,5,322,-3.32,0.527,9.6,0
48,35.213,-97.484,336.8,38.452,4,326,-2.914,0.266,9.266,0
49,35.214,-97.485,339.1,38.133,4,327,-2.994,0.045,9.748,0
50,35.214,-97.485,340.8,37.291,3,326,-2.892,-0.083,8.887,0
51,35.214,-97.485,342.3,36.621,4,324,-3.35,0.246,8.96,0
52,35.215,-97.485,344.4,36.13,4,323,-2.663,-0.168,9.261,0
53,35.215,-97.485,345.6,35.43,4,323,-2.701,-0.032,8.995,0
54,35.215,-97.485,347.1,34.811,4,324,-3.251,-0.166,10.035,0
55,35.216,-97.485,349.2,34.37,4,323,-3.324,-0.345,9.108,0
57,35.216,-97.485,350.8,34.2,3,324,-3.339,-0.353,8.881,1
57,35.216,-97.485,350.8,34.2,3,324,-3.339,-0.353,8.881,1
58,35.216,-97.485,352.5,34.22,4,324,-3.262,-0.343,9.151,0
59,35.216,-97.485,354.1,34.24,4,324,-3.072,-0.502,8.99,0
60,35.217,-97.485,355.5,34.672,3,324,-3.49,-0.097,8.328,0
61,35.217,-97.485,357.5,34.971,3,324,-3.455,-0.559,9.616,0
62,35.217,-97.485,359.6,35.331,3,324,-2.664,-0.715,9.425,0
63,35.218,-97.485,0.4,35.441,3,324,-2.269,-0.324,8.61,0
64,35.218,-97.485,0.2,34.811,3,325,-2.792,-0.854,9.315,0
65,35.218,-97.485,0.2,34.151,3,324,-2.723,-0.562,8.381,0
66,35.219,-97.485,359.8,33.282,5,325,-2.596,-0.822,8.823,0
67,35.219,-97.485,359.6,32.862,6,325,-3.015,-0.734,9.231,0
68,35.22,-97.485,359.6,32.61,4,324,-3.283,-0.638,9.729,0
69,35.22,-97.485,359.9,32.46,4,323,-3.4,-0.595,10.008,0
70,35.22,-97.485,0.2,32.39,4,323,-2.972,-0.534,9.374,0
71,35.22,-97.485,0.3,32.271,5,324,-2.945,-0.591,9.268,0
72,35.221,-97.485,0.2,32.25,9,323,-2.986,-0.637,9.948,0
73,35.221,-97.485,0,32.39,10,323,-3.015,-0.668,8.893,1
74,35.221,-97.485,0,32.74,4,322,-2.998,-0.713,8.765,0
75,35.222,-97.485,0,32.94,9,323,-2.81,-0.626,8.827,0
76,35.222,-97.485,0,33.13,9,323,-2.946,-0.561,9.016,0
77,35.222,-97.485,0.2,34.08,4,323,-2.75,-0.676,8.839,0
78,35.223,-97.485,0.1,34.33,4,322,-2.992,-0.578,9.027,1
79,35.223,-97.485,0,34.27,4,322,-2.793,-0.398,8.994,0
80,35.223,-97.485,0,34.21,5,321,-2.7,-0.475,9.163,0
81,35.224,-97.485,0,34.25,5,322,-2.559,-0.501,9.181,1
82,35.224,-97.485,359.9,33.41,4,317,-2.744,-0.417,8.96,1
83,35.224,-97.485,0,33.17,4,319,-2.873,-0.535,9.26,1
84,35.225,-97.485,0,33.12,4,319,-2.728,-0.647,9.911,0
85,35.225,-97.485,359.8,33.09,4,319,-2.905,-0.654,9.232,0
86,35.225,-97.485,359.8,33.03,4,318,-3.082,-0.54,9.04,0
87,35.225,-97.485,359.7,33.051,4,319,-3.148,-0.666,8.932,0
88,35.226,-97.485,0.1,33.17,4,319,-3.054,-0.907,9.305,0
89,35.226,-97.485,0,33.36,5,319,-3.079,-0.882,9.12,0
90,35.226,-97.485,359.9,33.51,4,319,-2.827,-0.581,9.102,0
91,35.227,-97.485,359.8,33.3,4,320,-2.936,-0.743,9.003,0
92,35.227,-97.485,359.6,33.3,4,320,-3.05,-0.566,9.176,1
93,35.227,-97.485,359.7,33.42,3,321,-3.137,-0.509,8.93,1
94,35.228,-97.485,359.9,33.491,3,322,-2.899,-0.731,8.764,1
95,35.228,-97.485,359.7,33.531,3,322,-2.887,-0.72,8.842,1
96,35.228,-97.485,359.5,33.56,4,322,-3.114,-0.525,9.129,1
97,35.228,-97.485,0,33.66,3,321,-2.995,-0.6,9.354,1
98,35.229,-97.485,359.9,33.68,4,321,-2.954,-0.688,9.035,1
99,35.229,-97.485,359.7,33.651,3,320,-3.036,-0.622,9.15,1
100,35.229,-97.485,0,33.72,3,320,-3.011,-0.601,8.924,1
101,35.23,-97.485,359.9,33.68,3,321,-3.105,-0.584,9.051,1
102,35.23,-97.485,0.1,33.7,3,320,-2.931,-0.664,8.897,1
103,35.23,-97.485,0.2,33.69,3,320,-3.002,-0.702,9.104,1
104,35.231,-97.485,0,33.68,4,320,-2.92,-0.689,8.906,1
105,35.231,-97.485,359.8,33.65,4,321,-3.021,-0.53,8.937,1
106,35.231,-97.485,359.9,33.67,4,322,-2.969,-0.581,8.901,1
107,35.231,-97.485,359.9,33.75,3,320,-2.995,-0.463,9.179,1
108,35.232,-97.485,359.9,33.76,4,319,-2.97,-0.594,9.151,1
109,35.232,-97.485,359.9,33.73,9,320,-3.019,-0.479,8.867,1
110,35.232,-97.485,0,33.72,9,320,-3.013,-0.559,8.879,1
111,35.233,-97.485,0.1,33.73,9,320,-3.037,-0.683,8.976,1
112,35.233,-97.485,359.5,33.51,9,320,-2.891,-0.718,9.24,1
113,35.233,-97.485,358.9,33.77,10,320,-2.892,-0.699,9.184,1
115,35.234,-97.485,359.7,33.72,10,319,-3.045,-0.627,8.693,1
115,35.234,-97.485,359.7,33.72,10,319,-3.045,-0.627,8.693,1
116,35.234,-97.485,359.8,33.7,10,319,-3.082,-0.532,8.742,1
117,35.234,-97.485,0,33.76,10,319,-2.974,-0.788,9.192,1
118,35.235,-97.485,359.9,33.69,9,319,-2.95,-0.663,8.976,1
119,35.235,-97.485,359.9,33.69,9,318,-2.896,-0.631,8.913,1
120,35.235,-97.485,0,33.72,9,317,-2.911,-0.532,9.187,1
121,35.235,-97.485,359.8,33.72,9,317,-2.97,-0.553,9.042,1
122,35.236,-97.485,359.8,33.69,9,318,-3.081,-0.386,9.018,1
123,35.236,-97.485,359.9,33.75,9,318,-2.872,-0.804,9.219,1
124,35.236,-97.485,0.3,33.81,10,320,-2.896,-0.638,8.673,1
125,35.237,-97.485,359.9,33.73,9,319,-3.04,-0.668,9.33,1
126,35.237,-97.485,0.1,33.71,9,319,-2.848,-0.749,9.203,1
127,35.238,-97.485,359.8,33.73,9,321,-2.854,-0.84,9.345,1
128,35.238,-97.485,359.6,33.74,9,322,-2.927,-0.597,9.124,1
129,35.238,-97.485,359.9,33.77,9,322,-2.937,-0.537,8.897,1
130,35.238,-97.485,359.9,33.76,9,322,-2.952,-0.613,9.257,1
131,35.239,-97.485,359.7,33.77,9,324,-3.01,-0.618,9.057,1
132,35.239,-97.485,359.9,33.82,9,322,-2.895,-0.66,9.321,1
133,35.239,-97.485,359.9,33.79,9,322,-2.974,-0.486,8.911,1
134,35.24,-97.485,0,33.76,9,322,-2.941,-0.74,9.333,1
135,35.24,-97.485,0,33.71,9,321,-2.929,-0.45,9.063,1
136,35.24,-97.485,359.9,33.71,9,321,-3.02,-0.704,9.239,1
137,35.241,-97.485,359.9,33.72,9,320,-2.841,-0.595,9.168,1
138,35.241,-97.485,359.9,33.66,9,320,-2.804,-0.574,9.134,1
139,35.241,-97.485,359.8,33.48,9,319,-2.691,-0.54,9.096,1
140,35.242,-97.485,359.8,33.24,9,318,-2.665,-0.337,9.015,1
141,35.242,-97.485,359.8,32.88,9,318,-2.748,-0.201,9.161,1
142,35.242,-97.485,0,32.57,9,316,-2.741,-0.367,9.337,1
143,35.242,-97.485,0.1,32.18,9,316,-2.723,-0.343,8.958,1
144,35.243,-97.485,0.1,31.81,9,316,-2.586,-0.491,9.429,1
145,35.243,-97.485,0,31.45,9,316,-2.489,-0.521,9.492,1
146,35.243,-97.485,359.7,31.12,9,318,-2.789,-0.508,9.259,1
147,35.244,-97.485,359.7,30.97,9,318,-2.799,-0.552,8.824,1
148,35.244,-97.485,359.9,30.88,9,316,-2.8,-0.582,9.255,1
149,35.244,-97.485,359.7,30.76,9,316,-2.939,-0.6,8.948,1
150,35.244,-97.485,359.9,30.72,9,316,-3.09,-0.665,9.303,1
151,35.245,-97.485,0,30.87,9,318,-3.187,-1.007,9.228,1
152,35.245,-97.485,0,31.19,9,318,-3.186,-0.929,8.976,1
153,35.245,-97.485,0.1,31.6,9,318,-3.272,-0.952,9.058,1
154,35.245,-97.485,0,32.06,9,317,-3.15,-0.965,8.878,1
155,35.246,-97.485,359.8,32.35,9,318,-2.94,-0.843,8.987,1
156,35.246,-97.485,359.7,32.58,9,318,-3.049,-0.715,8.852,1
157,35.246,-97.485,359.7,32.76,9,318,-3.211,-0.779,9.224,1
158,35.247,-97.485,359.9,32.93,9,318,-3.113,-0.742,9.246,1
159,35.247,-97.485,0,33.12,9,319,-2.836,-0.794,9.034,1
160,35.247,-97.485,359.9,33.181,9,320,-2.949,-0.712,9.027,1
161,35.248,-97.485,0,33.24,9,320,-3.004,-0.753,9.087,1
162,35.248,-97.485,0,33.33,9,319,-2.931,-0.602,9.055,1
163,35.248,-97.485,0.5,33.682,9,319,-2.918,-0.737,9.056,1
164,35.248,-97.485,0.4,33.361,9,319,-2.881,-0.859,9.2,1
165,35.249,-97.485,359.9,33.33,9,320,-2.997,-0.752,9.1,1
166,35.249,-97.485,359.7,33.37,9,319,-3.076,-0.691,8.961,1
167,35.249,-97.485,359.7,33.37,9,319,-3.021,-0.651,8.745,1
168,35.25,-97.485,359.7,33.38,9,319,-2.998,-0.586,9.098,1
169,35.25,-97.486,359.8,33.38,9,320,-2.884,-0.67,8.779,1
170,35.25,-97.485,0,33.43,9,318,-2.946,-0.656,8.863,1
171,35.251,-97.485,359.9,33.41,9,315,-2.91,-0.609,9.249,1
172,35.251,-97.485,359.9,33.37,9,316,-3.024,-0.627,8.899,1
173,35.251,-97.485,0,33.34,9,315,-2.996,-0.685,9.147,1
175,35.251,-97.485,0.2,33.34,9,315,-2.942,-0.703,9.31,1
175,35.251,-97.485,0.2,33.34,9,315,-2.942,-0.703,9.31,1
176,35.252,-97.485,0.1,33.34,9,315,-2.757,-0.788,9.211,1
177,35.252,-97.485,0,33.31,9,316,-2.902,-0.747,9.058,1
178,35.252,-97.485,359.8,33.29,9,316,-2.966,-0.701,9.212,1
179,35.253,-97.486,359.6,33.26,9,318,-2.983,-0.659,8.978,1
180,35.253,-97.486,359.9,33.26,9,319,-3.143,-0.542,9.225,1
181,35.253,-97.486,359.9,33.23,9,319,-2.989,-0.689,8.815,1
182,35.254,-97.485,0.1,33.29,9,315,-2.996,-0.59,8.673,1
183,35.254,-97.485,0.1,33.25,9,315,-3.014,-0.853,8.829,1
184,35.254,-97.485,0.1,33.31,9,313,-3.027,-0.882,9.097,1
185,35.255,-97.486,359.9,33.45,9,312,-3.232,-0.752,8.904,1
186,35.255,-97.486,0,33.66,9,311,-3.299,-0.971,8.766,1
187,35.255,-97.485,0.4,33.74,10,311,-3.306,-1.112,8.592,1
188,35.255,-97.485,0.4,34.07,10,313,-3.272,-0.858,8.908,1
189,35.256,-97.485,1,34.89,11,314,-3.166,-0.831,9.041,1
190,35.256,-97.486,359,35.18,11,313,-3.051,-0.799,8.73,1
191,35.257,-97.486,358.1,35.63,11,314,-2.921,-0.718,8.981,1
192,35.257,-97.485,0.6,35.5,11,315,-3.081,-0.708,8.724,1
193,35.257,-97.485,0,35.89,10,312,-3.023,-0.661,9.064,1
194,35.258,-97.485,0,35.89,10,312,-2.907,-0.522,9.194,1
195,35.258,-97.485,359.9,35.9,10,314,-3.048,-0.755,9.052,1
196,35.258,-97.485,359.9,35.9,10,315,-2.942,-0.598,9.057,1
197,35.259,-97.485,0,35.89,9,314,-2.832,-0.625,8.951,1
198,35.259,-97.485,0,35.89,9,315,-2.874,-0.766,9.053,1
199,35.259,-97.485,359.9,35.9,9,314,-2.775,-0.639,8.975,1
200,35.26,-97.485,359.8,35.81,9,316,-2.837,-0.638,9.074,1
201,35.26,-97.485,359.8,35.78,9,316,-2.941,-0.795,9.214,1
202,35.26,-97.485,359.9,35.74,9,315,-2.898,-0.671,9.361,1
203,35.261,-97.485,359.8,35.65,9,316,-3.023,-0.632,9.001,1
204,35.261,-97.485,359.9,35.63,9,316,-2.872,-0.535,9.101,1
205,35.261,-97.485,0,35.6,9,316,-2.962,-0.671,8.771,1
206,35.262,-97.485,0,35.59,9,317,-2.868,-0.555,8.999,1
207,35.262,-97.485,359.7,35.58,9,319,-3.01,-0.724,9.133,1
208,35.262,-97.485,359.4,35.52,9,319,-2.888,-0.467,8.998,1
209,35.263,-97.486,358.3,36.47,10,318,-2.943,-0.873,9.024,1
210,35.263,-97.486,359,35.62,10,319,-2.794,-0.556,9.026,1
211,35.263,-97.486,358.8,35.91,10,318,-3.001,-0.734,8.997,1
212,35.263,-97.485,0,35.53,10,318,-2.871,-0.48,9.056,1
213,35.264,-97.485,359.9,35.52,10,319,-2.934,-0.755,9.121,1
214,35.264,-97.485,359.8,35.48,9,319,-2.808,-0.542,9.121,1
215,35.264,-97.486,359.7,35.48,9,319,-2.884,-0.615,8.742,1
216,35.265,-97.486,359.6,35.45,10,319,-2.844,-0.527,8.869,1
217,35.265,-97.486,359.1,35.49,10,319,-2.904,-0.605,8.938,1
218,35.265,-97.486,0,35.39,10,319,-2.86,-0.736,9.108,1
219,35.266,-97.485,359.9,35.38,10,318,-2.856,-0.563,9.108,1
220,35.266,-97.485,359.8,35.34,9,320,-2.904,-0.74,8.982,1
221,35.266,-97.486,359.8,35.33,9,322,-2.956,-0.628,8.902,1
222,35.267,-97.486,0,35.4,9,321,-2.889,-0.833,9.226,1
223,35.267,-97.486,0,35.341,9,323,-2.889,-0.835,9.071,1
224,35.267,-97.486,359.8,35.44,9,324,-2.74,-0.715,8.995,1
225,35.268,-97.486,359.9,35.43,9,325,-2.888,-0.825,8.719,1
226,35.268,-97.486,359.8,35.47,9,324,-2.758,-0.577,8.841,1
227,35.268,-97.486,0.1,35.47,10,324,-2.986,-0.867,9.201,1
228,35.269,-97.486,0.1,35.58,10,323,-2.943,-0.704,9.412,1
229,35.269,-97.485,359.9,35.55,10,320,-3.043,-0.717,9.286,1
230,35.269,-97.485,359.7,35.5,10,320,-2.909,-0.72,9.193,1
231,35.27,-97.485,0.1,35.06,10,321,-2.912,-0.579,9.229,1
232,35.27,-97.486,358.2,35.79,11,321,-2.938,-0.499,8.914,1
233,35.27,-97.486,359.3,35.591,10,325,-2.871,-0.673,8.967,1
234,35.27,-97.486,359.4,35.7,10,325,-2.689,-0.575,9.033,1
235,35.271,-97.486,359,35.82,10,325,-2.946,-0.782,9.059,1
236,35.271,-97.486,359.6,35.76,10,323,-2.756,-0.507,9.276,1
237,35.271,-97.486,359.6,35.76,10,323,-3.007,-0.608,9.084,1
239,35.272,-97.486,359.8,35.69,11,323,-2.69,-0.597,8.817,1
239,35.272,-97.486,359.8,35.69,11,323,-2.69,-0.597,8.817,1
240,35.272,-97.486,359,35.52,11,324,-2.878,-0.25,9.265,1
241,35.272,-97.486,359.6,35.48,12,325,-3.067,-0.563,8.974,1
242,35.273,-97.486,0.2,35.72,11,326,-2.788,-0.72,9.064,1
243,35.273,-97.486,0.5,35.87,12,326,-2.699,-0.554,8.987,1
244,35.273,-97.486,359.4,35.99,12,326,-2.893,-0.702,8.96,1
245,35.274,-97.486,358.1,36.44,12,326,-2.805,-0.676,8.942,1
246,35.274,-97.486,359.5,35.48,12,328,-2.887,-0.346,8.858,1
247,35.274,-97.486,359.3,35.86,13,328,-3.003,-0.743,9.083,1
248,35.275,-97.486,359.4,36.09,11,316,-2.763,-0.54,9.287,1
249,35.275,-97.486,359.4,36,12,316,-2.737,-0.925,9.16,1
250,35.275,-97.486,359.6,35.77,13,316,-2.864,-0.724,9.418,1
251,35.276,-97.486,0.1,35.76,12,315,-2.946,-0.303,9.194,1
252,35.276,-97.486,0.8,35.76,11,315,-2.921,-0.695,9.527,1
253,35.277,-97.486,359.5,35.68,11,313,-3.341,-0.035,9.203,0
254,35.277,-97.486,2.1,35.47,10,313,-3.449,-0.262,9.232,0
255,35.277,-97.486,2.7,35.51,10,314,-3.576,0.195,9.013,0
256,35.278,-97.485,7.1,35.28,10,313,-4.249,0.951,9.208,0
257,35.278,-97.485,11,34.9,10,312,-4.426,0.948,9.027,0
258,35.278,-97.485,16,34.601,10,314,-3.732,0.306,8.955,0
259,35.278,-97.485,18.5,34.58,9,313,-2.805,-0.746,8.904,0
260,35.279,-97.485,18.8,34.55,9,313,-2.743,-0.757,8.914,0
261,35.279,-97.485,18.9,34.5,9,314,-2.67,-0.969,8.99,0
262,35.279,-97.485,18.7,34.481,9,316,-2.813,-1.155,9.173,0
263,35.28,-97.485,18.2,34.78,9,317,-2.999,-0.905,8.784,0
264,35.28,-97.484,18.1,34.92,9,317,-2.375,-1.765,9.077,0
265,35.28,-97.484,15.3,35.07,9,318,-1.745,-2.411,9.082,1
266,35.281,-97.484,11.8,35.351,9,319,-1.884,-2.066,9.155,1
267,35.281,-97.484,9,35.5,9,319,-1.951,-2.216,9.299,1
268,35.281,-97.484,5.8,35.72,9,319,-1.919,-1.951,9.441,1
269,35.282,-97.484,4.5,35.27,10,319,-1.815,-1.981,9.156,1
270,35.282,-97.484,2.9,35.33,10,319,-1.663,-2.077,9.335,1
271,35.282,-97.484,356,35.2,10,320,-1.485,-1.941,9.027,1
272,35.282,-97.484,352.4,34.98,10,320,-1.483,-2.092,8.989,1
273,35.283,-97.484,348.8,34.83,9,320,-1.963,-1.771,9.152,1
274,35.283,-97.485,346.2,35.111,9,322,-2.178,-1.58,9.053,1
275,35.283,-97.485,344,34.961,9,322,-2.906,-0.601,8.927,1
276,35.284,-97.485,343.4,34.68,10,323,-3.173,-0.204,8.886,1
277,35.284,-97.485,343.5,34.5,9,323,-2.695,-0.911,9.056,1
278,35.284,-97.485,343.3,34.34,10,323,-2.813,-0.704,8.783,1
279,35.285,-97.485,343.4,34.15,10,323,-2.833,-0.804,9.106,1
280,35.285,-97.485,343.4,34.15,10,323,-2.786,-0.931,9.154,1
281,35.285,-97.485,343.4,34,10,324,-2.896,-0.771,8.836,1
282,35.285,-97.485,343.3,34.37,9,323,-2.891,-0.807,9.031,1
283,35.286,-97.485,343.2,34.33,9,324,-2.822,-0.833,9.013,1
284,35.286,-97.486,343.1,34.25,10,324,-2.88,-0.844,9.171,1
285,35.286,-97.486,343.3,34.4,9,325,-2.72,-0.968,8.977,1
286,35.287,-97.486,342.9,34.39,9,324,-2.85,-0.868,9.232,1
287,35.287,-97.486,343.1,34.14,9,324,-2.783,-0.703,8.819,1
288,35.287,-97.486,343,34.17,9,324,-2.862,-0.756,9.035,1
289,35.288,-97.486,343.2,34,9,326,-2.882,-0.916,9.162,1
290,35.288,-97.486,343.3,33.84,9,326,-2.873,-0.638,9.093,1
291,35.288,-97.486,343.5,33.79,9,326,-2.881,-0.771,9.199,1
292,35.288,-97.486,343.5,33.72,9,327,-2.729,-0.938,9.102,1
293,35.289,-97.487,343.4,33.91,9,327,-2.549,-1.087,9.212,1
294,35.289,-97.487,343.2,33.6,9,327,-2.655,-0.975,8.965,1
296,35.289,-97.487,343.3,33.62,9,328,-2.77,-1.048,9.062,1
296,35.289,-97.487,343.3,33.62,9,328,-2.77,-1.048,9.062,1
297,35.29,-97.487,343.3,33.46,9,329,-2.705,-0.974,9.03,1
298,35.29,-97.487,343.5,33.37,9,330,-2.706,-1.01,9.147,1
299,35.29,-97.487,343,33.27,9,331,-2.768,-0.957,8.96,1
300,35.29,-97.487,343,33.58,9,331,-2.805,-0.83,8.841,1
301,35.291,-97.487,343,33.35,9,332,-2.845,-0.896,9.153,1
302,35.291,-97.487,343.2,33.19,9,332,-2.542,-0.859,8.7,1
303,35.291,-97.487,344.9,33.62,9,333,-2.685,-0.887,9.078,1
304,35.292,-97.488,343.5,33.64,9,334,-2.795,-0.885,9.254,1
305,35.292,-97.488,343.3,33.33,9,334,-2.807,-0.954,9.255,1
306,35.292,-97.488,343.4,33.27,9,332,-2.484,-1.004,8.691,1
307,35.293,-97.488,343.3,33.46,9,333,-2.524,-1.123,9.207,1
308,35.293,-97.488,343.2,33.45,9,333,-2.646,-1.004,9.259,1
309,35.293,-97.488,342.8,33.59,9,333,-2.631,-0.941,9.147,1
310,35.294,-97.488,342.7,33.88,9,332,-2.733,-0.78,9.041,1
311,35.294,-97.488,343.1,33.57,9,333,-2.61,-1.044,9.181,1
312,35.294,-97.489,343.2,33.67,9,332,-2.572,-0.967,9.064,1
313,35.294,-97.489,343.5,33.64,9,331,-2.53,-0.962,9.027,1
314,35.295,-97.489,343.6,33.73,9,331,-2.657,-0.978,9.014,1
315,35.295,-97.489,344,33.68,9,330,-2.505,-0.954,9.148,1
316,35.295,-97.489,343.9,33.38,9,329,-2.595,-0.849,9.071,1
317,35.296,-97.489,343.7,33.68,9,328,-2.671,-0.929,9.271,1
318,35.296,-97.489,343.6,33.75,9,329,-2.739,-0.9,9.155,1
319,35.296,-97.489,343.5,33.75,9,326,-3.004,-0.707,9.271,1
320,35.296,-97.489,344.3,33.87,9,326,-3.153,-0.391,9.205,1
321,35.297,-97.49,345.8,33.75,9,326,-3.061,-0.386,9.382,1
322,35.297,-97.49,347.3,33.52,9,326,-3.037,-0.512,9.223,1
323,35.297,-97.49,349.5,33.151,9,326,-3.014,-0.772,9.462,0
324,35.298,-97.49,349.7,32.95,9,326,-3.027,-0.574,9.367,0
325,35.298,-97.49,350.5,33.14,9,326,-3.149,-0.577,9.285,0
326,35.298,-97.49,351.6,33.07,9,326,-3.16,-0.684,9.235,0
327,35.299,-97.49,352.9,32.85,3,326,-3.279,-0.862,8.952,0
328,35.299,-97.49,355,32.602,3,325,-3.101,-1.032,9.092,0
329,35.299,-97.49,355.9,32.682,3,324,-3.191,-0.762,9.136,0
330,35.299,-97.49,357,32.762,3,325,-3.225,-0.715,8.811,0
331,35.3,-97.49,358.1,32.803,3,327,-3.104,-0.798,8.749,1
332,35.3,-97.49,359.2,32.881,3,328,-3.04,-0.938,9.055,1
333,35.3,-97.49,359.8,33.05,3,326,-2.958,-1.014,9.029,1
334,35.301,-97.49,0.2,33.1,3,326,-2.833,-1.31,9.067,1
335,35.301,-97.49,359.7,33.25,4,325,-2.774,-1.154,8.817,1
336,35.301,-97.49,0,33.23,4,327,-2.764,-1.047,8.653,1
337,35.302,-97.49,359.2,33.31,4,327,-2.694,-1.13,8.92,1
338,35.302,-97.49,0.1,33.42,4,326,-2.581,-1.248,8.8,1
339,35.302,-97.49,359.8,33.51,4,327,-2.534,-1.098,8.874,1
340,35.302,-97.49,359.7,33.52,4,328,-2.743,-1.021,9.026,1
341,35.303,-97.49,359.8,33.6,4,327,-2.628,-0.804,9.09,1
342,35.303,-97.49,359.8,33.451,4,330,-2.557,-0.616,8.931,1
343,35.303,-97.49,0.2,33.21,4,331,-2.762,-0.43,8.991,1
344,35.304,-97.49,0.4,32.97,5,330,-2.614,-0.708,9.467,1
345,35.304,-97.49,1.8,32.88,6,328,-2.288,-1.031,9.188,1
346,35.304,-97.49,1.4,32.4,6,329,-2.102,-1.166,9.141,1
347,35.305,-97.49,0.7,32.47,6,328,-2.212,-0.98,9.079,1
348,35.305,-97.49,359.5,32.25,7,327,-2.451,-0.814,9.229,1
349,35.305,-97.49,0.1,31.75,7,328,-2.431,-0.845,9.125,1
350,35.305,-97.49,0.2,31.12,6,328,-2.271,-1.025,9.253,1
351,35.306,-97.49,0,31.32,5,324,-2.286,-1.231,9.121,1
352,35.306,-97.49,0,30.81,6,325,-2.525,-1.326,9.282,1
353,35.306,-97.49,358.5,30.64,5,326,-2.938,-1.044,9.068,1
355,35.307,-97.49,358.5,30.77,5,326,-3.017,-0.865,9.1,1
355,35.307,-97.49,358.5,30.77,5,326,-3.017,-0.865,9.1,1
356,35.307,-97.49,358.4,31.12,5,326,-2.991,-0.863,9.121,1
357,35.307,-97.49,358.8,31.4,5,325,-2.798,-1.108,8.861,1
358,35.307,-97.49,359.9,31.42,4,327,-2.743,-1.077,8.808,1
359,35.308,-97.49,359.7,31.54,5,327,-2.796,-1.195,9.012,1
360,35.308,-97.49,358.3,32.03,6,328,-2.643,-0.941,8.978,1
361,35.308,-97.49,358.7,32.25,7,329,-2.819,-0.995,9.019,1
362,35.309,-97.49,358.7,31.98,8,329,-2.744,-1.138,9.027,1
363,35.309,-97.49,358.6,31.9,8,329,-2.922,-1.221,9.212,1
364,35.309,-97.49,358.9,31.981,8,330,-2.923,-1.179,9.157,1
365,35.309,-97.49,1.5,32.13,7,327,-3.047,-1.11,8.947,1
366,35.31,-97.49,0.8,32.431,8,330,-3.014,-1.167,9.09,1
367,35.31,-97.49,1.7,32.78,9,330,-2.612,-0.906,9.349,1
368,35.311,-97.49,0.2,32.68,7,330,-2.485,-0.93,9.257,1
369,35.311,-97.49,0.2,32.33,7,331,-2.778,-1.141,9.043,1
370,35.311,-97.49,359.4,32.66,8,330,-2.707,-1.115,9.083,1
371,35.311,-97.49,358.7,32.86,8,332,-2.719,-1.113,8.83,1
372,35.312,-97.49,359.4,33.01,7,330,-2.825,-1.037,8.931,1
373,35.312,-97.49,359.6,33.26,6,327,-2.895,-1.114,8.977,1
374,35.312,-97.49,359.9,33.29,6,326,-2.734,-1.24,9.006,1
375,35.313,-97.49,0,33.27,6,327,-2.712,-1.252,9.352,1
376,35.313,-97.49,359.8,33.31,6,327,-2.666,-1.18,8.786,1
377,35.313,-97.49,359.7,33.3,6,328,-2.84,-0.986,9.046,1
378,35.314,-97.49,359.2,33.57,7,328,-2.715,-1.052,9.187,1
379,35.314,-97.49,0.4,33.58,7,328,-2.72,-1.004,8.882,1
380,35.314,-97.49,0.8,33.63,8,330,-2.737,-1.158,8.949,1
381,35.314,-97.49,0.2,33.5,6,331,-2.637,-1.099,8.994,1
382,35.315,-97.49,0,33.61,6,330,-2.737,-1.092,9.081,1
383,35.315,-97.49,0.4,33.66,7,328,-2.742,-1.204,9.431,1
384,35.315,-97.49,0,33.421,6,330,-2.615,-1.194,8.824,1
385,35.316,-97.49,359.8,33.35,6,331,-2.711,-1.233,8.907,1
386,35.316,-97.49,0.4,33.07,7,333,-2.73,-1.175,8.924,1
387,35.316,-97.49,0,33.41,6,335,-2.675,-1.21,9.304,1
388,35.317,-97.49,0.1,33.371,6,336,-2.678,-1.225,9.026,1
389,35.317,-97.49,0,33.38,6,338,-2.599,-1.141,9.032,1
390,35.317,-97.49,0.1,33.24,5,338,-2.668,-1.201,9.065,1
391,35.317,-97.49,0,33.36,10,338,-2.748,-1.076,9.028,1
392,35.318,-97.49,359.9,33.39,10,338,-2.829,-1.116,9.128,1
393,35.318,-97.49,0,33.44,11,338,-2.824,-1.195,9.271,1
394,35.318,-97.49,359.9,33.5,11,341,-2.711,-1.125,9.037,1
395,35.319,-97.49,359.9,33.5,11,338,-2.612,-1.098,8.818,1
396,35.319,-97.49,0.1,33.4,10,338,-2.689,-1.085,9.271,1
397,35.319,-97.49,359.8,33.47,10,338,-2.696,-0.966,8.971,1
398,35.32,-97.49,359.6,33.44,10,339,-2.617,-0.788,8.912,1
399,35.32,-97.49,359.4,33.39,10,338,-2.594,-0.907,8.944,1
400,35.32,-97.49,359.4,33.33,11,337,-2.571,-1.051,9.18,1
401,35.32,-97.49,358.9,32.84,10,338,-2.572,-0.866,9.153,1
402,35.321,-97.49,358.6,32.9,11,337,-2.622,-0.808,9.257,1
403,35.321,-97.49,0.3,32.72,11,336,-2.56,-0.974,9.438,1
404,35.321,-97.49,1.3,32.13,11,337,-2.735,-0.805,9.217,1
405,35.322,-97.49,1.4,31.96,12,337,-2.589,-0.998,9.062,1
406,35.322,-97.49,0.9,32.02,12,337,-2.519,-1.028,9.277,1
407,35.322,-97.49,1.1,31.86,11,337,-2.633,-1.07,9.105,1
408,35.322,-97.49,0,32.04,11,336,-2.698,-1.04,8.85,1
409,35.323,-97.49,359.9,32.02,11,335,-2.684,-1.111,9.176,1
410,35.323,-97.49,359,32.33,11,334,-2.623,-1.152,9.282,1
411,35.323,-97.49,0.1,31.94,11,336,-2.719,-0.984,9.18,1
412,35.324,-97.49,0.4,32.02,12,335,-2.7,-0.929,8.897,1
413,35.324,-97.49,357.3,33.12,12,336,-2.732,-0.946,9.048,1
415,35.324,-97.49,359.2,32.17,12,339,-2.592,-1.155,9.074,1
415,35.324,-97.49,359.2,32.17,12,339,-2.592,-1.155,9.074,1
416,35.325,-97.49,359,32.24,12,340,-2.615,-1.241,9.309,1
417,35.325,-97.49,0.4,31.61,11,340,-2.742,-1.167,9.01,1
418,35.325,-97.49,357.3,32.26,12,339,-2.89,-1.143,8.972,1
419,35.325,-97.49,358.7,32.06,12,338,-2.97,-1.275,8.815,1
420,35.326,-97.49,1.1,31.88,12,337,-2.841,-1.323,9.052,1
421,35.326,-97.49,0.9,32.22,12,338,-2.833,-1.268,9.182,1
422,35.326,-97.49,1.2,32.15,12,336,-2.84,-1.07,9.003,1
423,35.327,-97.49,1.1,32.18,11,335,-2.862,-1.27,9.345,1
424,35.327,-97.49,359,33.12,11,336,-2.65,-1.049,8.854,1
425,35.327,-97.49,0.3,32.76,11,336,-2.814,-1.127,8.884,1
426,35.327,-97.49,0.4,32.96,11,335,-2.965,-1.09,8.77,1
427,35.328,-97.49,358.8,33.16,11,336,-2.803,-0.985,9.029,1
428,35.328,-97.49,358.9,33.53,11,337,-2.737,-1.07,8.884,1
429,35.329,-97.49,0.3,33.11,12,337,-2.579,-1.293,8.999,1
430,35.329,-97.49,359.9,33.05,12,336,-2.756,-1.137,9.105,1
431,35.329,-97.49,359.8,33.56,12,336,-2.676,-1.226,9.19,1
432,35.329,-97.49,3.2,32.51,13,336,-2.609,-1.105,8.9,1
433,35.33,-97.49,2.3,32.88,12,335,-2.647,-0.939,8.956,1
434,35.33,-97.49,1.1,33.41,12,333,-2.61,-1.056,8.633,1
435,35.33,-97.49,0.6,33.63,12,334,-2.805,-0.941,8.739,1
436,35.331,-97.49,359,34.17,12,332,-2.816,-1.089,9.027,1
437,35.331,-97.49,358.7,34.54,12,332,-2.774,-0.909,8.636,1
438,35.331,-97.49,1.2,33.65,12,330,-2.835,-1.112,9.179,1
439,35.332,-97.49,1,33.04,12,330,-2.723,-0.954,9.049,1
440,35.332,-97.49,359.6,33.7,12,331,-2.723,-1.098,9.325,1
441,35.332,-97.49,359.7,33.63,12,332,-2.634,-1.116,9.331,1
442,35.333,-97.49,358.9,33.68,12,331,-2.513,-1.246,9.135,1
443,35.333,-97.49,359.8,33.32,12,330,-2.442,-1.173,9.077,1
444,35.333,-97.49,358,33.43,11,331,-2.347,-0.994,9.018,1
445,35.333,-97.49,357.2,33.23,11,331,-2.431,-1.073,8.98,1
446,35.334,-97.49,356.3,33.08,11,333,-2.28,-1.174,9.086,1
447,35.334,-97.49,354.1,32.964,10,334,-2.08,-1.419,9.152,1
448,35.334,-97.49,353.1,32.661,10,335,-2.131,-1.47,9.018,1
449,35.335,-97.49,351.4,32.38,10,336,-2.284,-1.451,9.134,1
450,35.335,-97.49,349.3,32.15,11,336,-2.264,-1.313,9.076,1
451,35.335,-97.49,347.1,32.27,10,336,-2.281,-1.389,9.436,1
452,35.335,-97.49,345.6,32.12,10,337,-2.375,-1.2,8.893,1
453,35.336,-97.491,345,31.92,10,339,-2.552,-1.032,9.033,1
454,35.336,-97.491,344.1,31.73,9,340,-2.516,-1.132,8.94,1
455,35.336,-97.491,342.5,31.681,4,341,-2.713,-1.028,9.038,1
456,35.337,-97.491,341.9,31.533,3,343,-2.933,-1.029,9.24,1
457,35.337,-97.491,341.9,31.324,3,344,-2.878,-1.012,9.191,1
458,35.337,-97.491,341.9,31.135,3,346,-2.836,-1.019,9.117,1
459,35.337,-97.491,342,30.935,3,348,-2.718,-1.249,9.018,1
460,35.338,-97.491,342,30.775,3,349,-2.555,-1.234,8.965,1
461,35.338,-97.491,341.9,30.703,3,349,-2.534,-1.23,8.796,1
462,35.338,-97.491,341.8,30.653,3,350,-2.93,-0.872,8.675,1
463,35.338,-97.492,341.5,30.651,3,350,-2.885,-1.125,9.468,0
464,35.339,-97.492,341.2,30.621,4,352,-2.859,-1.245,8.982,0
465,35.339,-97.492,341.1,30.59,4,353,-2.636,-1.16,8.792,0
466,35.339,-97.492,341.3,30.64,5,354,-2.686,-1.177,8.745,0
467,35.339,-97.492,341.4,30.71,5,354,-2.744,-1.204,8.542,0
468,35.34,-97.492,341.4,30.83,6,355,-2.714,-1.479,9.016,0
469,35.34,-97.492,341.3,31.01,7,357,-2.809,-1.475,9,0
470,35.34,-97.492,341.2,31.28,7,357,-2.855,-1.416,9.004,0
471,35.34,-97.492,341.1,31.62,8,357,-2.855,-1.426,9.123,1
472,35.341,-97.493,341.1,31.9,8,358,-2.953,-1.244,8.849,1
473,35.341,-97.493,341.3,32.2,8,358,-2.797,-1.386,8.997,1
474,35.341,-97.493,341.5,32.75,5,357,-2.583,-1.413,8.995,1
475,35.342,-97.493,341.3,32.91,5,358,-2.717,-1.28,9.037,1
476,35.342,-97.493,341.3,32.96,6,358,-2.633,-1.36,9.197,1
477,35.342,-97.493,341.2,33.16,6,358,-2.924,-1.141,9.591,0
478,35.342,-97.493,341.2,33.16,5,359,-2.891,-0.973,9.226,0
479,35.343,-97.493,341.6,33.41,4,360,-2.714,-1.087,9.047,0
480,35.343,-97.493,341.6,33.48,4,359,-3.101,-1.282,9.698,0
482,35.343,-97.494,341.6,33.62,3,361,-2.628,-1.056,9.123,0
482,35.343,-97.494,341.6,33.62,3,361,-2.628,-1.056,9.123,0
483,35.344,-97.494,341.8,33.51,3,361,-2.996,-0.185,8.705,0
484,35.344,-97.494,342.5,33.4,4,362,-3.097,-0.46,9.021,0
485,35.344,-97.494,343.7,33.47,5,360,-2.909,-0.669,9.141,0
486,35.344,-97.494,344.1,33.68,5,359,-2.59,-0.67,9.056,0
487,35.345,-97.494,345.5,34.15,6,356,-2.945,-0.43,9.392,0
488,35.345,-97.494,346.9,34.04,7,356,-2.95,-0.43,9.388,0
489,35.345,-97.494,348.3,34.26,7,354,-3.061,-0.378,9.408,0
490,35.346,-97.494,350.2,32.55,8,353,-2.785,-0.383,9.218,0
491,35.346,-97.494,350.9,32.78,7,353,-2.962,-0.447,9.218,0
492,35.347,-97.494,352.9,32.58,6,353,-2.743,-0.585,8.887,0
493,35.347,-97.495,353.8,32.24,5,354,-2.748,-0.603,9.002,0
494,35.347,-97.495,354.6,31.83,5,354,-2.59,-0.418,9.083,0
495,35.347,-97.495,354.9,31.58,5,355,-2.723,-0.561,9.042,0
496,35.348,-97.495,355.4,31.43,5,355,-2.865,-0.711,9.115,1
497,35.348,-97.495,356.2,31.41,4,355,-2.905,-0.704,9.133,1
498,35.348,-97.495,356.2,31.61,5,354,-2.873,-0.843,9.104,1
499,35.349,-97.495,356.4,31.88,6,355,-2.934,-0.895,9.006,1
500,35.349,-97.495,356.6,31.81,7,352,-2.829,-1.091,8.861,1
501,35.349,-97.495,0.3,30.761,5,351,-2.979,-1.307,8.992,1
502,35.349,-97.495,0.4,30.73,5,350,-2.88,-1.382,9.03,1
503,35.35,-97.495,359.9,30.99,6,349,-2.799,-1.511,9.246,0
504,35.35,-97.495,358.9,31.45,7,349,-2.612,-1.282,9.178,0
505,35.35,-97.495,357.7,31.96,7,348,-2.401,-1.136,8.852,0
506,35.351,-97.495,357.3,31.74,7,349,-2.194,-0.844,8.915,0
507,35.351,-97.495,357.4,31.62,7,348,-2.219,-0.779,8.839,0
508,35.351,-97.495,358.2,30.78,8,348,-2.28,-0.878,9.092,0
509,35.351,-97.495,0.2,29.61,8,350,-2.322,-1.01,9.244,0
510,35.352,-97.495,358.8,29.611,8,352,-2.295,-0.906,9.528,1
511,35.352,-97.495,358.5,29.4,8,353,-2.276,-1.04,9.4,1
512,35.352,-97.495,0.2,28.65,8,354,-2.266,-1.149,9.236,1
513,35.352,-97.495,0.2,28.29,8,354,-2.486,-1.117,9.385,1
514,35.353,-97.495,0.2,27.93,10,355,-2.62,-1.158,9.417,0
515,35.353,-97.495,1.9,27.19,10,356,-2.806,-1.43,9.053,0
516,35.353,-97.495,3.7,26.451,9,357,-2.949,-1.395,9.178,0
517,35.353,-97.495,2,27.311,9,359,-3.007,-1.534,9.155,0
518,35.354,-97.495,4.9,26.981,10,360,-3.137,-1.418,8.431,0
519,35.354,-97.495,358.4,29.52,9,359,-3.074,-1.695,8.968,0
520,35.354,-97.495,358.7,29.38,9,360,-3.004,-1.765,9.003,0
521,35.354,-97.495,358.9,30.34,10,359,-2.87,-1.499,8.582,1
522,35.355,-97.495,359.8,30.6,12,359,-2.856,-1.316,8.237,1
523,35.355,-97.495,1.7,30.32,13,359,-3.072,-1.266,8.593,1
524,35.355,-97.495,359.8,31.81,11,359,-2.701,-1.284,9.043,1
525,35.356,-97.495,0.6,31.94,12,359,-2.393,-1.012,9.022,1
526,35.356,-97.495,359.6,31.76,13,359,-2.554,-1.121,8.732,1
527,35.356,-97.495,359.4,31.75,14,358,-2.542,-1.309,9.001,1
528,35.356,-97.495,359.1,31.76,12,358,-2.627,-1.38,8.963,1
529,35.357,-97.495,359.5,31.78,12,358,-2.76,-1.275,9.188,1
530,35.357,-97.495,359.1,31.96,13,357,-2.464,-1.306,8.981,1
531,35.357,-97.495,358.9,31.95,14,357,-2.511,-1.204,9.222,1
532,35.358,-97.495,358.7,31.97,15,357,-2.614,-1.25,9.363,0
533,35.358,-97.495,358.7,31.75,15,357,-2.408,-1.225,9.267,0
534,35.358,-97.495,358.4,31.8,14,359,-2.556,-1.428,9.275,0
535,35.358,-97.495,358.3,32.01,15,358,-2.315,-1.437,9.028,0
536,35.359,-97.495,358.3,31.88,15,359,-2.606,-1.21,8.76,0
537,35.359,-97.495,358.4,31.76,15,359,-2.76,-1.28,9.072,0
538,35.359,-97.495,358.9,31.69,16,359,-2.712,-1.406,8.889,0
539,35.36,-97.495,359.2,31.64,17,358,-2.626,-1.508,8.536,0
540,35.36,-97.495,358.6,32.17,17,357,-2.787,-1.284,8.835,0
541,35.36,-97.495,359.8,31.95,16,357,-2.698,-1.346,9.114,1
542,35.36,-97.495,0.2,32.03,15,356,-2.575,-1.288,9.246,1
544,35.361,-97.495,0,32.31,16,355,-2.525,-1.272,9.267,0
544,35.361,-97.495,0,32.31,16,355,-2.525,-1.272,9.267,0
545,35.361,-97.495,0,32.1,8,357,-2.836,-1.562,9.415,0
546,35.361,-97.495,0.1,32.08,8,359,-2.756,-1.516,9.18,0
547,35.362,-97.495,0.3,32.21,7,359,-2.614,-1.557,9.182,0
548,35.362,-97.495,359.4,32.25,7,359,-2.932,-1.469,9.144,0
549,35.362,-97.495,359.3,32.15,6,361,-2.937,-1.358,8.967,0
550,35.362,-97.495,359.2,32.28,6,361,-2.69,-1.257,8.93,0
551,35.363,-97.495,359.4,32.19,6,361,-2.318,-1.041,8.798,0
552,35.363,-97.495,359.2,32.46,7,362,-2.548,-1.218,9.188,0
553,35.363,-97.495,359,32.47,7,362,-2.722,-1.371,9.218,0
554,35.364,-97.495,359,32.481,9,363,-2.433,-0.975,8.409,0
555,35.364,-97.495,357.2,33.181,11,363,-2.108,-0.64,7.839,0
556,35.364,-97.495,359.7,32.2,10,364,-2.305,-1.243,8.583,0
557,35.365,-97.495,359.4,31.99,10,364,-2.265,-1.423,8.765,0
558,35.365,-97.495,359.3,31.92,10,365,-2.553,-1.394,9.394,0
559,35.365,-97.495,359,32.02,10,365,-2.484,-1.291,9.299,0
560,35.366,-97.495,359.2,32.3,10,364,-2.472,-1.26,9.201,0
561,35.366,-97.495,359.5,32.42,10,364,-2.616,-1.641,9.527,0
562,35.366,-97.495,359.6,32.771,11,364,-2.574,-1.508,9.522,0
563,35.367,-97.495,359.2,32.731,11,363,-2.588,-1.508,9.2,0
564,35.367,-97.495,359.4,32.54,12,363,-2.523,-1.39,9.386,0
565,35.367,-97.495,359,32.78,12,362,-2.59,-1.612,8.822,0
566,35.367,-97.495,358.7,33.1,13,361,-2.419,-1.474,8.772,0
567,35.368,-97.495,358.1,33.39,13,361,-2.798,-1.661,9.15,0
568,35.368,-97.495,358.6,33.32,13,361,-2.641,-1.56,8.942,0
569,35.368,-97.495,358.8,33.1,13,360,-2.69,-1.567,9.682,0
570,35.369,-97.495,358.2,33.46,14,360,-2.258,-1.242,9.34,0
571,35.369,-97.495,358,32.91,13,360,-2.259,-1.127,9.247,0
572,35.369,-97.495,358.1,32.51,13,359,-2.203,-1.03,8.996,0
573,35.37,-97.495,358.1,32.01,12,359,-2.35,-1.21,8.862,0
574,35.37,-97.495,357.6,31.98,12,359,-2.239,-1.122,8.991,0
575,35.37,-97.495,357.9,31.36,12,360,-2.443,-1.261,9.149,0
576,35.37,-97.495,357.9,31.02,11,360,-2.514,-1.142,9.856,0
577,35.371,-97.495,357.8,31.11,12,359,-2.207,-1.211,9.371,0
578,35.371,-97.495,358.3,30.67,13,358,-2.348,-1.102,9.328,0
579,35.371,-97.495,358.3,30.11,12,357,-2.621,-1.265,9.496,0
580,35.371,-97.495,358,29.91,12,358,-2.307,-1.127,9.072,0
581,35.372,-97.495,357.8,29.54,13,358,-2.302,-1.167,9.103,0
582,35.372,-97.495,357.8,29.31,13,357,-2.445,-0.98,8.928,0
583,35.372,-97.495,357.8,29,12,357,-2.646,-1.427,9.182,0
584,35.373,-97.495,358.4,28.79,10,357,-2.716,-1.518,8.882,1
585,35.373,-97.495,359.3,28.68,11,355,-2.714,-1.687,9.193,1
586,35.373,-97.495,359.4,29.09,10,356,-2.589,-1.763,9.013,1
587,35.373,-97.495,359.9,28.91,10,355,-2.686,-1.521,8.74,1
588,35.374,-97.495,359.3,29.32,10,354,-2.709,-1.733,9.193,1
589,35.374,-97.495,0.2,29.63,9,354,-2.731,-1.622,9.005,1
590,35.374,-97.495,0.5,29.92,9,353,-2.785,-1.683,8.944,1
591,35.374,-97.495,359.9,30.18,9,353,-2.715,-1.789,9.129,1
592,35.375,-97.495,0,30.78,9,354,-2.816,-1.494,8.541,1
593,35.375,-97.495,0,31.12,11,354,-2.837,-1.613,8.864,1
594,35.375,-97.495,0.4,31.45,10,353,-2.8,-1.615,8.914,1
595,35.376,-97.495,0,32.1,10,354,-2.793,-1.571,8.917,1
596,35.376,-97.495,0.3,32.56,11,354,-2.741,-1.703,8.684,1
597,35.376,-97.495,359.6,32.781,9,357,-2.834,-1.742,9.056,1
598,35.376,-97.495,359.6,33.041,11,358,-2.82,-1.621,8.774,1
599,35.377,-97.495,359.7,33.24,10,359,-2.691,-1.637,8.782,1
600,35.377,-97.495,359.8,33.74,11,358,-2.338,-1.144,9.433,1
601,35.377,-97.495,359.8,33.84,11,358,-2.185,-1.055,9.031,1
602,35.378,-97.495,359.5,33.43,12,358,-2.328,-0.952,9.245,1
603,35.378,-97.495,359,33.3,13,358,-2.542,-1.286,9.431,0
604,35.378,-97.495,358.9,33.03,13,357,-2.606,-1.379,8.893,0
605,35.379,-97.495,359,33.02,13,357,-2.634,-1.575,8.965,0
606,35.379,-97.495,359.4,32.72,14,356,-2.453,-1.385,9.3,0
607,35.379,-97.495,359.8,32.57,9,358,-2.435,-1.365,9.53,0
608,35.379,-97.495,359.8,32.61,7,361,-2.339,-1.357,8.786,0
610,35.38,-97.495,359.9,32.62,6,362,-2.412,-1.527,9.38,0
610,35.38,-97.495,359.9,32.62,6,362,-2.412,-1.527,9.38,0
611,35.38,-97.495,359.8,32.34,6,362,-2.314,-1.228,8.952,0
612,35.38,-97.495,0,32.77,6,362,-2.327,-1.352,9.199,0
613,35.38,-97.495,359.9,33.04,7,363,-2.445,-1.398,9.367,0
614,35.381,-97.495,359.7,33.11,9,364,-2.495,-1.343,9.259,0
615,35.381,-97.495,359.9,33.13,10,364,-2.192,-1.272,9.533,0
616,35.381,-97.495,359.7,33.08,10,364,-2.39,-1.372,9.085,0
617,35.382,-97.495,359.3,33.24,8,366,-2.542,-1.016,9.008,0
618,35.382,-97.495,359.8,33.05,7,366,-2.476,-1.059,8.932,0
619,35.382,-97.495,0.1,32.93,6,367,-2.496,-1.067,8.819,0
620,35.383,-97.495,0.2,32.93,6,366,-2.337,-1.276,9.041,0
621,35.383,-97.495,0.2,33.02,6,367,-2.319,-1.283,9.121,0
622,35.383,-97.495,0,33.23,6,367,-2.23,-0.991,9.101,0
623,35.384,-97.495,0.2,33.08,5,367,-2.178,-0.976,9.168,1
624,35.384,-97.495,359.9,33.47,5,367,-2.339,-0.968,9.235,1
625,35.384,-97.495,359.7,33.16,5,367,-2.395,-1.179,9.605,0
626,35.385,-97.495,359.2,32.97,5,367,-2.373,-0.743,9.212,0
627,35.385,-97.495,359.9,32.83,5,367,-2.337,-1.222,9.512,0
628,35.385,-97.495,359.9,32.83,4,367,-2.056,-1.211,9.286,0
629,35.386,-97.495,359.6,32.89,4,367,-2.242,-1.284,9.664,0
630,35.386,-97.495,359.5,32.01,4,367,-2.454,-0.952,8.863,0
631,35.386,-97.495,359.6,31.95,4,367,-2.417,-1.181,9.222,0
632,35.386,-97.495,359.6,31.99,4,367,-2.909,-1.723,8.734,0
633,35.387,-97.495,0,32.29,4,367,-2.744,-1.837,8.542,0
634,35.387,-97.495,0.4,32.68,5,366,-2.633,-1.64,9.047,0
635,35.387,-97.495,0,33.07,5,366,-2.795,-1.376,8.801,0
636,35.388,-97.495,0.2,33.43,6,366,-2.384,-1.264,9.106,0
637,35.388,-97.495,359.6,33.37,7,366,-2.548,-1.136,9.047,1
638,35.388,-97.495,359.6,33.39,8,366,-2.645,-1.441,8.872,1
639,35.389,-97.495,359.8,33.59,8,365,-2.718,-1.309,9.004,1
640,35.389,-97.495,0,33.74,9,365,-2.55,-1.088,8.914,1
641,35.389,-97.495,359.7,33.82,10,365,-2.308,-0.984,9.129,1
642,35.389,-97.495,0.3,33.73,6,365,-2.34,-1.054,9.126,1
643,35.39,-97.495,0,33.54,5,365,-2.278,-1.137,9.507,1
644,35.39,-97.495,0,33.33,5,366,-2.33,-1.022,9.06,1
645,35.39,-97.495,0,33.12,5,366,-2.431,-1.022,9.44,1
646,35.391,-97.495,0,32.88,6,365,-2.405,-1.159,9.248,1
647,35.391,-97.495,0.1,32.63,6,365,-2.308,-1.134,8.933,1
648,35.391,-97.495,0.2,32.43,7,365,-2.252,-1.152,8.668,1
649,35.391,-97.495,0,32.25,7,365,-2.614,-1.351,9.545,1
650,35.392,-97.495,358.3,31.97,7,363,-2.881,-1.585,9.749,0
651,35.392,-97.495,358.2,32.14,6,364,-2.916,-1.446,9.212,0
652,35.392,-97.495,358.4,32.25,7,364,-2.881,-1.61,8.476,0
653,35.393,-97.495,359.7,33.22,6,364,-2.938,-1.821,8.888,0
654,35.393,-97.495,359.8,33.77,7,363,-2.898,-1.732,8.667,0
655,35.393,-97.495,359.7,34.26,7,364,-2.769,-1.59,8.837,0
656,35.394,-97.495,359.7,34.74,7,364,-2.852,-1.637,8.653,0
657,35.394,-97.495,359.8,35.23,7,364,-2.785,-1.705,9.111,0
658,35.394,-97.495,359.9,35.66,7,363,-2.557,-1.405,8.712,1
659,35.395,-97.495,359.9,35.8,7,363,-2.213,-1.255,9.247,1
660,35.395,-97.495,359.8,35.47,6,363,-2.103,-0.89,9.016,1
661,35.395,-97.495,359.6,35.04,6,363,-2.213,-0.935,8.968,1
662,35.396,-97.495,359.7,34.55,6,363,-2.324,-1.03,9.154,1
663,35.396,-97.495,359.8,34.12,6,363,-2.161,-1.064,9.054,1
664,35.396,-97.495,359.8,33.69,6,363,-2.216,-1.167,9.199,1
665,35.396,-97.495,359.9,33.3,7,363,-2.165,-0.998,8.826,1
666,35.397,-97.495,0,32.97,8,363,-2.299,-1.078,9.077,1
667,35.397,-97.495,359.9,32.69,6,367,-2.278,-0.975,8.754,1
668,35.397,-97.495,0.1,32.57,6,370,-2.195,-1.013,8.917,1
669,35.398,-97.495,0,32.56,6,370,-2.362,-1.278,9.426,1
670,35.398,-97.495,0.2,32.43,6,370,-2.266,-1.206,9.192,1
671,35.398,-97.495,0.1,32.08,6,369,-2.232,-1.104,9.633,0
672,35.398,-97.495,0.1,32.15,5,369,-2.239,-1.15,9.263,0
674,35.399,-97.495,0,32.18,6,370,-2.374,-1.195,9.335,0
674,35.399,-97.495,0,32.18,6,370,-2.374,-1.195,9.335,0
675,35.399,-97.495,0.8,30.92,4,370,-2.424,-1.086,9.426,0
676,35.399,-97.495,359.7,31.12,3,370,-2.354,-1.409,9.235,0
677,35.4,-97.495,359.7,31.47,4,370,-2.435,-1.374,9.341,0
678,35.4,-97.495,359.5,31.5,3,370,-2.725,-1.334,8.983,0
679,35.4,-97.495,359.5,31.35,4,370,-2.794,-1.45,8.947,0
680,35.4,-97.495,359.5,31.33,4,369,-2.701,-1.506,8.789,0
681,35.401,-97.495,359.7,31.42,4,369,-2.442,-1.664,9.047,0
682,35.401,-97.495,359.6,31.54,4,369,-2.915,-1.295,8.908,0
683,35.401,-97.495,359.5,31.66,4,369,-3.281,-0.934,8.806,0
684,35.402,-97.495,0.7,31.78,4,368,-3.274,-0.958,8.985,0
685,35.402,-97.495,2.7,32.06,3,370,-3.097,-1.229,8.596,0
686,35.402,-97.495,5,32.72,3,369,-2.955,-1.297,9.191,1
687,35.403,-97.495,5.7,32.8,3,370,-2.774,-1.054,9.035,1
688,35.403,-97.495,6.5,32.76,3,371,-2.927,-0.888,8.766,1
689,35.403,-97.495,7.8,33.041,3,372,-3.022,-1.088,9.304,0
690,35.404,-97.495,9.1,33.051,3,373,-2.83,-0.749,9.239,0
691,35.404,-97.495,10.4,32.83,3,372,-2.609,-0.758,9.18,0
692,35.404,-97.495,11.3,32.86,3,371,-2.413,-1.077,9.37,0
693,35.404,-97.495,12.2,32.34,3,371,-2.359,-0.891,9.021,0
694,35.405,-97.494,13.2,31.93,3,371,-2.562,-0.945,9.639,0
695,35.405,-97.494,13.5,31.63,3,371,-2.844,-0.829,9.582,0
696,35.405,-97.494,15.5,31.46,3,371,-2.493,-0.95,9.197,0
697,35.406,-97.494,16.5,30.89,3,371,-2.498,-0.836,8.82,0
698,35.406,-97.494,17.4,30.41,3,371,-2.045,-1.221,8.856,0
699,35.406,-97.494,17.7,30.19,3,371,-2.395,-1.5,9.297,0
700,35.406,-97.494,17.5,30.22,3,372,-2.693,-1.768,9.472,0
701,35.407,-97.494,17.5,30.29,3,372,-2.59,-1.739,9.516,0
702,35.407,-97.494,17.3,30.49,3,372,-2.847,-1.84,9.555,0
703,35.407,-97.494,17.3,30.71,3,372,-2.709,-1.547,8.675,0
704,35.407,-97.493,17.3,31.03,3,371,-2.604,-1.659,8.72,0
705,35.408,-97.493,17.5,31.28,3,372,-2.632,-1.683,9.083,0
706,35.408,-97.493,17.6,31.55,3,371,-2.761,-1.846,9.465,0
707,35.408,-97.493,17.7,31.86,3,370,-2.42,-1.74,8.974,0
708,35.409,-97.493,17.6,32.09,3,371,-3.612,-1.701,9.595,0
709,35.409,-97.493,17.6,32.28,3,371,-2.612,-1.735,9.439,0
710,35.409,-97.493,17.5,32.15,4,371,-2.195,-1.395,9.285,0
711,35.409,-97.493,17.5,31.9,3,371,-2.454,-1.337,9.209,0
712,35.41,-97.493,17.7,31.82,3,370,-2.633,-1.393,9.066,0
713,35.41,-97.492,17.2,31.67,3,370,-2.281,-1.624,9.015,0
714,35.41,-97.492,17.5,32.31,3,369,-2.603,-1.498,8.878,0
715,35.41,-97.492,17.3,32.671,3,368,-2.392,-1.324,8.801,0
716,35.411,-97.492,17.4,32.871,3,368,-2.416,-1.285,8.797,1
717,35.411,-97.492,17.4,33.082,3,367,-2.445,-1.441,9.485,1
718,35.411,-97.492,17.5,33.241,3,366,-2.4,-1.341,9.22,0
719,35.412,-97.492,17.5,33.223,3,365,-2.352,-1.293,9.29,0
720,35.412,-97.492,17.7,33.193,3,364,-2.448,-1.388,9.77,0
721,35.412,-97.492,17.7,33.142,3,364,-2.237,-1.383,9.616,0
722,35.412,-97.492,17.6,33.112,3,363,-2.237,-1.397,9.351,0
723,35.413,-97.491,17.5,33.082,3,362,-2.217,-1.432,9.167,0
724,35.413,-97.491,17.4,33.052,3,361,-2.266,-1.364,9.049,0
725,35.413,-97.491,17.4,33.052,3,360,-2.298,-1.231,9.128,0
726,35.414,-97.491,17.4,33.041,3,361,-2.243,-1.328,9.491,0
727,35.414,-97.491,17.6,32.93,3,360,-2.145,-1.356,8.771,0
728,35.414,-97.491,18.3,32.64,3,360,-2.536,-1.681,9.436,1
729,35.414,-97.491,17.2,32.55,3,360,-2.656,-1.614,8.754,1
730,35.415,-97.491,17.4,33.28,3,360,-2.555,-1.793,9.108,1
731,35.415,-97.491,17.4,33.54,3,360,-2.44,-1.599,8.539,1
732,35.415,-97.49,17.5,33.514,3,361,-2.498,-1.632,8.578,1
733,35.416,-97.49,17.5,33.631,3,361,-2.447,-1.577,8.901,1
734,35.416,-97.49,17.6,33.791,3,362,-2.482,-1.824,8.798,1
735,35.416,-97.49,17.6,33.941,3,362,-2.614,-1.731,8.836,1
736,35.416,-97.49,17.4,34.16,3,362,-2.404,-1.281,8.536,1
737,35.417,-97.49,17.5,34.31,3,362,-2.384,-1.314,8.6,1
738,35.417,-97.49,17.4,34.26,3,362,-2.314,-1.573,8.339,1
740,35.417,-97.49,17.5,34.35,3,362,-2.358,-1.162,8.964,1
740,35.417,-97.49,17.5,34.35,3,362,-2.358,-1.162,8.964,1
741,35.418,-97.49,17.5,34.28,3,362,-2.308,-1.144,9.047,1
742,35.418,-97.489,17.7,34.061,3,362,-2.309,-1.004,9.233,0
743,35.418,-97.489,17.7,33.86,3,362,-2.261,-1.348,8.908,0
744,35.419,-97.489,17.6,33.65,3,362,-2.231,-1.109,9.26,0
745,35.419,-97.489,17.6,33.34,3,362,-2.467,-1.684,9.432,0
746,35.419,-97.489,17.7,33.23,3,362,-2.788,-1.307,9.017,0
747,35.419,-97.489,17.9,33.2,3,362,-3.122,-1.057,9.202,0
748,35.42,-97.489,19.1,32.942,3,363,-3.069,-1.432,8.887,0
749,35.42,-97.488,21.2,33.361,3,364,-2.851,-1.504,9.182,0
750,35.42,-97.488,21.9,33.66,3,364,-2.958,-1.591,8.444,0
751,35.421,-97.488,22.2,33.93,3,365,-2.947,-1.716,9.812,0
752,35.421,-97.488,22.4,34.09,3,365,-2.798,-1.693,9.297,0
753,35.421,-97.488,22.5,34.33,3,365,-2.161,-1.4,8.313,0
754,35.422,-97.488,22.3,34.84,3,365,-2.758,-1.773,8.969,0
755,35.422,-97.488,22.6,35.371,3,364,-2.502,-1.289,9.172,0
756,35.422,-97.487,23,35.121,3,364,-2.263,-0.89,8.601,0
757,35.422,-97.487,23.5,34.98,3,364,-2.387,-1,9.176,0
758,35.423,-97.487,23.9,34.59,3,364,-2.226,-1.355,9.276,0
759,35.423,-97.487,23.2,34.392,3,364,-2.045,-1.378,9.116,0
760,35.423,-97.487,22.1,33.911,3,364,-1.99,-1.227,9.168,0
761,35.424,-97.487,20.6,33.801,3,363,-1.907,-1.487,9.283,1
762,35.424,-97.487,18.9,33.572,3,363,-1.618,-1.83,9.39,1
763,35.424,-97.487,17,33.64,3,363,-2.132,-1.871,8.679,1
764,35.424,-97.486,15.2,34.09,3,363,-2.161,-1.952,9.174,1
765,35.425,-97.486,13.3,34.732,3,362,-1.706,-1.635,9.123,1
766,35.425,-97.486,11.5,34.732,3,361,-1.807,-1.339,9.334,0
767,35.425,-97.486,10,34.552,3,361,-2.532,-2.192,9.683,0
768,35.426,-97.486,8.6,34.581,3,361,-1.734,-1.723,9.568,0
769,35.426,-97.486,7.1,34.32,3,361,-1.595,-1.517,9.3,0
770,35.426,-97.486,5.7,33.86,3,361,-1.541,-1.26,9.17,0
771,35.427,-97.486,3,33.962,3,359,-1.579,-1.224,9.277,0
772,35.427,-97.486,1.4,33.422,3,359,-1.983,-1.306,9.178,0
773,35.427,-97.486,0.4,33.14,3,358,-1.842,-0.574,9.236,0
774,35.428,-97.486,0.1,32.15,3,358,-1.73,-0.787,9.394,0
775,35.428,-97.486,359.9,31.12,3,358,-2.177,-0.997,9.058,1
776,35.428,-97.486,359.7,30.91,3,358,-1.881,-0.701,8.927,1
777,35.428,-97.486,359.7,30.81,3,358,-2.111,-1.004,9.017,1
778,35.429,-97.486,0.1,29.12,3,358,-2.051,-1.47,9.159,1
779,35.429,-97.486,0.1,28.89,3,358,-2.363,-1.531,9.281,1
780,35.429,-97.486,0,28.71,3,358,-2.205,-1.38,9.312,1
781,35.429,-97.486,359.8,28.46,3,358,-2.243,-1.425,9.142,1
782,35.43,-97.486,359.9,28.27,3,358,-1.903,-1.299,8.78,0
783,35.43,-97.486,0,28.02,3,358,-2.042,-1.207,8.723,0
784,35.43,-97.486,0,27.64,3,358,-1.915,-1.133,9.157,0
785,35.43,-97.486,359.9,27.17,3,358,-1.702,-0.595,9.554,0
786,35.431,-97.486,0.1,26.101,3,359,-1.854,-0.861,9.603,0
787,35.431,-97.486,0.1,24.75,3,359,-1.848,-1.284,9.238,0
788,35.431,-97.486,359.8,24.331,3,359,-2.184,-1.154,9.119,0
789,35.431,-97.486,359.7,24.15,3,359,-2.611,-1.696,9.094,1
790,35.432,-97.486,359.9,24.35,3,359,-3.108,-2.23,8.716,1
791,35.432,-97.486,0.2,25.221,3,359,-3.152,-2.438,8.701,1
792,35.432,-97.486,0.5,26.291,3,359,-3.016,-2.455,8.138,1
793,35.432,-97.486,0.1,27.66,3,360,-3.497,-2.48,8.877,1
794,35.432,-97.486,0.1,28.93,3,360,-3.233,-2.41,8.31,1
795,35.433,-97.486,0.1,30.19,3,360,-2.652,-1.96,8.798,1
797,35.433,-97.486,0,30.93,3,360,-2.442,-1.39,8.88,1
797,35.433,-97.486,0,30.93,3,360,-2.442,-1.39,8.88,1
798,35.433,-97.486,359.9,31.21,3,360,-2.116,-1.39,8.975,1
799,35.434,-97.486,0.1,31.07,3,359,-2.271,-1.153,9.102,1
800,35.434,-97.486,359.8,31.12,3,359,-2.267,-1.188,8.856,1
801,35.434,-97.486,0,31.11,3,359,-2.236,-1.377,9.21,1
802,35.434,-97.486,0.1,31.12,3,359,-2.399,-1.442,9.608,0
803,35.435,-97.486,0.1,31.14,3,358,-2.3,-1.392,9.348,0
804,35.435,-97.486,0,30.98,3,358,-2.212,-1.386,9.176,0
805,35.435,-97.486,0.1,30.17,3,358,-2.418,-1.433,9.439,0
806,35.436,-97.486,358.6,30.341,3,358,-2.675,-1.622,9.17,0
807,35.436,-97.486,359.8,30.6,3,358,-2.627,-1.671,8.648,0
808,35.436,-97.486,0.1,30.91,3,358,-2.308,-1.495,9.017,0
809,35.436,-97.486,359.9,31.22,3,358,-2.289,-1.222,9.153,0
810,35.437,-97.486,0.1,30.77,3,358,-2.192,-1.267,9.268,0
811,35.437,-97.486,0,30.47,3,357,-2.279,-1.36,9.614,0
812,35.438,-97.486,359.9,30.29,3,357,-2.413,-1.439,9.293,0
813,35.438,-97.486,0,30.3,3,357,-2.491,-1.393,8.842,0
814,35.438,-97.486,0.1,30.4,3,357,-2.354,-1.786,8.805,0
815,35.438,-97.486,359.9,30.58,3,358,-2.593,-1.772,9.129,0
816,35.439,-97.486,359.9,30.74,3,357,-2.499,-1.659,9.165,0
817,35.439,-97.486,359.9,30.82,3,358,-2.448,-1.626,9.093,0
818,35.439,-97.486,1.5,30.26,3,359,-2.625,-1.247,8.867,0
819,35.439,-97.486,0,29.611,3,358,-2.377,-1.467,9.182,0
820,35.44,-97.486,0,30.66,3,358,-2.193,-1.458,9.042,1
821,35.44,-97.486,359.8,30.42,3,358,-2.294,-1.332,9.644,0
822,35.44,-97.486,359.9,30.1,3,358,-2.268,-1.326,8.705,0
823,35.441,-97.486,359.9,29.9,3,358,-2.54,-1.81,9.613,0
824,35.441,-97.486,359.8,29.89,3,358,-2.546,-1.316,9.353,0
825,35.441,-97.486,0,29.77,3,358,-2.606,-1.341,9.224,0
826,35.441,-97.486,0.3,29.52,3,358,-2.262,-1.354,8.954,0
827,35.442,-97.486,0.3,29.41,3,358,-2.137,-1.392,8.986,0
828,35.442,-97.486,0.2,29.23,3,358,-2.125,-1.491,9.84,0
829,35.442,-97.486,0.1,29.03,3,358,-2.023,-1.544,9.306,0
830,35.442,-97.486,359.9,28.89,3,358,-2.023,-1.286,9.516,0
831,35.443,-97.486,359.9,28.64,3,358,-2.087,-1.168,9.418,0
832,35.443,-97.486,0.1,28.561,3,357,-2.572,-1.439,8.593,0
833,35.443,-97.486,0.2,28.59,3,357,-2.388,-1.468,8.915,0
834,35.443,-97.486,0.3,28.61,3,356,-2.266,-1.461,9.299,0
835,35.444,-97.486,0.2,28.52,3,356,-2.178,-1.239,9.016,0
836,35.444,-97.486,359.6,28.54,3,357,-2.299,-1.076,9.326,0
837,35.444,-97.486,359.5,28.562,3,356,-2.268,-1.226,9.529,0
838,35.444,-97.486,358.8,28.492,3,355,-2.469,-1.355,9.078,0
839,35.445,-97.486,358,28.38,3,355,-2.699,-1.672,9.678,0
840,35.445,-97.486,358.4,28.3,4,354,-2.447,-1.697,9.251,0
841,35.445,-97.486,356.5,28.49,4,354,-2.495,-1.642,8.985,0
842,35.445,-97.486,355.7,28.59,4,354,-2.343,-1.477,9.067,0
843,35.446,-97.486,354.1,29.34,3,354,-2.529,-1.562,8.834,0
844,35.446,-97.486,353.1,29.55,3,353,-2.505,-1.38,8.762,0
845,35.446,-97.486,352.3,29.65,3,353,-2.462,-1.639,8.992,0
846,35.447,-97.486,351.4,29.71,3,352,-2.017,-1.606,8.979,0
847,35.447,-97.486,350.1,29.73,3,352,-2.413,-1.408,9.085,0
848,35.447,-97.486,349,29.73,3,349,-2.401,-1.546,9.145,1
849,35.447,-97.487,348.2,29.76,3,346,-2.108,-1.469,9.052,1
850,35.448,-97.487,347.2,29.72,3,345,-2.112,-1.586,8.937,1
851,35.448,-97.487,345.9,29.68,3,344,-2.35,-1.719,8.99,1
852,35.448,-97.487,344.4,29.68,3,343,-2.283,-1.909,9.262,1
853,35.448,-97.487,343.4,30.08,3,341,-2.126,-1.52,9.506,1
854,35.449,-97.487,341.7,29.991,3,341,-2.558,-1.35,9.315,1
855,35.449,-97.487,341.1,29.93,3,339,-2.674,-1.398,9.082,1
856,35.449,-97.487,341.1,30.03,3,338,-2.556,-1.742,9.501,0
857,35.449,-97.487,340.9,30.321,3,337,-2.427,-1.764,9.101,0
858,35.45,-97.487,339.5,30.3,3,336,-2.615,-1.505,8.793,0
859,35.45,-97.487,339.6,30.79,4,336,-2.749,-1.773,9.584,0
861,35.45,-97.488,339.3,30.82,5,335,-2.702,-1.597,9.266,0
861,35.45,-97.488,339.3,30.82,5,335,-2.702,-1.597,9.266,0
862,35.45,-97.488,339.1,31.04,4,336,-2.244,-1.444,8.983,0
863,35.451,-97.488,339.3,30.821,4,336,-2.138,-1.454,9.43,0
864,35.451,-97.488,339.2,30.352,3,337,-1.915,-1.049,9.38,0
865,35.451,-97.488,339.4,29.801,3,337,-1.941,-0.653,9.666,0
866,35.452,-97.488,339.8,28.881,3,337,-1.982,-1.263,8.371,0
867,35.452,-97.488,340,28.081,3,337,-2.224,-1.219,8.486,0
868,35.452,-97.488,340.1,27.671,3,337,-2.221,-0.629,9.394,1
869,35.452,-97.489,340.3,27.161,3,337,-2.462,-1.05,9.269,1
870,35.452,-97.489,341.4,25.981,3,338,-2.908,-1.448,8.91,1
871,35.453,-97.489,341.8,25.651,3,339,-3.252,-1.54,8.309,1
872,35.453,-97.489,342.4,26.32,3,338,-3.344,-1.668,8.714,1
873,35.453,-97.489,342.3,26.73,3,339,-2.846,-1.519,8.965,1
874,35.454,-97.489,342.7,26.91,3,340,-2.491,-1.319,9.137,1
875,35.454,-97.489,342.7,26.91,3,340,-2.39,-1.372,8.894,1
876,35.454,-97.489,342.4,26.57,3,342,-2.026,-1.762,9.466,1
877,35.454,-97.489,341.3,26.12,3,341,-1.307,-0.728,9.524,1
878,35.454,-97.489,341,24.9,3,342,-1.211,-0.842,9.148,1
879,35.455,-97.49,340.7,24.1,3,343,-2.159,-1.233,8.992,1
880,35.455,-97.49,340.6,23.97,3,344,-2.436,-1.459,9.08,1
881,35.455,-97.49,340.8,24.161,3,344,-2.521,-1.763,9.134,1
882,35.455,-97.49,340.7,24.811,3,343,-2.649,-1.962,8.857,1
883,35.455,-97.49,340.7,25.581,3,342,-2.685,-2.009,8.873,1
884,35.456,-97.49,340.4,26.41,3,344,-2.717,-1.947,9.056,0
885,35.456,-97.49,340.5,27.1,3,344,-2.571,-2.088,8.881,0
886,35.456,-97.49,340.6,27.941,3,343,-2.589,-1.888,8.332,0
887,35.456,-97.49,340.6,28.681,3,343,-2.59,-2.307,9.389,0
888,35.457,-97.49,340.4,29.541,3,342,-2.657,-2.155,9.159,0
889,35.457,-97.491,340.3,30.3,3,341,-2.617,-1.75,8.482,0
890,35.457,-97.491,340.3,30.84,3,341,-2.669,-1.881,8.777,0
891,35.457,-97.491,340.1,31.1,3,341,-2.916,-1.902,8.657,0
892,35.458,-97.491,340.4,31.52,3,341,-3.483,-2.194,9.981,0
893,35.458,-97.491,341.1,32.18,4,341,-2.909,-2.012,8.243,0
894,35.458,-97.491,341.1,32.88,4,340,-2.766,-0.752,7.037,0
895,35.459,-97.491,341.2,33.27,4,340,-3.205,-1.782,8.853,0
896,35.459,-97.491,341.4,33.63,4,341,-2.626,-1.091,9.129,0
897,35.459,-97.491,341.7,33.61,4,340,-3.569,-1.183,8.516,0
898,35.459,-97.492,341.5,32.841,4,340,-1.757,-1.058,9.064,0
899,35.46,-97.492,342,32.58,4,340,-2.1,-1.089,9.08,0
900,35.46,-97.492,342.1,32.13,4,340,-1.957,-1.264,8.993,1
901,35.46,-97.492,341.5,31.52,4,339,-1.929,-1.504,9.555,1
902,35.46,-97.492,341.5,31.09,4,340,-2.343,-1.135,9.114,1
903,35.461,-97.492,341.5,30.7,4,340,-2.563,-0.931,8.728,1
904,35.461,-97.492,340.4,29.713,3,342,-1.688,-0.586,8.735,1
905,35.461,-97.492,340.1,28.84,3,341,-1.535,-1,9.085,1
906,35.461,-97.492,338.8,28.17,3,340,-0.727,-1.756,9.098,1
907,35.462,-97.493,335.2,27.581,3,340,-1.096,-2.058,9.19,1
908,35.462,-97.493,330.5,27.22,3,341,-1.424,-2.287,9.345,1
909,35.462,-97.493,326.5,27.12,3,340,-1.387,-2.171,8.473,1
910,35.462,-97.493,326.2,26.8,3,341,-1.319,-2.262,9.028,1
911,35.462,-97.493,319,26.67,3,341,-1.302,-2.396,8.798,1
912,35.463,-97.493,318.1,26.99,3,341,-1.23,-2.365,9.456,1
913,35.463,-97.494,311.3,26.75,3,341,-1.562,-2.044,9.213,1
914,35.463,-97.494,307.7,26.41,3,344,-1.626,-2.395,8.886,1
915,35.463,-97.494,303.5,26.67,3,343,-2.103,-2.582,8.722,1
916,35.463,-97.494,302.1,26.76,3,343,-2.028,-2.686,9.096,1
917,35.463,-97.495,296.7,27.85,3,344,-2.918,-2.042,8.832,1
918,35.463,-97.495,295.2,28.68,3,344,-2.992,-1.742,8.615,1
919,35.464,-97.495,295.5,29.62,3,344,-3.047,-2.006,8.946,1
920,35.464,-97.496,295.5,30.52,3,343,-2.798,-1.874,8.887,1
921,35.464,-97.496,295.5,31.1,3,343,-2.836,-1.992,9.261,1
922,35.464,-97.496,295.8,31.47,3,344,-2.454,-1.665,9.324,0
924,35.464,-97.497,296.2,31.61,3,344,-2.197,-1.504,8.726,0
924,35.464,-97.497,296.2,31.61,3,344,-2.197,-1.504,8.726,0
925,35.464,-97.497,296.3,31.35,3,344,-2.253,-1.292,8.762,0
926,35.464,-97.497,296.5,31.14,3,344,-2.631,-1.161,8.556,0
927,35.464,-97.497,297.2,31.001,3,344,-3.44,-1.054,8.841,0
928,35.465,-97.498,299.3,31.231,3,344,-3.708,-0.986,9.276,0
929,35.465,-97.498,300.3,31.4,3,344,-3.661,-1.069,8.932,0
930,35.465,-97.498,302,31.63,3,345,-3.672,-1.237,9.231,0
931,35.465,-97.499,307.2,32.36,3,344,-3.605,-1.29,9.095,0
932,35.465,-97.499,309.4,32.85,3,344,-3.817,-1.205,9.351,0
933,35.465,-97.499,310.8,33,3,344,-3.188,-0.576,9.343,0
934,35.466,-97.499,314.5,33.571,3,345,-3.083,-0.423,9.206,0
935,35.466,-97.5,318.9,32.7,3,346,-2.43,-0.302,8.453,0
936,35.466,-97.5,321.2,32.34,3,346,-3.09,-0.513,10.207,0
937,35.467,-97.5,323.3,31.99,3,346,-2.709,-1.554,10.849,0
938,35.467,-97.501,324.5,31.6,3,347,-2.221,-1.538,9.42,0
939,35.467,-97.501,324.6,31.471,3,348,-2.318,-1.448,8.919,0
940,35.467,-97.501,324.5,31.29,3,347,-2.178,-1.471,9.548,0
941,35.467,-97.501,324.5,31.06,3,348,-2.852,-1.864,9.456,0
942,35.468,-97.501,324.6,30.578,3,348,-2.542,-1.296,8.366,0
943,35.468,-97.502,324.8,30.402,3,349,-2.064,-1.596,9.753,0
944,35.468,-97.502,324.7,29.861,3,350,-2.328,-1.263,9.11,0
945,35.468,-97.502,324.8,29.251,3,349,-1.935,-1.574,9.391,0
946,35.469,-97.502,324.9,29.071,3,349,-2.814,-1.912,9.419,0
947,35.469,-97.502,324.7,29.22,3,350,-2.418,-2.12,9.188,0
948,35.469,-97.503,323.8,29.4,3,351,-2.277,-2.316,8.715,0
949,35.469,-97.503,322.8,29.71,3,350,-2.451,-2.281,8.634,0
950,35.469,-97.503,322.1,29.911,3,353,-2.369,-1.866,8.996,0
951,35.47,-97.503,321.9,30.091,3,355,-2.378,-1.827,9.224,0
952,35.47,-97.503,321.6,30.021,3,355,-1.959,-0.914,7.332,0
953,35.47,-97.504,321.5,29.701,3,356,-1.771,-1.619,8.567,0
954,35.47,-97.504,321,29.561,3,356,-2.184,-1.797,8.789,0
955,35.47,-97.504,320.6,29.75,3,355,-2.251,-1.815,9.165,0
956,35.471,-97.504,320.4,30.01,3,355,-2.54,-1.833,8.772,0
957,35.471,-97.504,320.4,30.18,3,356,-2.483,-1.542,9.111,0
958,35.471,-97.505,320.5,30.4,3,356,-2.039,-1.473,9.092,0
959,35.471,-97.505,320.4,30.29,3,356,-2.135,-1.44,8.788,0
960,35.472,-97.505,320.4,30.26,3,355,-2.222,-1.304,8.75,0
961,35.472,-97.505,320.5,30.09,3,356,-1.456,-1.623,9.995,0
962,35.472,-97.505,320.4,29.81,3,356,-2.443,-1.64,9.7,0
963,35.472,-97.506,320.2,29.57,3,356,-2.269,-1.56,9.652,0
964,35.472,-97.506,320.2,29.53,3,356,-2.406,-1.596,8.942,0
965,35.473,-97.506,320.3,29.781,3,356,-2.595,-1.771,8.323,0
966,35.473,-97.506,320.6,30.11,3,355,-2.294,-1.737,8.861,0
967,35.473,-97.506,320.3,30.54,3,356,-2.299,-1.513,8.601,0
968,35.473,-97.507,320.3,30.75,3,356,-2.237,-1.411,8.82,0
969,35.473,-97.507,320.4,31.01,3,357,-2.246,-1.399,9.111,0
970,35.474,-97.507,320.4,31.07,3,358,-2.167,-1.368,9.031,0
971,35.474,-97.507,320.6,31.24,3,358,-2.75,-1.115,9.401,1
972,35.474,-97.508,320.9,31.26,3,358,-3.029,-0.913,9.652,0
973,35.474,-97.508,323.3,31.451,3,356,-2.898,-0.72,9.09,0
974,35.474,-97.508,324.3,31.51,4,354,-3.051,-0.738,9.216,0
975,35.475,-97.508,327.4,30.612,4,354,-3.217,-0.793,9.15,0
976,35.475,-97.508,330,30.551,4,352,-2.848,-0.96,8.811,0
977,35.475,-97.508,332,30.46,4,352,-2.953,-0.946,8.916,0
978,35.475,-97.509,333.8,30.26,3,351,-2.788,-0.849,9.152,0
979,35.476,-97.509,335.6,29.99,3,351,-2.599,-0.841,8.643,0
980,35.476,-97.509,337.2,29.71,3,350,-2.674,-0.777,8.93,1
981,35.476,-97.509,339.1,29.481,3,349,-3.018,-0.792,9.432,1
982,35.476,-97.509,341.2,29.29,3,350,-3.084,-0.935,9.123,1
983,35.477,-97.509,343.7,29.461,3,349,-3.043,-1.075,8.925,1
984,35.477,-97.509,345.4,29.46,3,349,-3.1,-1.197,9.006,1
985,35.477,-97.509,347.7,29.801,3,348,-3.282,-1.292,9.103,1
987,35.478,-97.509,349.5,30.17,3,348,-3.327,-1.459,9.518,0
987,35.478,-97.509,349.5,30.17,3,348,-3.327,-1.459,9.518,0
988,35.478,-97.509,351.7,30.63,3,347,-3.126,-1.488,9.236,0
989,35.478,-97.509,353.4,31.48,3,347,-3.378,-1.272,8.888,0
990,35.478,-97.509,355.3,31.26,3,346,-2.955,-1.609,9.052,0
991,35.479,-97.51,356.3,31.17,4,346,-2.841,-2.059,9.21,0
992,35.479,-97.51,357,32.021,3,347,-2.681,-2.057,8.783,0
993,35.479,-97.51,356.9,32.591,3,347,-2.737,-2.134,8.764,0
994,35.48,-97.51,357,32.91,3,347,-2.677,-1.699,8.454,0
995,35.48,-97.51,356.5,33.68,3,347,-2.267,-1.696,8.715,1
996,35.48,-97.51,356.4,33.75,3,347,-2.236,-1.634,9.249,1
997,35.48,-97.51,356.1,33.7,3,347,-1.814,-1.593,9.188,1
998,35.481,-97.51,355,33.71,3,346,-1.905,-1.551,9.354,1
999,35.481,-97.51,352.4,33.2,3,346,-2.287,-1.329,9.194,1
1000,35.482,-97.51,351.9,32.93,3,346,-2.067,-1.376,9.216,1
1001,35.482,-97.51,351.1,32.79,3,345,-2.051,-1.557,9.105,1
1002,35.482,-97.51,350.3,32.53,3,344,-1.995,-1.55,9.296,1
1003,35.483,-97.51,350.2,32.83,3,344,-2.023,-1.745,9.112,1
1004,35.483,-97.51,349.5,32.89,3,344,-2.447,-1.731,9.188,1
1005,35.483,-97.51,347.9,32.002,3,345,-2.384,-1.504,9.157,1
1006,35.483,-97.51,347.2,31.646,3,347,-2.478,-1.6,9.122,0
1007,35.484,-97.51,346.9,31.654,3,347,-2.504,-1.657,9.115,0
1008,35.484,-97.51,346.6,31.494,3,349,-2.414,-1.649,9.529,0
1009,35.484,-97.51,347,31.334,3,350,-3.044,-1.508,9.036,0
1010,35.484,-97.511,348,31.134,3,351,-2.851,-1.17,8.956,0
1011,35.485,-97.511,349.2,30.594,3,351,-2.962,-1.035,8.584,0
1012,35.485,-97.511,350.4,30.353,3,351,-2.76,-1.423,9.006,0
1013,35.485,-97.511,351,30.034,3,352,-2.562,-1.269,8.803,1
1014,35.486,-97.511,351.8,29.941,3,352,-3.055,-0.998,8.79,0
1015,35.486,-97.511,353,29.346,3,354,-3.077,-1.205,9.538,0
1016,35.486,-97.511,353.9,28.955,3,355,-2.377,-1.227,9.078,0
1017,35.486,-97.511,354.6,28.336,3,356,-2.219,-1.092,9.04,0
1018,35.487,-97.511,354.8,28.192,3,357,-2.518,-0.918,9.07,0
1019,35.487,-97.511,355.7,28.021,3,357,-2.527,-1.153,8.672,0
1020,35.487,-97.511,357.8,27.172,3,357,-2.585,-1.386,8.914,0
1021,35.487,-97.511,358.5,26.901,3,358,-2.741,-1.545,8.523,0
1022,35.488,-97.511,359.1,26.93,3,359,-2.563,-1.55,8.562,0
1023,35.488,-97.511,359.5,27.22,3,359,-2.657,-1.66,8.733,0
1024,35.488,-97.511,359.9,27.61,3,359,-2.777,-1.834,9.065,0
1025,35.488,-97.511,359.9,28,3,360,-2.919,-1.737,8.926,0
1026,35.489,-97.511,0.1,28.5,3,360,-3.188,-1.592,8.897,0
1027,35.489,-97.511,0.2,28.94,3,360,-3.037,-1.665,9.006,0
1028,35.489,-97.511,0,29.43,3,360,-2.577,-2.546,9.838,0
1029,35.489,-97.511,358.6,29.86,3,360,-2.08,-2.124,8.527,0
1030,35.49,-97.511,356.3,30.29,3,360,-1.982,-2.09,8.337,0
1031,35.49,-97.511,355.5,30.4,3,360,-1.885,-2.126,8.062,0
1032,35.49,-97.511,352.3,31.11,3,360,-2.238,-1.89,8.677,0
1033,35.49,-97.511,350.8,31.24,3,359,-2.206,-2.16,9.571,0
1034,35.491,-97.511,349,31.41,3,359,-1.638,-1.801,8.463,0
1035,35.491,-97.511,348,31.48,3,358,-2.125,-2.213,9.297,0
1036,35.491,-97.511,345.5,30.7,4,360,-2.124,-1.947,9.411,0
1037,35.492,-97.511,343.4,31.49,3,361,-2.124,-1.526,8.617,0
1038,35.492,-97.512,342,31.46,4,360,-1.93,-1.915,8.743,0
1039,35.492,-97.512,340.1,31.38,4,358,-2.152,-1.933,8.852,0
1040,35.492,-97.512,337.9,31.38,3,357,-1.586,-2.182,9.325,0
1041,35.493,-97.512,335.7,31.26,3,357,-2.629,-1.503,9.029,0
1042,35.493,-97.512,334.7,31.06,3,358,-2.177,-1.059,8.481,0
1043,35.493,-97.512,334.4,30.84,3,356,-1.339,-0.311,9.041,0
1044,35.493,-97.512,334.2,29.971,3,355,-1.573,-0.769,9.823,0
1045,35.494,-97.513,334.5,28.591,3,354,-2.293,-1.154,9.204,0
1046,35.494,-97.513,334.9,28.182,3,353,-2.552,-1.35,9.042,0
1048,35.494,-97.513,335.4,28.123,3,351,-2.364,-1.064,8.974,0
1048,35.494,-97.513,335.4,28.123,3,351,-2.364,-1.064,8.974,0
1049,35.494,-97.513,336,28.063,3,350,-2.78,-0.839,8.934,1
