time,lat,lng,bearing,spd,acc,alt,accx,accy,accz,stable,
0,35.194,-97.423,272.3,8.84,3,318,-1.254,1.621,9.817,0
1,35.194,-97.423,274.8,9.2678,3,318,-1.251,1.555,9.62,0
2,35.194,-97.423,276.8,9.626,3,317,-0.925,1.608,10.404,0
3,35.194,-97.423,278.3,9.6938,3,316,0.1,1.5,10.008,0
4,35.194,-97.423,280,8.892,3,315,0.267,1.272,10.455,0
5,35.194,-97.423,281.9,7.4824,3,315,-0.07,1.346,10.151,0
7,35.194,-97.423,282.4,6.4008,3,315,0.059,0.937,10.515,0
7,35.194,-97.423,282.4,6.4008,3,315,0.059,0.937,10.515,0
8,35.194,-97.424,283.3,5.161,3,315,0.166,1.357,9.892,0
9,35.194,-97.424,284.3,3.8113,3,314,-0.361,1.325,9.953,0
10,35.194,-97.424,284.2,2.3402,3,315,-1.723,1.609,9.701,0
11,35.194,-97.424,284.4,1.7703,3,316,-2.333,2.572,9.283,0
12,35.194,-97.424,286.9,2.5701,3,316,-2.008,3.015,9.483,0
13,35.194,-97.424,302.5,3.552,3,315,-2.128,3.875,9.12,0
14,35.194,-97.424,321.8,4.4116,3,315,-2.493,3.857,9.38,0
15,35.194,-97.424,348,5.35,3,315,-2.95,2.108,9.538,0
16,35.194,-97.424,8.5,6.1871,3,316,-2.833,1.252,9.504,0
17,35.195,-97.424,15.2,7.9233,3,316,-2.659,1.082,9.578,0
18,35.195,-97.424,16.2,9.18,3,315,-2.41,1.044,9.209,0
19,35.195,-97.424,15.6,10.28,3,316,-2.302,0.923,9.319,0
20,35.195,-97.424,14.2,11.24,3,316,-2.178,0.885,9.242,0
21,35.195,-97.424,11.8,12.51,3,315,-2.248,0.901,9.553,0
22,35.195,-97.424,8.5,13.78,3,315,-2.078,0.907,9.376,0
23,35.195,-97.424,6,14.51,3,315,-1.996,0.967,9.428,0
24,35.195,-97.423,3.5,15.24,3,315,-2.1,1.413,8.481,0
25,35.196,-97.423,1.6,15.761,3,315,-1.928,1.083,9.136,0
26,35.196,-97.423,0.2,16.52,3,315,-2.246,1.154,9.283,0
27,35.196,-97.423,359.8,17.061,3,315,-2.163,1.419,10.007,0
28,35.196,-97.423,359.5,17.531,3,316,-2.065,1.075,9.583,0
29,35.196,-97.423,359.5,18.082,3,316,-1.345,1.183,9.878,0
30,35.196,-97.423,359.2,18.202,3,316,-1.699,0.778,9.46,0
31,35.197,-97.424,359,18.212,3,317,-1.606,0.826,9.662,0
32,35.197,-97.424,358.5,18.362,3,317,-1.711,0.747,9.358,0
33,35.197,-97.424,358.1,18.462,3,318,-1.754,1.107,9.657,0
34,35.197,-97.424,357.8,18.611,3,318,-1.764,1.15,9.44,0
35,35.197,-97.424,358.2,18.77,3,318,-1.763,1.137,9.478,0
36,35.197,-97.424,358.7,18.992,3,319,-0.995,1.107,9.493,0
37,35.198,-97.424,359,18.952,3,319,-0.978,0.914,9.505,0
38,35.198,-97.424,359.3,18.432,3,319,-1.342,1.067,9.923,0
39,35.198,-97.424,359.3,17.992,3,320,-1.216,0.833,9.6,0
40,35.198,-97.424,359.3,17.702,3,320,-1.273,1.105,9.603,0
42,35.198,-97.424,359.3,17.442,3,320,-1.214,0.963,9.672,0
42,35.198,-97.424,359.3,17.442,3,320,-1.214,0.963,9.672,0
43,35.198,-97.424,359.3,17.101,3,321,-1.313,1.148,10.004,0
44,35.198,-97.424,359.3,16.89,3,321,-1.51,1.019,9.495,0
45,35.199,-97.424,359.5,16.841,3,322,-1.557,0.917,9.926,0
46,35.199,-97.424,359.5,16.94,3,322,-1.735,1.027,9.694,0
47,35.199,-97.424,359.6,17.09,3,322,-1.606,1.018,9.241,0
48,35.199,-97.424,359.7,17.42,3,322,-1.521,1.095,9.614,0
49,35.199,-97.424,359.6,17.63,3,323,-1.488,0.858,9.34,0
50,35.199,-97.424,359.6,17.82,3,323,-1.331,1.033,9.975,0
51,35.2,-97.424,359.5,18,3,324,-0.928,0.981,10.092,0
52,35.2,-97.424,359.2,17.9,3,323,-1.05,1.22,9.881,0
53,35.2,-97.424,359.3,17.5,3,324,-1.207,0.956,9.523,0
54,35.2,-97.424,359.6,17.13,3,324,-1.27,1.03,9.714,0
55,35.2,-97.424,359.7,16.93,3,324,-1.312,0.875,9.347,0
56,35.2,-97.424,359.5,16.811,3,323,-1.27,1.136,10.219,0
57,35.201,-97.424,359.2,16.66,3,324,-1.254,1.205,9.594,0
58,35.201,-97.424,359.5,16.61,3,324,-1.44,1.018,10.007,0
59,35.201,-97.424,359.9,16.58,3,324,-1.415,0.839,9.526,0
60,35.201,-97.424,359.7,16.54,3,324,-1.259,1.127,9.922,0
61,35.201,-97.424,359.7,16.46,3,324,-0.994,1.004,10.148,0
62,35.201,-97.424,359.7,16.13,3,324,-0.872,0.844,9.846,0
63,35.202,-97.424,359.7,15.71,3,324,-0.85,1.046,9.896,0
64,35.202,-97.424,359.7,15.33,3,324,-1.011,1.276,10.092,0
65,35.202,-97.424,0.1,15.04,3,324,-0.669,0.689,9.509,0
66,35.202,-97.424,0.3,14.71,3,324,-1.123,0.946,10.301,0
67,35.202,-97.424,0.6,14.34,3,324,-0.966,1.072,9.891,0
68,35.202,-97.424,0.8,13.981,3,324,-1.151,0.799,9.776,0
69,35.202,-97.424,1.1,13.57,3,324,-1.061,1.047,9.93,0
70,35.202,-97.424,1,13.283,3,324,-1.044,0.827,9.403,0
71,35.203,-97.424,1,12.901,3,324,-0.953,0.92,9.914,0
72,35.203,-97.424,1.6,12.5,3,325,-0.945,0.78,10.101,0
73,35.203,-97.424,1.2,12.11,3,325,-1.021,0.83,10.139,0
74,35.203,-97.424,1.1,11.71,3,324,-0.864,1.002,9.685,0
75,35.203,-97.424,0.6,11.32,3,324,-0.899,1.044,10.089,0
76,35.203,-97.424,0.5,10.94,3,324,-0.905,0.651,9.716,0
77,35.203,-97.424,359.5,10.523,3,324,-0.757,0.939,9.806,0
78,35.203,-97.424,0.2,10.06,3,324,-0.332,0.684,9.994,0
80,35.203,-97.424,0.1,9.1102,3,325,-0.119,1.085,9.731,0
80,35.203,-97.424,0.1,9.1102,3,325,-0.119,1.085,9.731,0
81,35.203,-97.424,0.1,7.9105,3,326,-0.203,1.161,10.036,0
82,35.203,-97.424,0.3,6.4801,3,326,0.032,1.237,10.133,0
83,35.204,-97.424,1.5,5.4033,3,326,-0.361,1.227,9.8,0
84,35.204,-97.424,0,3.8802,3,325,-0.452,1.09,9.929,0
85,35.204,-97.424,359.7,2.82,3,325,-0.979,1.132,9.725,0
86,35.204,-97.424,358.9,2.14,3,325,-0.632,1.146,9.929,0
87,35.204,-97.424,358.9,1.6603,3,325,-0.874,1.13,9.801,0
88,35.204,-97.424,358.9,0.75027,3,324,-1.404,1.118,9.775,0
89,35.204,-97.424,358.9,0.75027,3,324,-1.29,1.123,9.672,0
90,35.204,-97.424,358.9,0.75027,3,324,-1.275,1.119,9.72,1
91,35.204,-97.424,358.9,0.75027,3,324,-1.278,1.124,9.818,1
92,35.204,-97.424,0,0,3,324,-1.301,1.123,9.793,1
93,35.204,-97.424,0,0,3,324,-1.292,1.125,9.808,1
94,35.204,-97.424,0,0,3,324,-1.283,1.124,9.676,1
95,35.204,-97.424,0,0,3,324,-1.29,1.106,9.796,1
96,35.204,-97.424,0,0,3,324,-1.268,1.115,9.671,1
97,35.204,-97.424,0,0,3,324,-1.287,1.112,9.793,1
98,35.204,-97.424,0,0,3,324,-1.288,1.122,9.724,1
99,35.204,-97.424,0,0,3,324,-1.302,1.128,9.795,1
100,35.204,-97.424,0,0,3,324,-1.283,1.128,9.726,1
101,35.204,-97.424,0,0,3,324,-1.276,1.13,9.703,1
102,35.204,-97.424,0,0,3,324,-1.297,1.117,9.803,1
103,35.204,-97.424,0,0,3,324,-1.287,1.125,9.676,1
104,35.204,-97.424,0,0,3,324,-1.292,1.137,9.668,1
105,35.204,-97.424,0,0,3,324,-1.293,1.113,9.759,1
106,35.204,-97.424,0,0,3,324,-1.282,1.116,9.672,1
107,35.204,-97.424,0,0,3,324,-1.281,1.121,9.8,1
108,35.204,-97.424,0,0,3,324,-1.307,1.118,9.706,1
109,35.204,-97.424,0,0,3,324,-1.298,1.132,9.783,1
110,35.204,-97.424,0,0,3,324,-1.297,1.117,9.735,1
111,35.204,-97.424,0,0,3,324,-1.299,1.131,9.785,1
112,35.204,-97.424,0,0,3,324,-1.295,1.118,9.658,1
113,35.204,-97.424,0,0,3,324,-1.296,1.117,9.775,1
114,35.204,-97.424,0,0,3,324,-1.297,1.135,9.68,1
115,35.204,-97.424,0,0,3,324,-1.283,1.122,9.755,1
116,35.204,-97.424,0,0,3,324,-1.273,1.115,9.708,1
117,35.204,-97.424,0,0,3,324,-1.3,1.135,9.69,1
118,35.204,-97.424,0,0,3,324,-1.278,1.125,9.711,1
119,35.204,-97.424,0,0,3,324,-1.274,1.107,9.779,1
120,35.204,-97.424,0,0,3,324,-1.289,1.124,9.668,1
121,35.204,-97.424,0,0,3,324,-1.299,1.132,9.771,1
122,35.204,-97.424,0,0,3,324,-1.288,1.111,9.787,1
123,35.204,-97.424,0,0,3,324,-1.6,1.091,9.683,1
124,35.204,-97.424,0,0,3,324,-2.686,0.437,9.561,0
125,35.204,-97.424,358.6,1.4223,3,324,-3.016,0.244,9.74,0
127,35.204,-97.424,358.3,3.66,3,324,-2.788,0.644,9.32,0
127,35.204,-97.424,358.3,3.66,3,324,-2.788,0.644,9.32,0
128,35.204,-97.424,358,5.4,3,324,-2.62,0.675,9.63,0
129,35.204,-97.424,358.5,6.87,3,324,-2.326,0.589,9.389,0
130,35.204,-97.424,359.2,8.1,3,324,-2.019,-0.107,9.7,0
131,35.204,-97.424,0,9.2601,3,324,-2.511,0.501,10.22,0
132,35.204,-97.424,0.1,10.36,3,324,-2.286,0.461,9.708,0
133,35.204,-97.424,0.3,11.451,3,324,-2.007,0.291,9.712,0
134,35.204,-97.424,0.4,12.41,3,324,-2.08,0.593,9.733,0
135,35.204,-97.424,0.3,13.3,3,324,-1.604,-0.259,9.32,0
136,35.205,-97.424,0.2,14.23,3,324,-1.732,-0.06,9.982,0
137,35.205,-97.424,0,15.07,3,324,-2.006,0.384,10.227,0
138,35.205,-97.424,359.5,15.72,3,324,-0.808,0.312,9.882,0
139,35.205,-97.424,359.1,16.6,3,324,-1.105,0.506,9.17,0
140,35.205,-97.424,358.6,16.59,3,324,-1.116,0.078,9.323,0
141,35.205,-97.424,358.6,16.631,3,325,-1.457,0.739,10.005,0
142,35.205,-97.424,358.5,16.86,3,325,-1.469,0.776,9.194,0
143,35.206,-97.424,358.4,17.09,3,324,-1.448,0.595,9.754,0
144,35.206,-97.424,358.6,17.39,3,324,-1.692,0.41,10.907,0
145,35.206,-97.424,358.8,17.61,3,324,-1.365,0.571,9.53,0
146,35.206,-97.424,359,18.09,3,325,-1.343,0.508,9.692,0
147,35.206,-97.424,359.3,18.331,3,325,-1.419,0.587,9.762,0
148,35.207,-97.424,359.8,18.54,3,325,-1.4,0.512,10.027,0
149,35.207,-97.424,0.3,18.77,3,325,-1.404,0.417,9.862,0
150,35.207,-97.424,2.5,17.93,3,325,-1.18,0.327,9.797,0
151,35.207,-97.424,0.5,19.24,3,325,-1.265,0.513,10.079,0
152,35.207,-97.424,0.1,19.28,3,325,-1.336,0.51,9.782,0
153,35.207,-97.424,0.2,19.45,3,324,-1.251,0.316,9.813,0
154,35.208,-97.424,0,19.64,3,324,-1.28,0.557,9.576,0
155,35.208,-97.424,0,19.78,3,325,-1.322,0.532,9.842,0
156,35.208,-97.424,0.2,19.95,3,325,-1.223,0.487,9.738,0
157,35.208,-97.424,0.3,20.09,3,325,-1.196,0.44,9.496,0
158,35.208,-97.424,0.2,20.21,3,325,-1.303,0.588,9.865,0
159,35.208,-97.424,0,20.34,3,324,-1.195,0.389,9.551,0
160,35.209,-97.424,359.8,20.47,3,325,-0.796,0.557,10.286,0
161,35.209,-97.424,359.8,20.19,3,326,-0.81,0.585,9.864,0
162,35.209,-97.424,359.9,19.821,3,325,-0.992,0.621,9.909,0
163,35.209,-97.424,0.2,19.54,3,326,-0.933,0.61,9.455,0
164,35.209,-97.424,0.2,19.37,3,325,-1.017,0.484,9.783,0
165,35.21,-97.424,0.1,19.23,3,326,-1.082,0.564,9.447,0
166,35.21,-97.424,0,19.111,3,326,-1.18,0.603,9.437,0
167,35.21,-97.424,0,19.03,3,326,-1.21,0.727,10.174,0
168,35.21,-97.424,0.4,18.98,3,326,-1.098,0.661,9.409,0
169,35.21,-97.424,0.8,18.961,3,326,-1.118,0.587,9.706,0
170,35.21,-97.424,1.1,18.971,3,326,-1.163,0.396,9.355,0
171,35.211,-97.424,1.2,19.08,3,326,-1.128,0.35,9.315,0
172,35.211,-97.424,0.9,19.22,3,327,-0.877,0.603,9.954,0
173,35.211,-97.424,0.4,19.33,3,327,-1.198,0.581,9.578,0
174,35.211,-97.424,0.2,19.32,3,327,-1.243,0.509,9.746,0
175,35.211,-97.424,0.1,19.4,3,328,-1.186,0.489,9.721,0
177,35.211,-97.424,0,19.63,3,328,-1.032,0.657,10.089,0
177,35.211,-97.424,0,19.63,3,328,-1.032,0.657,10.089,0
178,35.212,-97.424,359.8,19.79,3,327,-1.277,0.482,9.807,0
179,35.212,-97.424,359.8,20.03,3,327,-1.258,0.577,9.61,0
180,35.212,-97.424,359.7,20.21,3,326,-1.106,0.593,9.852,0
181,35.212,-97.424,359.7,20.43,3,326,-0.89,0.816,9.718,0
182,35.212,-97.424,359.7,20.4,3,326,-1.052,0.667,9.806,0
183,35.213,-97.424,0,20.25,3,326,-1.028,0.747,9.791,0
184,35.213,-97.424,0.2,20.22,3,326,-0.864,0.599,9.497,0
185,35.213,-97.424,0.3,20.25,3,325,-0.983,0.64,10.187,0
186,35.213,-97.424,0.3,20.1,3,325,-0.831,0.757,9.336,0
187,35.213,-97.424,0.3,19.98,3,325,-0.774,0.618,9.98,0
188,35.213,-97.424,0.2,19.7,3,325,-0.862,0.459,9.337,0
189,35.214,-97.424,0.1,19.5,3,325,-1.005,0.535,10.048,0
190,35.214,-97.424,0.1,19.49,3,325,-0.979,0.49,9.735,0
191,35.214,-97.424,0.1,19.39,3,325,-1.021,0.367,9.892,0
192,35.214,-97.424,0,19.31,3,325,-1.094,0.623,9.975,0
193,35.214,-97.424,359.8,19.151,3,326,-1.214,0.509,9.433,0
194,35.214,-97.424,359.8,19.04,3,326,-1.308,0.339,9.65,0
195,35.215,-97.424,359.8,19.06,3,326,-1.375,0.561,9.492,0
196,35.215,-97.424,359.8,19.22,3,326,-1.33,0.469,9.162,0
197,35.215,-97.424,0.1,19.69,3,326,-1.325,0.415,9.942,0
198,35.215,-97.424,0,20.01,3,326,-1.424,0.486,9.606,0
199,35.216,-97.424,0.1,20.37,3,325,-1.218,0.54,9.717,0
200,35.216,-97.424,0.2,20.58,3,325,-0.776,0.512,9.811,0
201,35.216,-97.424,359.9,20.5,3,325,-0.702,0.465,9.656,0
202,35.216,-97.424,359.7,20.17,3,325,-0.821,0.638,9.798,0
203,35.216,-97.424,359.7,19.84,3,325,-0.854,0.737,9.604,0
204,35.216,-97.424,359.9,19.44,3,326,-0.89,0.752,9.897,0
205,35.217,-97.424,0,19.03,3,326,-0.672,0.695,9.477,0
206,35.217,-97.424,0.1,18.6,3,326,-0.475,0.348,9.664,0
207,35.217,-97.424,0.2,17.801,3,327,0.451,1.272,9.023,0
208,35.217,-97.424,0.4,16.671,3,327,-0.182,1.194,10.115,0
209,35.217,-97.424,0.5,15.412,3,327,0.51,0.951,9.448,0
210,35.217,-97.424,0.6,14.14,3,327,0.109,1.029,9.946,0
211,35.217,-97.424,0.7,12.621,3,327,-0.213,0.889,9.717,0
212,35.218,-97.424,0.7,11.141,3,327,-0.54,0.32,9.67,0
213,35.218,-97.424,0.2,10.26,3,328,-0.778,0.962,9.538,0
214,35.218,-97.424,359.6,9.74,3,328,-0.701,0.641,9.427,0
215,35.218,-97.424,359.5,9.2105,3,329,-0.858,1.143,9.437,0
216,35.218,-97.424,359.7,8.6608,3,329,-0.512,0.599,9.727,0
217,35.218,-97.424,0.1,8.0409,3,329,0.057,0.757,10.092,0
218,35.218,-97.424,0.3,7.07,3,329,-0.736,0.884,10.188,0
219,35.218,-97.424,359.7,5.7107,3,329,-0.045,1.042,9.819,0
220,35.218,-97.424,0.1,4.6704,3,328,-0.132,1.067,9.883,0
221,35.218,-97.424,359.9,3.3212,3,328,-0.606,0.701,9.871,0
222,35.218,-97.424,359.3,2.14,3,328,-0.863,0.523,9.67,0
223,35.218,-97.424,359.4,1.51,3,328,-0.907,0.681,9.859,1
224,35.218,-97.424,0.1,1.12,3,328,-0.224,0.936,9.989,0
225,35.218,-97.424,0.1,1.12,3,328,-1.345,0.592,9.505,0
226,35.218,-97.424,0.1,1.12,3,328,-1.286,0.6,9.732,1
227,35.218,-97.424,0.1,1.12,3,328,-1.322,0.591,9.7,1
228,35.218,-97.424,0.1,1.12,3,328,-1.315,0.591,9.725,1
229,35.218,-97.424,0.1,1.12,3,328,-1.31,0.575,9.73,1
230,35.218,-97.424,0.1,1.12,3,328,-1.307,0.572,9.755,1
232,35.218,-97.424,0.1,1.12,3,328,-1.311,0.578,9.648,1
232,35.218,-97.424,0.1,1.12,3,328,-1.311,0.578,9.648,1
233,35.218,-97.424,0.1,1.12,3,328,-1.321,0.594,9.624,1
234,35.218,-97.424,0.1,1.12,3,328,-1.303,0.603,9.718,1
235,35.218,-97.424,0.1,1.12,3,328,-1.314,0.581,9.675,1
236,35.218,-97.424,0.1,1.12,3,328,-1.307,0.6,9.668,1
237,35.218,-97.424,0.1,1.12,3,328,-1.318,0.589,9.768,1
238,35.218,-97.424,0.1,1.12,3,328,-1.315,0.584,9.727,1
239,35.218,-97.424,0.1,1.12,3,328,-1.442,0.574,9.663,1
240,35.218,-97.424,0.1,1.12,3,328,-3.896,-0.214,9.367,0
241,35.218,-97.424,359.6,0.7311,3,330,-3.228,0.272,9.289,0
242,35.218,-97.424,359.8,3.0201,3,329,-3.118,0.019,8.856,0
243,35.218,-97.424,0.3,5.1316,3,330,-2.644,0.469,9.426,0
244,35.218,-97.424,0.1,6.9005,3,329,-2.447,0.592,9.695,0
245,35.218,-97.424,0.2,8.46,3,329,-2.248,0.601,9.434,0
246,35.219,-97.424,0.1,9.7801,3,329,-2.011,0.232,9.448,0
247,35.219,-97.424,359.9,10.6,3,329,-2.067,0.48,9.505,0
248,35.219,-97.424,359.9,11.821,3,329,-1.344,0.28,9.602,0
249,35.219,-97.424,0,12.83,3,329,-1.369,0.434,9.562,0
250,35.219,-97.424,0.2,13.47,3,329,-1.256,0.392,9.936,0
251,35.219,-97.424,0.4,13.78,3,328,-1.3,0.19,9.96,0
252,35.219,-97.424,0.1,14.47,3,329,-1.362,1.026,9.399,0
253,35.219,-97.424,0.2,14.79,3,328,-1.555,0.232,10.006,0
254,35.22,-97.424,0.5,15.09,3,328,-1.191,0.405,9.489,0
255,35.22,-97.424,0.4,15.331,3,328,-1.416,0.541,9.935,0
256,35.22,-97.424,0.4,15.641,3,328,-1.49,0.633,9.736,0
257,35.22,-97.424,0.3,15.9,3,328,-1.456,0.823,10.366,0
258,35.22,-97.424,0.4,16.101,3,329,-1.387,0.145,10.218,0
259,35.22,-97.424,0.8,16.41,3,329,-1.348,0.599,9.375,0
260,35.221,-97.424,0.7,16.76,3,329,-1.421,0.523,9.417,0
261,35.221,-97.424,0.3,17.01,3,329,-0.733,0.59,9.564,0
262,35.221,-97.424,0.1,16.85,3,329,-0.853,0.379,9.525,0
263,35.221,-97.424,359.8,16.821,3,328,-1.106,0.502,9.885,0
264,35.221,-97.424,359.2,16.691,3,328,-1.236,0.48,9.543,0
265,35.221,-97.424,358.7,16.74,3,328,-1.346,0.724,9.73,0
266,35.221,-97.424,358.9,16.65,3,328,-1.348,0.758,9.642,0
267,35.222,-97.424,359.7,16.75,3,328,-1.262,0.513,9.512,1
268,35.222,-97.424,0.7,17.02,3,329,-1.219,0.413,9.961,0
269,35.222,-97.424,0.7,17.08,3,329,-1.17,0.501,9.608,0
270,35.222,-97.424,0.8,17.22,3,333,-1.183,0.251,9.656,0
271,35.222,-97.424,0.5,17.39,3,332,-1.269,0.331,9.822,0
272,35.222,-97.424,0.3,17.551,3,332,-0.795,0.57,9.795,0
273,35.223,-97.424,0.3,17.6,3,331,-0.992,0.527,9.849,0
274,35.223,-97.424,0.4,17.47,3,331,-1.176,0.85,9.452,0
275,35.223,-97.424,0.8,17.491,3,331,-1.181,0.607,9.29,0
276,35.223,-97.424,1.6,17.62,3,330,-1.185,0.364,9.462,0
277,35.223,-97.424,1.6,17.72,3,330,-1.194,0.271,9.848,0
278,35.223,-97.424,1.1,17.9,3,329,-0.993,0.35,9.888,0
279,35.223,-97.424,0.6,18.03,3,329,-1.099,0.464,9.809,0
280,35.224,-97.424,0.4,18.1,3,329,-1.151,0.614,9.8,0
281,35.224,-97.424,0.5,18.151,3,329,-1.128,0.332,9.824,0
282,35.224,-97.424,0.6,18.25,3,329,-1.054,0.386,9.751,0
283,35.224,-97.424,0.7,18.35,3,329,-1.194,0.347,10.157,0
284,35.224,-97.424,0.4,18.45,3,329,-1.274,0.592,9.466,0
285,35.224,-97.424,0.4,18.64,3,329,-1.213,0.409,9.421,0
286,35.225,-97.424,0.5,18.74,3,329,-0.795,0.689,10.073,0
288,35.225,-97.424,0.6,18.87,3,329,-0.658,0.612,9.949,0
288,35.225,-97.424,0.6,18.87,3,329,-0.658,0.612,9.949,0
289,35.225,-97.424,0.5,18.57,3,329,-0.891,0.413,9.822,0
290,35.225,-97.424,0.4,18.2,3,329,-0.966,0.633,9.523,0
291,35.225,-97.424,0,18.011,3,329,-1.039,0.446,9.843,0
292,35.225,-97.424,0.2,17.89,3,329,-1.07,0.57,10.172,0
293,35.226,-97.424,359.9,17.811,3,329,-1.216,0.549,9.842,0
294,35.226,-97.424,0.3,17.861,3,330,-1.153,0.352,9.715,0
295,35.226,-97.424,0.7,17.92,3,330,-1.338,0.431,9.986,0
296,35.226,-97.423,0.5,17.94,3,329,-1.377,0.638,9.679,0
297,35.226,-97.423,0.3,18.13,3,329,-1.164,0.433,9.639,0
298,35.226,-97.423,0.3,18.25,3,329,-1.297,0.727,9.661,0
299,35.227,-97.423,0.3,18.41,3,329,-1.242,0.542,9.36,0
300,35.227,-97.423,0.2,18.372,3,329,-1.155,0.241,9.589,0
301,35.227,-97.423,0.5,18.6,3,329,-0.751,0.507,9.942,0
302,35.227,-97.423,0.5,18.76,3,328,-0.633,0.628,9.891,0
303,35.227,-97.423,0.4,18.57,3,329,-0.961,0.618,10.048,0
304,35.227,-97.423,0.8,18.49,3,328,-0.965,0.512,9.82,0
305,35.228,-97.423,0.7,18.13,3,328,-1.094,0.527,9.777,0
306,35.228,-97.423,0.6,18.02,3,328,-0.68,0.503,9.983,0
307,35.228,-97.423,0.5,17.881,3,328,-0.937,0.566,9.781,0
308,35.228,-97.423,0.3,17.641,4,328,-1.053,0.444,9.841,0
309,35.228,-97.423,0.3,17.46,4,328,-0.984,0.144,10.045,0
310,35.228,-97.423,359.8,17.42,3,328,-1.015,0.502,9.695,0
311,35.229,-97.423,359.2,17.41,3,328,-1.174,0.597,9.76,0
312,35.229,-97.423,359.2,17.43,3,330,-1.15,0.84,9.532,0
313,35.229,-97.423,359.9,17.44,3,330,-1.193,0.582,9.72,0
314,35.229,-97.423,0.4,17.54,3,330,-1.131,0.444,9.816,0
315,35.229,-97.423,0.5,17.66,3,330,-1.112,0.556,9.573,0
316,35.23,-97.423,0.4,17.73,3,330,-1.204,0.45,10.082,0
317,35.23,-97.423,0.4,17.83,3,330,-1.072,0.501,9.5,0
318,35.23,-97.423,0.4,17.871,3,331,-1.144,0.415,10.109,0
319,35.23,-97.423,0.6,18.05,3,331,-0.899,0.67,9.69,0
320,35.23,-97.423,0.6,18,3,332,-0.844,0.64,9.661,0
321,35.23,-97.423,0.8,17.79,3,332,-1.052,0.523,9.888,0
322,35.23,-97.423,0.8,17.71,4,333,-0.827,0.734,9.84,0
323,35.231,-97.423,0.7,17.42,4,333,-0.876,0.731,10.069,0
324,35.231,-97.423,0.8,17.13,4,332,-0.9,0.674,9.669,0
325,35.231,-97.423,1,16.94,3,333,-0.954,0.694,10.112,0
326,35.231,-97.423,1.1,16.85,3,333,-1.024,0.676,9.766,0
327,35.231,-97.423,1.2,16.83,3,333,-0.612,0.431,9.777,0
328,35.231,-97.423,1.2,16.76,4,333,-1.194,1.171,9.225,0
329,35.232,-97.423,1.2,16.6,4,334,-0.773,-0.068,9.41,0
330,35.232,-97.423,1.3,16.7,4,333,-1.396,0.46,9.713,0
331,35.232,-97.423,1.1,16.86,3,333,-1.275,-0.588,10.44,0
332,35.232,-97.423,0.9,17.05,3,332,-1.241,-0.038,9.999,0
333,35.232,-97.423,0.8,17.23,3,332,-1.463,-0.032,9.425,0
334,35.232,-97.423,0.8,17.45,3,332,-1.286,0.087,9.059,0
335,35.232,-97.423,0.6,17.731,3,332,-1.386,0.357,9.713,0
336,35.233,-97.423,0.7,18.061,3,332,-0.935,0.87,9.103,0
337,35.233,-97.423,0.6,18.141,4,332,-1.195,0.779,10.187,0
338,35.233,-97.423,0.8,17.97,4,332,-1.453,0.693,9.558,0
339,35.233,-97.423,0.4,18.01,3,333,-1.55,0.326,10.25,0
340,35.233,-97.423,0.4,18.44,3,336,-1.189,0.248,8.643,0
341,35.233,-97.423,0.2,18.97,3,335,-1.504,0.491,9.05,0
342,35.234,-97.423,0,19.61,4,334,-0.807,0.539,9.942,0
343,35.234,-97.423,359.6,19.98,3,334,-0.917,0.108,10.023,0
344,35.234,-97.423,359.2,19.82,3,335,-1.042,0.515,9.987,0
345,35.234,-97.423,358.7,19.66,3,336,-1.111,0.377,9.765,0
346,35.234,-97.423,358.5,19.78,3,336,-1.185,0.573,9.667,0
347,35.235,-97.423,358.4,19.97,3,337,-1.084,0.524,9.321,0
349,35.235,-97.423,358.6,20.22,3,337,-1.234,0.517,9.467,0
349,35.235,-97.423,358.6,20.22,3,337,-1.234,0.517,9.467,0
350,35.235,-97.423,358.4,20.43,3,337,-0.75,0.895,9.866,0
351,35.235,-97.423,358.4,20.54,3,336,-0.737,0.672,9.872,0
352,35.235,-97.423,358.6,20.31,3,336,0.074,1.147,9.678,0
353,35.235,-97.423,359.1,19.78,3,336,0.265,1.115,10.183,0
354,35.236,-97.423,359.6,18.58,3,337,-0.705,0.837,9.975,0
355,35.236,-97.423,359.6,17.24,3,337,0.18,0.991,10.533,0
356,35.236,-97.423,359.6,16.65,3,336,0.424,0.945,10.021,0
357,35.236,-97.423,359.4,15.37,3,336,-0.407,0.831,9.762,0
358,35.236,-97.424,359.2,14.05,3,336,-0.283,0.908,10.057,0
359,35.236,-97.423,359.2,13.23,3,336,-0.188,0.912,9.87,0
360,35.236,-97.423,359.7,12.77,3,336,-0.01,0.787,10.17,0
361,35.237,-97.423,359.8,11.65,3,336,0.788,0.96,10.115,0
362,35.237,-97.423,359.9,10.43,3,336,-0.291,0.556,9.823,0
363,35.237,-97.423,0.2,8.8701,3,335,0.242,1.048,10.011,0
364,35.237,-97.423,0,7.9401,3,335,-0.057,0.847,9.86,0
365,35.237,-97.423,359.8,6.59,3,335,0.639,1.045,9.828,0
366,35.237,-97.423,0.1,5.7931,3,336,0.08,0.965,9.875,0
367,35.237,-97.423,359.9,4.213,3,336,0.116,0.953,10.057,0
368,35.237,-97.423,0.3,2.9749,3,336,-0.487,0.834,9.872,0
369,35.237,-97.423,0.3,2.9749,3,336,-0.774,0.714,9.77,1
370,35.237,-97.423,0.3,2.9749,3,336,-0.901,0.652,9.834,1
371,35.237,-97.424,0,0,3,335,-1.031,0.608,9.679,1
372,35.237,-97.424,0,0,3,335,-4.568,-0.68,9.192,0
373,35.237,-97.424,359.1,2.6903,3,335,-2.728,-0.285,9.428,0
374,35.237,-97.424,1,4.83,3,335,-2.322,-0.059,9.468,0
375,35.237,-97.424,0.3,6.94,3,335,-1.83,-0.16,9.585,0
376,35.237,-97.424,359.1,8.77,3,335,-1.643,0.047,9.567,0
377,35.237,-97.424,359.5,9.82,3,335,-1.18,0.53,9.647,0
378,35.237,-97.424,359.5,10.7,3,335,-1.581,0.065,9.688,0
379,35.237,-97.424,0.4,11.8,3,335,-1.506,0.085,9.758,0
380,35.238,-97.424,359.8,13.06,3,336,-1.506,0.127,9.859,0
381,35.238,-97.424,359.5,14.02,3,335,-1.463,0.149,9.779,0
382,35.238,-97.424,359.3,14.95,3,335,-1.575,0.245,9.548,0
383,35.238,-97.424,359.2,15.78,3,335,-1.64,0.109,9.648,0
384,35.238,-97.424,359.2,16.831,3,336,-1.588,0.235,9.513,0
385,35.238,-97.424,359.3,17.95,3,336,-1.482,0.169,9.497,0
386,35.238,-97.424,359.5,18.801,3,336,-1.078,0.294,9.612,0
387,35.239,-97.424,359.3,19.69,3,336,-0.847,0.673,9.868,0
388,35.239,-97.424,359.6,19.97,3,336,-0.814,0.301,9.793,0
389,35.239,-97.424,359.8,20.19,3,336,-0.338,0.761,9.724,0
390,35.239,-97.424,359.8,20.18,3,337,-0.519,0.46,9.712,0
391,35.239,-97.424,359.6,20.151,3,337,-0.709,0.51,9.778,0
392,35.24,-97.424,359.6,20.121,3,337,-0.673,0.477,9.804,0
393,35.24,-97.424,359.4,20.143,3,337,-0.501,0.313,9.553,0
394,35.24,-97.424,359.7,20.191,3,337,-0.214,0.632,9.746,0
395,35.24,-97.424,359.4,19.981,3,337,-0.7,0.475,9.428,0
396,35.24,-97.424,359.7,19.96,3,337,-0.702,0.532,9.615,0
397,35.24,-97.424,359.6,19.95,3,337,-0.596,0.296,9.965,0
398,35.241,-97.424,359.8,20.04,3,338,-0.729,0.546,9.446,0
399,35.241,-97.424,359.7,20.17,3,337,-0.664,0.572,9.606,0
400,35.241,-97.424,359.7,20.39,3,336,-0.682,0.517,9.577,0
401,35.241,-97.424,359.7,20.62,3,336,-0.736,0.574,9.975,0
402,35.241,-97.424,359.7,20.9,4,334,-0.121,0.541,9.734,1
403,35.242,-97.424,359.6,21.06,4,333,-0.189,0.451,10.14,0
404,35.242,-97.424,359.5,20.88,3,334,-0.172,0.878,9.382,0
405,35.242,-97.424,359.5,20.71,3,335,-0.259,0.569,9.64,0
406,35.242,-97.424,359.8,20.591,3,334,-0.275,0.577,9.928,0
407,35.242,-97.424,359.6,20.552,3,335,-0.342,0.615,9.982,0
408,35.243,-97.424,359.2,20.572,3,334,-0.201,0.907,9.644,0
410,35.243,-97.424,359.4,20.661,3,333,-0.345,0.894,9.826,0
410,35.243,-97.424,359.4,20.661,3,333,-0.345,0.894,9.826,0
411,35.243,-97.424,359.4,20.603,3,333,-0.232,1.018,10.06,0
412,35.243,-97.424,359.8,20.601,3,332,-0.23,0.876,10.005,0
413,35.243,-97.424,0.2,20.341,3,332,-0.215,0.655,10.004,0
414,35.243,-97.424,0.3,20.11,3,332,-0.276,1.133,9.56,0
415,35.244,-97.424,0.6,20.05,3,333,-0.273,0.843,9.686,0
416,35.244,-97.424,0.9,19.65,3,333,-0.334,0.81,9.878,0
417,35.244,-97.424,1.3,19.49,3,333,-0.37,0.577,9.778,0
418,35.244,-97.424,1.5,19.41,3,333,-0.496,0.755,9.799,0
419,35.244,-97.423,1.3,19.38,3,333,-0.384,0.596,9.752,0
420,35.244,-97.423,1.3,19.36,3,333,-0.578,0.365,10.02,0
421,35.245,-97.423,1.5,19.49,3,334,-0.753,0.624,9.977,0
422,35.245,-97.423,1.6,19.48,3,334,-0.647,0.48,10.047,0
423,35.245,-97.423,2,19.592,3,333,-0.365,0.571,10.234,0
424,35.245,-97.423,2.3,19.641,3,333,-0.241,0.635,9.663,0
425,35.245,-97.423,2.2,19.351,3,333,-0.196,0.693,9.703,0
426,35.246,-97.423,2.2,18.771,3,334,-0.235,0.648,9.852,0
427,35.246,-97.423,2.5,18.1,3,334,-0.109,0.637,9.507,0
428,35.246,-97.423,2.2,17.65,4,334,-0.092,0.489,9.778,0
429,35.246,-97.423,2.1,17.31,4,334,-0.354,0.863,10.081,0
430,35.246,-97.423,2.3,16.7,4,334,-0.129,0.571,9.855,0
431,35.246,-97.423,2.4,16.42,4,336,0.032,0.758,9.674,0
432,35.247,-97.423,2.1,15.601,3,335,1.394,0.876,10.223,0
433,35.247,-97.423,1.5,14.061,3,334,1.478,0.948,9.855,0
434,35.247,-97.423,0.4,12.371,3,334,0.839,0.902,10.191,0
435,35.247,-97.423,359.5,10.931,3,333,1.836,1.395,10.001,0
436,35.247,-97.423,359.8,8.8813,3,333,2.11,1.41,10.068,0
437,35.247,-97.423,359.7,6.6306,3,333,1.508,1.238,10.012,0
438,35.247,-97.423,359.7,4.9805,3,333,0.562,0.942,9.887,0
439,35.247,-97.423,358.8,4.22,3,334,0.744,1.049,10.002,0
440,35.247,-97.423,358.4,3.3904,3,334,0.347,0.819,9.845,0
441,35.247,-97.423,358.3,2.6207,3,334,1.149,1.151,9.942,0
442,35.247,-97.423,354.2,1.7307,3,334,0.566,0.949,9.965,0
443,35.247,-97.423,358,0.64,3,335,0.326,0.839,9.882,0
444,35.247,-97.423,358,0.64,3,335,-0.059,0.724,9.846,1
445,35.247,-97.423,0,0,3,334,-0.043,0.731,9.792,1
446,35.247,-97.423,0,0,3,334,-0.058,0.714,9.78,1
447,35.247,-97.423,0,0,3,334,-2.591,-0.182,9.584,1
448,35.247,-97.423,0.2,1.1404,3,333,-2.737,-0.249,9.576,0
449,35.247,-97.423,359.4,4.0815,3,333,-2.249,-0.219,9.606,0
450,35.247,-97.423,358.7,6.5834,3,334,-1.879,0.002,9.7,1
451,35.247,-97.423,358.4,8.5639,3,334,-1.763,0.166,9.748,0
452,35.247,-97.423,358.1,10.523,3,334,-1.467,0.112,9.896,0
453,35.248,-97.423,358,12.094,3,333,-1.295,0.164,9.762,0
454,35.248,-97.423,357.8,13.453,3,333,-1.429,0.424,9.587,0
455,35.248,-97.423,357.8,14.702,3,332,-1.492,0.146,9.815,0
456,35.248,-97.423,357.8,15.591,3,332,-1.352,-0.082,10.069,0
457,35.248,-97.423,357.1,16.74,3,332,-0.775,0.562,9.896,0
458,35.248,-97.423,356.3,17.36,3,332,-1.006,0.498,9.788,0
459,35.248,-97.423,355.9,17.87,3,332,-1.024,0.75,10.154,0
460,35.249,-97.424,356.3,18.44,3,332,-0.996,0.746,10,0
461,35.249,-97.424,357.3,18.821,3,333,-0.736,0.717,9.922,0
462,35.249,-97.424,357.9,18.971,3,334,-0.979,0.433,9.525,0
463,35.249,-97.424,358.1,19.083,3,334,-0.949,0.518,9.855,1
464,35.249,-97.424,358.2,19.312,3,335,-0.88,0.567,9.762,0
465,35.249,-97.424,358.5,19.621,3,335,-1.087,0.332,9.74,0
466,35.25,-97.424,358.4,19.981,3,335,-0.665,0.511,9.906,0
467,35.25,-97.424,358.3,20.31,3,334,-0.515,0.625,9.551,1
469,35.25,-97.424,358.2,20.61,3,334,-0.436,0.777,9.49,0
469,35.25,-97.424,358.2,20.61,3,334,-0.436,0.777,9.49,0
470,35.25,-97.424,358.3,20.62,3,334,-0.473,0.713,9.721,0
471,35.25,-97.424,358.7,20.691,3,335,-0.462,0.765,9.516,0
472,35.251,-97.424,359,20.842,3,335,-0.511,0.765,9.787,0
473,35.251,-97.424,359.3,21.032,3,334,-0.19,0.624,10.018,0
474,35.251,-97.424,359.8,21.131,3,334,-0.149,0.544,10.037,0
475,35.251,-97.424,359.8,20.99,3,334,-0.368,0.574,9.958,0
476,35.251,-97.424,359.8,20.67,3,334,-0.518,0.563,10.096,0
477,35.252,-97.424,0,20.47,3,334,-0.388,0.63,9.849,0
478,35.252,-97.424,0,20.253,3,334,-0.571,0.473,9.917,0
479,35.252,-97.424,0.3,20.054,3,335,-0.508,0.561,9.884,0
480,35.252,-97.424,0.7,19.971,3,335,-0.692,0.583,9.648,0
481,35.252,-97.424,0,19.369,3,336,-1.056,0.701,9.67,0
482,35.252,-97.424,0.2,19.269,3,338,-0.967,0.613,9.781,0
483,35.253,-97.424,0.2,19.3,3,339,-0.979,0.573,9.793,0
484,35.253,-97.424,0.6,19.34,3,339,-0.957,0.412,9.369,0
485,35.253,-97.424,1.1,19.428,3,339,-0.925,0.374,9.361,0
486,35.253,-97.424,1.1,19.536,3,340,-0.952,0.15,9.438,0
487,35.253,-97.424,1,19.764,3,341,-0.948,0.44,9.662,0
488,35.254,-97.424,0.4,20.023,3,341,-0.949,0.347,9.724,0
489,35.254,-97.424,0.2,20.451,3,341,-0.525,0.482,9.799,0
490,35.254,-97.424,359.9,20.753,3,341,-0.433,0.628,9.772,0
491,35.254,-97.424,359.7,20.852,3,341,-0.755,0.651,9.541,0
492,35.254,-97.424,359.5,20.622,3,342,-0.357,0.547,9.27,0
493,35.255,-97.424,359.6,20.73,3,343,-0.4,0.438,9.856,1
494,35.255,-97.424,359.3,20.76,3,343,-0.462,0.567,9.889,0
495,35.255,-97.424,359,20.8,3,343,-0.347,0.559,9.757,0
496,35.255,-97.424,358.8,20.882,3,343,-0.303,0.666,9.375,0
497,35.255,-97.424,358.6,20.943,3,342,-0.74,0.52,9.566,0
498,35.256,-97.424,358.4,21.443,3,342,-0.292,0.701,9.431,0
499,35.256,-97.424,358.5,21.704,3,341,-0.255,0.813,9.602,0
500,35.256,-97.424,358.8,21.734,3,341,-0.249,1.003,9.413,0
501,35.256,-97.424,359.4,21.756,3,340,-0.286,0.707,11.106,0
502,35.256,-97.424,359.4,21.783,3,340,-0.419,0.635,9.626,0
503,35.257,-97.424,359.4,21.874,3,339,-0.634,0.6,11.005,0
504,35.257,-97.424,359.5,22.206,3,339,-0.29,1.048,9.935,0
505,35.257,-97.424,359.7,22.276,3,338,0.028,0.668,10.257,0
506,35.257,-97.424,359.7,22.255,3,337,0.007,0.839,9.726,0
507,35.257,-97.424,359.4,22.275,3,336,-0.185,0.592,10.217,0
508,35.258,-97.424,359.3,22.264,3,335,-0.155,0.603,9.298,0
509,35.258,-97.424,359,22.373,3,335,-0.126,0.72,9.79,0
510,35.258,-97.424,359.2,22.315,3,334,-0.174,0.471,9.908,0
511,35.258,-97.424,359.1,22.482,3,334,-0.133,0.762,9.613,0
512,35.258,-97.424,359.3,22.406,3,333,-0.021,0.864,9.972,0
513,35.259,-97.424,359.4,22.44,3,332,-0.253,0.729,10.076,0
514,35.259,-97.424,359.4,22.469,3,331,-0.153,0.752,9.444,0
515,35.259,-97.424,359.5,22.556,3,330,-0.172,0.688,9.707,0
516,35.259,-97.424,359.5,22.584,3,329,-0.19,0.737,9.942,0
517,35.259,-97.424,359.5,22.523,3,329,-0.208,0.8,9.543,0
518,35.26,-97.424,359.5,22.483,3,328,1.549,1.242,10.234,0
519,35.26,-97.424,359.5,21.833,3,326,1.284,1.3,10.134,0
520,35.26,-97.424,359.8,20.223,3,326,1.196,1.318,10.46,0
521,35.26,-97.424,359.5,18.95,3,326,0.997,1.027,9.971,0
522,35.26,-97.424,0.2,17.421,3,325,-0.175,0.756,9.668,0
523,35.26,-97.424,359.9,16.97,3,325,-0.171,0.531,9.54,0
524,35.261,-97.424,0.1,16.862,3,325,0.822,1.067,10.028,0
525,35.261,-97.424,0,16.481,3,324,-0.128,0.571,9.761,0
526,35.261,-97.424,0,15.761,3,323,-0.734,0.514,9.923,0
527,35.261,-97.424,359.9,15.972,3,323,-0.849,0.211,10.424,0
528,35.261,-97.424,359.7,16.442,3,322,-0.813,0.532,9.604,0
529,35.261,-97.424,359.6,16.9,3,322,-0.82,0.389,10.231,0
530,35.261,-97.424,359.5,17.401,3,319,-0.292,0.788,9.763,0
531,35.262,-97.424,359.2,17.56,3,320,-0.491,0.67,10.079,0
533,35.262,-97.424,359.3,17.44,3,320,-0.568,0.748,10.15,0
533,35.262,-97.424,359.3,17.44,3,320,-0.568,0.748,10.15,0
534,35.262,-97.424,359.4,17.48,3,320,-0.76,0.437,9.435,0
535,35.262,-97.424,0,17.6,3,321,-0.763,0.279,10.006,0
536,35.262,-97.424,0.2,17.961,3,321,-0.89,0.273,10.023,0
537,35.262,-97.424,359.9,18.49,3,321,-0.969,0.453,9.741,0
538,35.263,-97.424,359.6,19.02,3,321,-0.999,0.499,9.868,0
539,35.263,-97.424,359.3,19.64,3,321,-0.941,0.386,9.911,0
540,35.263,-97.424,359.4,20.261,3,320,-0.589,0.593,9.565,0
541,35.263,-97.424,359.4,20.921,3,319,-0.598,0.582,9.894,0
542,35.263,-97.424,359.6,21.322,3,318,-0.804,0.575,10.309,0
543,35.264,-97.424,0,21.651,3,318,-0.942,0.651,9.786,0
544,35.264,-97.424,0.7,22.06,3,317,-0.864,0.407,9.924,0
545,35.264,-97.424,1.2,22.46,3,317,-0.299,0.233,10.343,0
546,35.264,-97.424,1.5,22.73,3,317,-0.59,0.32,9.826,0
547,35.264,-97.424,0.5,22.69,3,318,-0.506,0.101,9.97,0
548,35.265,-97.424,0,22.81,3,318,-0.769,0.296,9.825,0
549,35.265,-97.424,359.7,22.99,3,318,-0.82,0.479,9.894,0
550,35.265,-97.424,359.4,23.242,3,319,-0.849,0.588,9.589,0
551,35.265,-97.424,359.4,23.423,3,319,-0.78,0.503,8.814,0
552,35.265,-97.424,359.3,23.495,3,318,-0.723,0.695,9.596,0
553,35.266,-97.424,359.6,23.544,3,320,-0.176,0.59,9.651,0
554,35.266,-97.424,359.8,23.344,3,320,-0.35,0.436,9.352,0
555,35.266,-97.424,0.3,22.872,3,320,-0.492,0.419,9.215,0
556,35.266,-97.424,0.3,22.541,3,320,-0.416,0.16,9.297,0
557,35.267,-97.424,359.8,22.52,3,320,-0.392,0.37,9.503,1
558,35.267,-97.424,359.8,22.651,3,320,-0.37,0.518,10.07,0
559,35.267,-97.424,359.8,22.831,3,320,-0.429,0.337,9.96,0
560,35.267,-97.424,359.9,22.961,3,319,-0.355,0.529,9.97,0
561,35.267,-97.424,0,22.93,3,320,-0.201,0.517,10.224,0
562,35.268,-97.424,359.8,22.71,3,319,-0.24,0.19,9.886,0
563,35.268,-97.424,0,22.5,3,319,-0.429,0.543,9.955,0
564,35.268,-97.424,0,22.261,3,320,-0.333,0.833,9.274,0
565,35.268,-97.424,0.1,22.111,3,320,-0.312,0.501,9.589,0
566,35.268,-97.424,0.5,21.861,3,320,-0.417,0.404,9.737,0
567,35.269,-97.424,0.3,21.502,3,321,-0.453,0.591,9.559,0
568,35.269,-97.424,0,21.293,3,321,-0.554,0.535,9.417,0
569,35.269,-97.424,0.5,21.22,3,321,-0.499,0.34,10.108,0
570,35.269,-97.424,0.4,21.24,3,321,-0.469,0.56,9.312,0
571,35.269,-97.424,0,21.38,3,321,-0.623,0.623,9.818,0
572,35.27,-97.424,359.8,21.641,3,321,-0.301,0.608,10.014,0
573,35.27,-97.424,359.7,21.802,3,320,-0.282,0.646,9.788,0
574,35.27,-97.424,359.5,21.84,3,320,-0.334,0.573,10.228,0
575,35.27,-97.424,359.4,21.98,3,320,-0.116,0.702,9.8,0
576,35.27,-97.424,359.9,22.027,3,319,-0.229,0.896,9.663,0
577,35.271,-97.424,359.9,22.137,3,318,-0.015,0.759,9.989,0
578,35.271,-97.424,359.5,22.133,3,317,-0.09,0.772,9.38,0
579,35.271,-97.424,0,22.494,3,315,-0.208,0.815,9.57,0
580,35.271,-97.424,0.1,22.666,3,314,-0.17,0.736,10.042,0
581,35.271,-97.424,0,23.018,3,312,-0.179,0.837,9.309,0
582,35.272,-97.424,0.3,23.108,3,310,-0.099,0.861,10.06,0
583,35.272,-97.424,0.4,23.345,3,308,-0.143,0.618,9.9,0
584,35.272,-97.424,0.4,23.47,3,306,-0.047,0.429,9.809,0
585,35.272,-97.424,0.2,23.699,3,306,-0.207,0.541,10.188,0
586,35.272,-97.424,359.9,23.768,3,305,-0.022,0.704,9.753,0
587,35.273,-97.424,359.7,23.853,3,304,-0.086,0.404,10.418,0
588,35.273,-97.424,359.4,23.77,3,304,-0.316,0.762,9.948,0
589,35.273,-97.424,359.6,23.581,3,303,-0.21,0.598,10.189,0
590,35.273,-97.424,359.6,23.341,3,302,-0.173,0.975,10.172,0
591,35.274,-97.424,359.7,23,3,303,-0.177,0.999,10.03,0
592,35.274,-97.424,359.8,22.59,3,303,-0.343,0.781,10.162,0
593,35.274,-97.424,0.2,22.201,3,303,-0.144,0.926,9.205,0
594,35.274,-97.424,0.3,21.781,3,303,-0.255,0.868,10.034,0
595,35.274,-97.424,0.3,21.45,3,303,-0.178,0.47,10.142,0
597,35.275,-97.424,0.5,21.15,3,303,1.212,1.228,9.131,0
597,35.275,-97.424,0.5,21.15,3,303,1.212,1.228,9.131,0
598,35.275,-97.424,0.9,20.29,3,302,1.251,1.152,9.745,0
599,35.275,-97.424,0.8,18.692,3,301,1.3,0.927,10.024,0
600,35.275,-97.424,0.8,17.116,3,301,1.519,1.271,10.417,0
601,35.275,-97.424,0.7,15.451,3,301,1.7,1.39,10.196,0
602,35.275,-97.424,0.9,13.461,3,300,1.872,1.422,10.212,0
603,35.275,-97.424,1.6,11.231,3,300,0.194,0.636,9.924,0
604,35.275,-97.424,1.4,9.4802,3,300,0.043,0.686,9.959,0
605,35.276,-97.424,1.4,8.8201,3,300,0.453,0.94,9.741,0
606,35.276,-97.424,1.4,8.2,3,300,0.33,0.864,9.824,0
607,35.276,-97.424,1.2,7.24,3,300,0.332,0.785,9.877,0
608,35.276,-97.424,1.2,6.3005,3,300,0.079,0.79,9.915,0
609,35.276,-97.424,0.8,5.5001,3,299,0.019,0.795,9.777,0
610,35.276,-97.424,359.6,4.9001,3,300,0.028,0.742,9.616,0
611,35.276,-97.424,359.3,4.3102,3,300,0.079,0.765,9.941,0
612,35.276,-97.424,0.3,3.7201,3,301,0.022,0.73,9.912,0
613,35.276,-97.424,0.3,3.1223,3,300,0.262,0.814,9.88,0
614,35.276,-97.424,0.8,2.5002,3,300,-0.243,0.646,9.869,0
615,35.276,-97.424,1,1.69,3,301,-0.18,0.572,9.901,0
616,35.276,-97.424,1.1,1.2804,3,301,0.274,0.836,9.911,0
617,35.276,-97.424,1.1,1.2804,3,301,-0.412,0.615,9.937,1
618,35.276,-97.424,1.1,1.2804,3,301,-0.487,0.545,9.863,1
619,35.276,-97.424,1.1,1.2804,3,301,-0.479,0.562,9.786,1
620,35.276,-97.424,1.1,1.2804,3,301,-0.475,0.568,9.771,1
621,35.276,-97.424,1.1,1.2804,3,301,-0.472,0.564,9.732,1
622,35.276,-97.424,1.1,1.2804,3,301,-0.497,0.552,9.741,1
623,35.276,-97.424,1.1,1.2804,3,301,-0.466,0.552,9.878,1
624,35.276,-97.424,1.1,1.2804,3,301,-0.463,0.533,9.77,1
625,35.276,-97.424,0,0,3,303,-0.731,0.466,9.807,1
626,35.276,-97.424,0,0,3,303,-0.859,0.416,9.773,1
627,35.276,-97.424,0,0,3,303,-2.169,0.002,9.669,1
628,35.276,-97.424,357.9,1.5938,3,303,-1.897,0.051,9.79,0
629,35.276,-97.424,0.4,3.24,3,304,-2.084,-0.152,9.613,1
630,35.276,-97.424,0,4.83,3,304,-1.951,-0.236,9.635,0
631,35.276,-97.424,0.3,6.44,3,303,-1.626,0.136,9.965,0
632,35.276,-97.424,359.4,7.7313,3,302,-1.642,0.21,9.734,0
633,35.276,-97.424,359.5,8.8404,3,302,-1.712,0.388,9.855,0
634,35.276,-97.424,359.8,9.9801,3,303,-1.548,-0.066,9.536,0
635,35.276,-97.424,359.7,11.17,3,302,-1.897,0.025,9.878,0
636,35.277,-97.424,359.8,12.501,3,302,-1.912,0.122,9.509,0
637,35.277,-97.424,359.3,13.81,3,302,-1.913,0.023,9.596,0
638,35.277,-97.424,359.1,15.19,3,302,-1.923,0.086,9.386,0
639,35.277,-97.424,359.1,16.481,3,301,-1.9,0.07,9.501,0
640,35.277,-97.424,359,17.761,3,304,-1.587,0.371,10.195,0
641,35.277,-97.424,359.3,18.801,3,303,-1.077,0.26,9.533,0
642,35.278,-97.424,359.6,19.432,3,304,-1.15,0.205,9.933,0
643,35.278,-97.424,359.6,19.914,3,304,-1.277,0.179,9.845,0
644,35.278,-97.424,0.1,20.465,3,304,-1.13,0.194,9.575,0
645,35.278,-97.424,359.9,20.838,3,304,-1.061,0.456,9.405,0
646,35.278,-97.424,359.9,21.197,3,305,-1.332,0.277,9.699,0
647,35.278,-97.424,0.1,21.499,3,306,-1.22,0.188,9.746,0
648,35.279,-97.424,0.1,21.849,3,307,-0.8,0.427,9.702,0
649,35.279,-97.424,0.1,21.618,3,308,-0.938,0.167,10.004,0
650,35.279,-97.424,0,21.626,3,310,-1.012,0.603,9.773,0
651,35.279,-97.424,359.9,21.57,3,309,-1.051,0.56,9.649,0
652,35.279,-97.424,0.2,21.649,3,310,-0.957,0.269,10.178,0
653,35.28,-97.424,0.5,21.953,3,310,-1.008,0.124,9.51,1
654,35.28,-97.424,0.3,22.213,3,311,-0.753,0.44,9.717,0
655,35.28,-97.424,0.3,22.601,3,311,-0.664,0.159,9.619,0
656,35.28,-97.424,0.3,22.82,3,312,-0.715,0.251,9.876,0
657,35.28,-97.424,0.1,23.12,3,312,-0.247,0.357,10.131,0
658,35.281,-97.424,359.9,23.18,3,312,-0.381,0.563,10.138,0
659,35.281,-97.424,359.7,22.99,3,312,-0.489,0.637,9.895,0
660,35.281,-97.424,359.8,22.92,3,313,-0.274,0.446,9.825,0
661,35.281,-97.424,359.8,22.88,3,313,-0.175,0.607,9.725,0
662,35.281,-97.424,359.9,22.56,3,314,-0.199,0.696,9.964,0
663,35.282,-97.424,359.9,22.18,3,314,-0.311,0.571,10.168,0
665,35.282,-97.424,0.1,21.81,3,315,-0.628,0.234,9.046,0
665,35.282,-97.424,0.1,21.81,3,315,-0.628,0.234,9.046,0
666,35.282,-97.424,0.1,21.78,3,315,-0.831,0.35,9.788,0
667,35.282,-97.424,0.1,22.1,3,314,-0.713,0.507,9.729,0
668,35.282,-97.424,0.1,22.41,9,314,-0.676,0.423,9.994,0
669,35.283,-97.424,0,22.62,9,314,-0.263,0.598,9.618,0
670,35.283,-97.424,0,22.79,9,314,-0.457,0.652,9.976,0
671,35.283,-97.424,359.9,22.64,9,314,-0.493,0.501,9.552,0
672,35.283,-97.424,359.8,22.581,9,315,-0.367,0.467,9.771,0
673,35.283,-97.424,0.1,22.44,9,314,-0.467,0.561,9.506,0
674,35.284,-97.424,0.2,22.4,9,314,-0.471,0.401,9.86,0
