time,lat,lng,bearing,spd,acc,alt,accx,accy,accz,stable,
0,35.25,-97.424,359,22.26,3,343,-0.724,-0.134,9.769,0
1,35.25,-97.424,359.3,22.241,3,343,-0.632,-0.238,9.539,0
2,35.251,-97.424,359.2,22.471,3,342,-0.287,-0.008,10.017,0
3,35.251,-97.424,359.4,22.75,3,343,-0.181,-0.156,10.26,0
4,35.251,-97.424,359.4,22.75,3,343,-0.604,-0.46,10.531,0
5,35.251,-97.424,359.5,22.42,3,342,-0.632,-0.15,9.945,0
6,35.251,-97.424,359.6,22.68,3,341,-0.28,-0.179,10.163,0
7,35.252,-97.424,359.6,22.491,3,341,-0.714,-0.127,9.726,0
8,35.252,-97.424,359.4,22.03,3,341,-0.659,0.102,9.88,0
9,35.252,-97.424,359.5,21.821,3,341,-0.42,0.081,10.017,0
10,35.252,-97.424,359.9,21.388,3,342,-0.384,0.067,10.114,0
11,35.252,-97.424,0.2,20.564,3,342,-0.338,0.21,10.102,0
12,35.252,-97.424,0.6,19.793,3,343,-0.278,0.095,9.67,0
13,35.253,-97.424,0.9,19.107,3,343,0.467,0.198,10.064,0
14,35.253,-97.424,0.9,18.223,3,343,0.647,0.574,9.583,0
15,35.253,-97.424,0.8,16.956,3,343,-0.211,-0.08,9.365,0
16,35.253,-97.424,1,15.444,3,342,-0.814,-0.337,9.351,0
17,35.253,-97.424,1.2,14.772,3,342,-0.841,-0.416,9.442,1
18,35.253,-97.424,0.9,14.531,3,342,-0.954,-0.274,9.849,0
19,35.253,-97.424,0.5,14.521,3,343,-0.243,-0.064,9.479,0
20,35.254,-97.424,0.1,14.511,3,343,-0.724,-0.07,9.584,0
21,35.254,-97.424,359.9,14.223,3,344,-0.21,-0.021,9.393,1
22,35.254,-97.424,359.9,13.801,3,344,-0.889,-0.1,9.958,1
23,35.254,-97.424,0,13.744,3,344,-0.593,-0.19,9.606,1
24,35.254,-97.424,0,13.692,3,345,-0.797,-0.222,9.556,0
25,35.254,-97.424,359.8,13.771,3,345,-0.896,-0.147,9.376,1
26,35.254,-97.424,359.7,13.82,3,345,-1.077,-0.078,9.57,0
27,35.254,-97.424,359.5,13.99,3,346,-1.344,-0.347,9.734,0
28,35.255,-97.424,359.5,14.5,3,346,-1.404,-0.274,9.417,0
29,35.255,-97.424,359.4,15.34,3,346,-1.273,-0.525,9.51,1
30,35.255,-97.424,359.3,16.23,3,346,-1.26,-0.329,9.071,0
31,35.255,-97.424,358.9,17.15,3,346,-1.258,-0.416,9.495,1
32,35.255,-97.424,358.6,18.111,3,346,-1.215,-0.252,9.308,1
33,35.255,-97.424,358.5,19.091,3,346,-1.254,-0.262,9.462,0
35,35.256,-97.424,358.5,20.241,3,346,-0.506,0.131,10.038,0
36,35.256,-97.424,358.7,21.131,3,345,-0.635,0.036,9.145,0
37,35.256,-97.424,359.2,21.641,3,345,-0.77,-0.245,10.747,0
38,35.256,-97.424,359.5,21.99,3,344,-0.317,0.13,10.025,0
39,35.257,-97.424,359.5,22.075,3,343,-0.31,0.409,10,0
40,35.257,-97.424,359.4,22.214,3,342,-0.138,0.087,10.152,0
41,35.257,-97.424,359.3,22.372,3,342,-0.594,-0.079,9.765,0
42,35.257,-97.424,359.4,22.634,3,341,-0.338,0.313,9.977,0
43,35.257,-97.424,359.8,22.684,3,339,-0.18,0.088,9.838,0
44,35.258,-97.424,359.8,22.505,3,338,-0.131,-0.017,9.669,0
45,35.258,-97.424,359.6,22.416,3,337,0.004,-0.181,9.493,0
46,35.258,-97.424,359.3,22.611,3,337,-0.107,0.024,9.866,0
47,35.258,-97.424,359.2,22.336,3,336,-0.311,0.111,9.612,0
48,35.258,-97.424,359.2,22.307,3,334,-0.268,0.068,9.789,0
49,35.259,-97.424,359.3,22.427,3,333,-0.223,0.1,9.77,0
50,35.259,-97.424,359.4,22.476,3,332,-0.214,-0.025,9.765,0
51,35.259,-97.424,359.3,22.762,3,332,-0.216,0.223,9.983,0
52,35.259,-97.424,359.3,22.454,3,331,-0.258,0.166,9.746,0
53,35.259,-97.424,359.4,22.324,3,330,-0.326,0.241,9.961,0
54,35.26,-97.424,359.5,22.174,3,329,0.892,0.541,10.208,0
55,35.26,-97.424,359.9,21.743,3,329,0.803,0.632,9.887,0
56,35.26,-97.424,0.2,20.293,3,328,-0.287,0.04,10.065,0
57,35.26,-97.424,0.6,19.452,3,328,-0.157,0.055,9.769,0
58,35.26,-97.424,0.7,19.343,3,328,1.431,0.624,9.742,0
59,35.261,-97.424,0.5,18.324,3,327,1.523,0.573,10.161,0
60,35.261,-97.424,0.3,16.82,3,327,-0.148,-0.01,9.87,0
61,35.261,-97.424,359.9,15,3,327,0.225,0.045,9.957,0
62,35.261,-97.424,359.6,14.61,3,327,1.213,0.495,10.173,0
63,35.261,-97.424,359.7,13.101,3,326,1.017,0.393,10.193,0
64,35.261,-97.424,0,11.45,3,326,1.185,0.408,10.27,0
65,35.261,-97.424,0.1,10.11,3,326,0.933,0.358,10.071,0
66,35.261,-97.424,359.9,8.4201,3,325,0.684,0.584,9.906,0
67,35.261,-97.424,359.4,7.0602,3,325,0.502,0.353,9.861,0
68,35.261,-97.424,359.4,5.9002,3,325,0.59,0.447,9.852,0
69,35.261,-97.424,359.6,4.74,3,325,1.103,0.654,9.741,0
70,35.261,-97.424,359.7,3.2,3,325,-0.159,0.134,9.689,1
71,35.261,-97.424,359.7,2.0002,3,325,-0.069,0.105,9.771,0
72,35.262,-97.424,359.7,1.5103,3,325,0.114,0.213,9.881,1
73,35.262,-97.424,359.7,1.5103,3,325,-0.02,0.185,9.699,1
74,35.262,-97.424,359.8,0.23,3,326,-0.521,-0.054,9.686,1
75,35.262,-97.424,359.8,0.23,3,326,-0.562,-0.054,9.732,1
76,35.262,-97.424,359.8,0.23,3,326,-0.515,-0.091,9.748,1
77,35.262,-97.424,359.8,0.23,3,326,-0.551,-0.068,9.781,1
78,35.262,-97.424,359.8,0.23,3,326,-0.555,-0.066,9.651,1
79,35.262,-97.424,359.8,0.23,3,326,-1.029,-0.252,9.529,1
80,35.262,-97.424,359.8,0.23,3,326,-2.297,-0.773,9.316,1
81,35.262,-97.424,359.8,0.23,3,326,-2.774,-0.884,9.441,1
82,35.262,-97.424,359.9,3.3,3,325,-3.01,-1.052,9.438,1
83,35.262,-97.424,359.9,5.3809,3,325,-3.076,-1.203,9.019,0
84,35.262,-97.424,0,8.1102,3,325,-1.776,-0.598,9.478,0
85,35.262,-97.424,359.9,10.061,3,325,-1.938,-0.82,9.484,1
86,35.262,-97.424,359.6,11.61,3,325,-1.814,-0.75,9.578,0
87,35.262,-97.424,359.5,13.19,3,325,-1.848,-0.58,9.553,0
88,35.262,-97.424,359.4,14.65,3,325,-1.417,-0.315,9.381,0
89,35.262,-97.424,359.6,16.001,3,324,-1.309,-0.63,9.671,1
90,35.262,-97.424,359.6,16.572,3,324,-1.448,-0.559,9.183,0
91,35.263,-97.424,359.6,17.701,3,324,-1.52,-0.574,9.628,0
92,35.263,-97.424,359.5,18.731,3,323,-1.355,-0.432,9.55,0
93,35.263,-97.424,359.2,19.762,3,323,-0.324,-0.018,9.388,1
94,35.263,-97.424,359.1,20.764,3,323,-0.855,0.185,10.09,0
95,35.263,-97.424,359.2,21.213,3,322,-0.812,0.007,9.748,0
96,35.264,-97.424,359.5,21.722,4,322,-0.949,0.065,10.177,0
97,35.264,-97.424,0.7,22.38,3,322,-0.895,0.269,9.6,0
99,35.264,-97.424,1.3,22.843,3,322,-0.774,-0.322,9.556,0
100,35.264,-97.424,1.6,23.167,3,322,-0.788,-0.48,9.592,0
101,35.264,-97.424,1.4,22.902,3,322,-0.691,-0.636,9.797,0
102,35.265,-97.424,0.3,23.193,3,322,-0.852,-0.401,9.967,0
103,35.265,-97.424,0.7,23.517,4,322,-0.813,-0.315,10.101,0
104,35.265,-97.424,0.6,23.745,3,323,-0.901,-0.171,9.701,0
105,35.265,-97.424,0.3,23.897,3,324,-1.015,-0.121,9.617,0
106,35.265,-97.424,359.9,23.991,3,325,-1.07,0.196,9.842,0
107,35.266,-97.424,0,23.903,3,326,-0.865,-0.183,9.436,0
108,35.266,-97.424,359.3,23.825,3,328,-0.873,-0.129,9.371,1
109,35.266,-97.424,0,24.202,3,331,-0.743,-0.552,9.344,1
110,35.266,-97.424,0.7,24.359,3,332,-0.787,-0.284,9.499,0
111,35.267,-97.424,0,24.661,3,333,-0.76,-0.145,9.296,1
112,35.267,-97.424,0,24.988,3,332,-0.728,-0.401,9.43,0
113,35.267,-97.424,0,25.437,3,332,-0.63,-0.171,9.858,0
114,35.267,-97.424,0.2,25.82,3,333,-0.577,-0.384,9.599,0
115,35.268,-97.424,0.2,26.04,4,334,-0.77,-0.134,9.842,0
116,35.268,-97.424,359.9,26.179,3,335,-0.686,-0.221,9.856,0
117,35.268,-97.424,359.9,26.131,4,336,-0.737,-0.208,9.448,0
118,35.268,-97.424,359.7,26.002,8,337,-0.669,-0.299,9.683,0
119,35.269,-97.424,359.7,25.649,9,337,-0.302,0.162,9.116,0
120,35.269,-97.424,359.9,25.077,9,337,-0.476,-0.031,9.626,0
121,35.269,-97.424,0.2,24.825,10,338,-0.466,-0.214,9.768,0
122,35.269,-97.424,0.2,24.694,9,338,-0.63,-0.265,10.06,0
123,35.269,-97.424,359.8,24.678,8,337,-0.447,-0.086,9.443,1
124,35.27,-97.424,359.5,24.756,3,338,-0.616,-0.131,9.371,0
125,35.27,-97.424,0,23.931,3,329,-0.607,-0.142,9.352,0
126,35.27,-97.424,0,24.157,3,328,-0.479,0.079,9.431,0
127,35.27,-97.424,0,24.433,3,326,-0.178,-0.135,9.524,0
128,35.27,-97.424,0,24.566,3,325,-0.216,0.226,9.444,0
129,35.271,-97.424,0,24.74,3,323,-0.24,0.093,9.355,0
130,35.271,-97.424,0,24.845,3,322,-0.373,0.229,9.342,0
131,35.271,-97.424,0.2,25.079,3,321,-0.094,0.04,9.47,0
132,35.271,-97.424,0.4,25.2,3,317,-0.379,0.002,9.684,0
133,35.272,-97.424,0.4,25.293,3,316,0.051,-0.101,9.676,0
134,35.272,-97.424,0.4,25.43,3,315,-0.163,0.196,9.578,0
135,35.272,-97.424,0.4,25.537,3,314,-0.206,-0.124,9.638,0
136,35.272,-97.424,0.1,25.535,4,313,-0.305,-0.063,9.726,0
137,35.272,-97.424,359.9,25.598,3,312,-0.283,0.053,9.883,0
138,35.273,-97.424,359.8,25.593,3,311,-0.247,0.068,9.953,0
139,35.273,-97.424,359.5,25.555,3,310,-0.164,0.175,10.171,0
140,35.273,-97.424,359.4,25.362,3,310,-0.235,-0.021,10.253,0
141,35.273,-97.424,359.4,25,3,310,-0.346,0.435,9.719,0
142,35.274,-97.424,359.7,24.451,4,309,-0.276,0.371,10.037,0
143,35.274,-97.424,0,23.942,3,310,-0.363,0.185,9.562,0
144,35.274,-97.424,0.1,23.453,3,310,1.279,0.877,9.52,1
145,35.274,-97.424,0.7,22.491,3,310,1.521,0.221,8.91,0
146,35.274,-97.424,0.6,21.081,3,310,0.144,-0.635,10.385,0
147,35.275,-97.424,0.4,19.721,3,310,-0.854,0.01,9.177,0
148,35.275,-97.424,0.6,19.88,3,310,-0.93,-0.134,9.643,1
149,35.275,-97.424,1.2,20.304,3,309,-0.515,-0.094,10.369,0
150,35.275,-97.424,1.3,20.521,3,309,-0.411,0.172,10.173,0
151,35.275,-97.424,1.4,20.201,3,308,-0.29,0.018,9.749,0
152,35.275,-97.424,1.2,19.91,3,308,-0.247,-0.137,9.606,0
153,35.276,-97.424,0.9,19.52,3,308,-0.147,-0.123,9.648,0
154,35.276,-97.424,0.4,19.11,3,307,-0.186,-0.2,9.657,0
155,35.276,-97.424,0.2,18.761,3,307,-0.197,-0.185,9.755,0
157,35.276,-97.424,359.8,18.43,3,307,1.217,0.742,10.331,0
158,35.276,-97.424,359.8,17.39,4,307,-0.404,0.149,10.154,0
159,35.276,-97.424,0.1,16.21,3,307,-0.848,-0.327,9.582,0
160,35.277,-97.424,0,15.78,3,307,-0.89,-0.489,9.84,0
161,35.277,-97.424,359.4,15.97,3,307,-1.593,-0.502,9.476,0
162,35.277,-97.424,359.4,15.97,3,307,-1.553,-0.588,9.507,0
163,35.277,-97.424,359.4,16.58,4,307,-1.641,-0.584,9.428,0
164,35.277,-97.424,358.9,18.31,3,307,-1.758,-0.663,9.603,0
165,35.278,-97.424,359.1,19.11,3,308,-1.895,-0.515,9.497,0
166,35.278,-97.424,359.7,20.061,3,308,-2.003,-0.409,9.323,0
167,35.278,-97.424,359.7,21.217,3,310,-1.991,-0.696,9.642,0
168,35.278,-97.424,359.6,22.245,3,313,-1.917,-0.619,9.435,0
169,35.278,-97.424,0.1,22.941,3,313,-1.094,-0.236,9.419,0
170,35.279,-97.424,0.2,23.149,3,314,-0.772,-0.407,9.789,0
171,35.279,-97.424,0.1,23.149,3,314,-0.744,-0.511,9.731,0
172,35.279,-97.424,0.1,23.078,3,314,-0.768,-0.555,9.933,0
173,35.279,-97.424,359.9,23.009,3,315,-0.853,-0.423,9.74,0
174,35.279,-97.424,359.9,22.875,4,316,-0.837,-0.16,9.522,0
175,35.28,-97.424,0,22.972,3,316,-0.922,-0.248,9.106,1
176,35.28,-97.424,0.2,23.07,4,316,-0.81,-0.38,9.223,1
177,35.28,-97.424,0.2,22.92,3,316,-0.855,-0.22,9.67,0
178,35.28,-97.424,0.4,23.06,3,316,-0.517,-0.087,9.738,1
179,35.28,-97.424,0.4,22.991,3,316,-0.593,-0.4,9.489,0
180,35.281,-97.424,0.1,23.1,3,316,-0.646,-0.37,9.634,0
181,35.281,-97.424,0,23.28,3,315,-0.582,-0.477,9.973,0
182,35.281,-97.424,0.1,23.47,4,316,-0.298,-0.045,9.271,0
183,35.281,-97.424,0.2,23.35,3,316,-0.407,-0.328,9.453,0
184,35.281,-97.424,0.1,23.18,3,317,-0.485,-0.409,9.791,0
185,35.282,-97.424,359.9,23.1,3,317,-0.562,-0.27,9.317,0
186,35.282,-97.424,359.8,23.03,3,318,-0.429,-0.017,9.172,0
187,35.282,-97.424,359.9,22.95,3,318,-0.573,-0.202,9.953,0
188,35.282,-97.424,0.1,22.89,3,318,-0.606,-0.235,9.626,0
189,35.282,-97.424,0.3,22.91,3,318,-0.578,-0.17,9.687,0
190,35.283,-97.424,0.2,22.97,3,318,-0.529,-0.329,9.408,0
191,35.283,-97.424,0.1,23.07,3,317,-0.58,-0.24,9.847,0
192,35.283,-97.424,0,23.04,3,318,-0.518,-0.189,9.176,0
193,35.283,-97.424,359.9,22.99,3,317,-0.682,-0.187,9.861,0
194,35.284,-97.424,0,22.96,3,318,-0.535,0.036,9.688,0
195,35.284,-97.424,0.1,22.88,3,318,-0.447,-0.114,9.161,0
196,35.284,-97.424,0.3,22.831,4,318,-0.572,-0.131,9.855,1
197,35.284,-97.424,0.2,22.953,3,318,-0.588,-0.096,9.661,0
198,35.284,-97.424,0.1,23.153,3,317,-0.594,-0.061,9.513,0
199,35.285,-97.424,0.2,23.404,3,317,-0.698,-0.222,9.294,0
200,35.285,-97.424,0.1,23.563,3,317,-0.706,-0.101,9.418,0
201,35.285,-97.424,0.1,23.673,4,316,-0.506,-0.245,9.533,0
202,35.285,-97.424,0,23.783,3,315,-0.586,-0.081,9.608,0
203,35.285,-97.424,0,23.934,3,315,-0.59,0.094,9.637,0
204,35.286,-97.424,0.5,24.023,3,315,-0.432,-0.166,9.552,0
205,35.286,-97.424,0.2,24.144,3,315,-0.442,-0.196,9.579,0
206,35.286,-97.424,0.1,24.313,3,314,-0.675,-0.159,9.617,0
207,35.286,-97.424,359.9,24.45,3,315,-0.606,-0.07,9.85,0
208,35.287,-97.424,359.9,24.51,3,314,-0.536,-0.081,9.88,0
209,35.287,-97.424,359.9,24.44,3,314,-0.568,-0.411,10.459,0
210,35.287,-97.424,359.9,24.341,3,314,-0.197,0.119,9.458,0
211,35.287,-97.424,359.7,24.134,3,315,-0.352,0.088,9.976,0
212,35.287,-97.424,0,23.655,3,314,-0.31,-0.167,9.625,0
213,35.288,-97.424,0.2,23.063,3,315,-0.175,-0.207,9.827,0
214,35.288,-97.424,359.9,22.584,3,315,-0.234,-0.132,9.888,0
216,35.288,-97.424,359.8,22.134,4,316,-0.25,-0.057,10.077,0
217,35.288,-97.424,359.9,21.704,3,316,-0.325,0.009,9.803,0
218,35.288,-97.424,0,21.255,3,317,-0.309,0,9.809,0
219,35.289,-97.424,0.1,20.736,3,317,-0.298,-0.149,9.889,0
220,35.289,-97.424,0.1,20.204,3,317,-0.301,-0.109,9.939,0
221,35.289,-97.424,0.1,19.694,3,318,-0.251,0.049,9.564,0
222,35.289,-97.424,0.1,19.125,4,318,0.939,0.576,9.965,0
223,35.289,-97.424,0.2,17.835,3,318,1.003,0.684,10.185,0
224,35.289,-97.424,0.4,16.14,3,318,-0.258,0.001,9.728,0
225,35.29,-97.424,1,15.058,3,319,0.531,0.379,10.086,0
226,35.29,-97.424,1.7,12.877,3,319,0.451,0.187,9.571,0
227,35.29,-97.424,1.5,12.158,3,320,-0.351,-0.095,9.947,0
228,35.29,-97.424,1.2,11.729,3,321,-0.237,-0.121,9.639,0
229,35.29,-97.424,0.7,11.292,3,321,-0.226,0,9.644,0
230,35.29,-97.424,0.3,10.684,3,322,0.46,0.434,9.926,0
231,35.29,-97.424,0.2,9.61,3,322,-0.422,-0.02,9.356,1
232,35.29,-97.424,0.2,9.2807,3,323,-0.596,-0.061,9.804,1
233,35.29,-97.424,0.2,8.6907,3,324,-1.034,-0.358,9.682,0
234,35.291,-97.424,0,9.0081,3,324,-1.499,-0.462,9.704,0
235,35.291,-97.424,0.2,9.5347,4,325,-1.389,-0.492,9.639,0
236,35.291,-97.424,0.4,10.1,3,325,-1.292,-0.335,9.471,0
237,35.291,-97.424,0.3,10.395,3,325,-1.499,-0.405,9.375,0
238,35.291,-97.424,0.3,10.942,3,325,-1.498,-0.608,9.549,0
239,35.291,-97.424,0.3,11.74,3,324,-1.76,-0.816,9.764,1
240,35.291,-97.424,0,12.83,3,325,-1.681,-0.678,9.397,0
241,35.291,-97.424,359.4,13.94,4,325,-1.632,-0.76,9.626,0
242,35.291,-97.424,358.7,15.091,3,325,-1.505,-0.584,9.656,0
243,35.292,-97.424,358.1,16.16,3,326,-1.527,-0.636,9.816,1
244,35.292,-97.424,358.3,17.08,3,327,-1.536,-0.004,9.375,0
245,35.292,-97.424,359.2,17.88,3,327,-1.392,-0.334,9.598,0
246,35.292,-97.424,359.8,18.68,3,327,-0.884,-0.324,9.735,0
247,35.292,-97.424,0.1,18.99,3,326,-0.91,-0.244,9.524,0
248,35.292,-97.424,0,19,3,326,-0.934,-0.221,9.301,0
249,35.293,-97.424,359.9,19.61,3,327,-0.95,-0.447,9.587,0
250,35.293,-97.424,0.4,20.1,3,326,-0.914,-0.695,9.852,0
251,35.293,-97.424,0,20.53,3,326,-0.886,-0.438,9.436,0
252,35.293,-97.424,0,20.89,3,326,-1.152,-0.548,9.517,0
253,35.293,-97.424,0,21.33,3,326,-1.167,-0.384,9.521,0
254,35.293,-97.424,0,21.8,3,327,-0.87,-0.637,9.359,0
255,35.294,-97.424,0.1,22.13,3,327,-0.678,-0.465,9.978,0
256,35.294,-97.424,359.9,22.22,4,327,-0.915,-0.401,9.577,0
257,35.294,-97.424,0,22.45,3,327,-0.665,-0.302,9.511,0
258,35.294,-97.424,0.2,22.631,3,328,-0.432,-0.25,9.363,0
259,35.294,-97.424,0.3,22.721,3,328,-0.798,-0.365,9.691,0
260,35.295,-97.424,0.1,22.692,3,329,-0.667,-0.4,9.33,0
261,35.295,-97.424,0.1,22.662,4,329,-0.862,-0.314,9.293,0
262,35.295,-97.424,0.2,22.722,3,329,-0.849,-0.416,9.825,0
263,35.295,-97.424,0.2,22.762,3,329,-0.734,-0.395,9.596,0
264,35.295,-97.424,0.1,22.802,3,330,-0.522,-0.201,9.748,0
265,35.296,-97.424,0,22.652,3,330,-0.425,-0.092,9.412,0
266,35.296,-97.424,0.2,22.522,3,330,-0.582,-0.352,9.597,0
267,35.296,-97.424,0.1,22.412,3,331,-0.401,-0.317,9.613,0
268,35.296,-97.424,359.9,22.312,3,331,-0.635,-0.149,10.02,0
269,35.297,-97.424,0.2,22.081,3,331,-0.619,-0.143,9.486,0
270,35.297,-97.424,0.4,21.94,3,331,-0.511,-0.206,9.684,0
271,35.297,-97.424,0.4,21.87,3,331,-0.564,-0.344,9.9,0
272,35.297,-97.424,0.4,21.84,3,331,-0.735,-0.323,9.675,0
273,35.297,-97.424,0.3,21.91,3,330,-0.829,-0.367,9.818,0
274,35.297,-97.424,0.2,22.12,3,330,-0.697,-0.372,9.789,0
275,35.298,-97.424,0.1,22.4,3,330,-0.761,-0.201,10.101,0
276,35.298,-97.424,0.2,22.57,4,330,-0.709,-0.116,9.573,1
278,35.298,-97.424,0.3,22.651,3,330,-0.723,-0.368,9.464,0
279,35.298,-97.424,0.3,22.711,3,331,-0.736,-0.541,9.728,0
280,35.298,-97.424,0.4,22.781,3,331,-0.759,-0.396,9.62,0
281,35.299,-97.424,0,22.831,3,331,-0.355,-0.151,9.877,0
282,35.299,-97.424,359.9,22.701,4,331,-0.456,-0.215,9.494,0
283,35.299,-97.424,0.1,22.433,3,330,-0.689,-0.322,10.053,0
284,35.299,-97.424,0,22.314,3,331,-0.655,-0.27,9.93,0
285,35.3,-97.424,0,22.243,3,331,-0.676,-0.412,9.557,0
286,35.3,-97.424,359.9,22.034,3,332,-0.466,-0.4,9.878,0
287,35.3,-97.424,359.8,21.874,3,333,-0.65,-0.131,9.322,0
288,35.3,-97.424,0.1,21.724,3,333,-0.729,-0.249,9.636,0
289,35.301,-97.424,0.2,21.565,3,334,-0.703,-0.147,9.496,1
290,35.301,-97.424,0.2,21.454,3,334,-0.835,-0.301,8.984,0
291,35.301,-97.424,0.2,21.533,3,334,-0.812,-0.219,9.483,1
292,35.301,-97.424,0.1,21.721,3,335,-0.998,-0.433,9.897,1
293,35.301,-97.424,0.1,21.981,3,335,-0.676,-0.149,9.527,0
294,35.301,-97.424,0.2,22.062,4,336,-0.889,-0.185,9.787,0
295,35.302,-97.424,0,22.122,3,336,-0.659,-0.39,9.633,1
296,35.302,-97.424,0,22.221,4,337,-0.825,-0.253,9.812,0
297,35.302,-97.424,359.8,22.322,3,337,-0.678,-0.396,9.77,0
298,35.302,-97.424,0,22.343,3,338,-0.738,-0.184,9.764,0
299,35.302,-97.424,0.2,22.382,3,338,-0.745,-0.102,9.806,0
300,35.303,-97.424,0.3,22.532,4,338,-0.855,0.028,9.545,0
301,35.303,-97.424,0.2,22.662,3,339,-0.747,-0.502,9.97,0
302,35.303,-97.424,0.2,22.792,3,339,-0.642,0.001,9.176,0
303,35.303,-97.424,0.3,22.842,3,339,-0.504,-0.067,9.827,0
304,35.304,-97.424,0.4,22.691,3,339,-0.46,-0.398,9.562,0
305,35.304,-97.424,0.5,22.482,3,339,-0.485,-0.152,9.474,0
306,35.304,-97.424,0.7,22.232,3,340,-0.59,0.181,8.934,0
307,35.304,-97.424,0.9,21.991,3,340,-0.616,-0.059,9.863,0
308,35.304,-97.424,1.2,21.842,3,340,-0.529,-0.104,9.659,0
309,35.305,-97.424,1.4,21.731,3,340,-0.482,-0.235,9.4,0
310,35.305,-97.424,1.2,21.661,3,340,-0.541,-0.301,9.266,1
311,35.305,-97.424,0.9,21.58,3,340,-0.459,-0.4,9.919,1
312,35.305,-97.424,0.9,21.54,4,340,-0.487,-0.314,9.729,0
313,35.305,-97.424,0.2,21.38,3,339,-0.54,-0.154,9.689,0
314,35.305,-97.424,359.9,21.36,3,338,-0.564,-0.207,9.941,0
315,35.306,-97.424,359.6,21.2,3,338,-0.695,-0.179,9.7,0
316,35.306,-97.424,359.2,21.42,3,338,-0.772,-0.337,9.523,0
317,35.306,-97.424,358.7,21.66,3,338,-0.92,-0.184,9.634,0
318,35.306,-97.424,358.5,22.05,3,339,-0.906,-0.105,9.898,0
319,35.306,-97.424,358.8,22.35,3,339,-0.902,0.11,9.833,1
320,35.307,-97.424,359.7,22.24,3,339,-0.928,0.012,9.756,1
321,35.307,-97.424,0.2,22.61,3,339,-0.853,-0.198,9.686,1
322,35.307,-97.424,0.5,22.77,3,339,-0.857,-0.213,9.847,1
323,35.307,-97.424,0.3,22.83,3,340,-0.814,-0.251,9.811,1
324,35.307,-97.424,0,23.24,3,340,-0.476,-0.178,9.859,1
325,35.308,-97.424,359.8,23.18,3,340,-0.322,0.11,9.811,1
326,35.308,-97.424,359.8,22.9,3,340,-0.383,-0.059,9.867,1
327,35.308,-97.424,0,22.67,3,340,-0.51,-0.165,9.725,0
328,35.308,-97.424,0.2,22.62,3,340,-0.537,-0.088,9.68,0
329,35.309,-97.424,0.3,22.72,3,339,-0.575,-0.273,9.496,0
330,35.309,-97.424,0.1,22.931,3,339,-0.547,-0.189,9.471,0
331,35.309,-97.424,359.8,22.942,3,339,-0.514,-0.308,9.952,0
332,35.309,-97.424,359.5,23.112,3,338,-0.4,-0.122,9.681,0
333,35.309,-97.424,359.3,23.252,3,338,-0.329,0.308,9.478,0
334,35.31,-97.424,359.4,23.072,3,337,-0.41,0.431,9.697,1
335,35.31,-97.424,0.4,22.793,3,336,-0.369,-0.115,9.698,1
336,35.31,-97.424,0.7,22.862,3,336,-0.335,-0.173,9.664,1
337,35.31,-97.424,0.4,22.941,3,335,-0.356,-0.092,9.851,1
338,35.31,-97.424,0.2,23.042,3,335,-0.519,0.134,9.469,1
339,35.311,-97.424,359.9,23.112,3,335,-0.513,0.004,9.976,1
341,35.311,-97.424,0.3,23.122,3,335,-0.522,-0.217,9.595,1
342,35.311,-97.424,0.2,23.211,3,335,-0.544,-0.124,9.752,1
343,35.311,-97.424,359.9,23.25,3,334,-0.57,-0.143,9.853,1
344,35.311,-97.424,0.1,23.341,3,334,-0.533,-0.196,9.77,1
345,35.312,-97.424,0,23.07,3,333,-0.569,-0.112,10.141,0
346,35.312,-97.424,359.9,23.121,3,334,-0.343,-0.075,9.76,0
347,35.312,-97.424,0,22.851,3,334,-0.258,0.141,9.562,0
348,35.312,-97.424,0.2,22.27,3,334,-0.444,-0.063,9.747,0
349,35.313,-97.424,0.2,22.01,3,334,-0.493,-0.138,9.846,0
350,35.313,-97.424,0,22.03,3,334,-0.609,-0.244,9.655,0
351,35.313,-97.424,359.8,22.15,3,334,-0.631,-0.259,9.936,0
352,35.313,-97.424,0,22.22,3,334,-0.631,-0.294,9.641,0
353,35.313,-97.424,0,22.32,3,334,-0.558,-0.248,9.938,0
354,35.314,-97.424,0.1,22.5,3,335,-0.536,-0.418,9.818,0
355,35.314,-97.424,359.9,22.49,3,335,-0.582,-0.152,9.595,0
356,35.314,-97.424,359.8,22.46,3,335,-0.575,-0.201,9.741,0
357,35.314,-97.424,359.8,22.32,3,334,-0.68,-0.033,9.718,0
358,35.314,-97.424,0.4,22.331,3,334,-0.663,-0.089,9.98,0
359,35.315,-97.424,0.3,22.291,3,333,-0.633,-0.163,9.594,0
360,35.315,-97.424,0.2,22.161,3,334,-0.612,-0.26,9.693,0
361,35.315,-97.424,0.2,22.091,3,334,-0.575,-0.258,9.92,0
362,35.315,-97.424,0.1,22.031,3,335,-0.6,-0.231,9.596,0
363,35.315,-97.424,0,21.94,3,335,-0.648,-0.389,9.919,0
364,35.316,-97.424,359.6,21.97,3,335,-0.633,-0.247,9.739,0
365,35.316,-97.424,359.7,21.871,3,336,-0.602,-0.086,9.877,0
366,35.316,-97.424,359.9,21.73,3,336,-0.634,-0.059,9.768,1
367,35.316,-97.424,0.4,21.671,3,336,-0.633,-0.167,9.793,1
368,35.316,-97.424,0.4,21.591,3,336,-0.544,-0.181,9.712,1
369,35.317,-97.424,0.2,21.491,3,336,-0.61,-0.327,9.828,1
370,35.317,-97.424,0,21.411,3,337,-0.582,-0.045,9.502,1
371,35.317,-97.424,359.9,21.371,3,337,-0.608,-0.024,9.75,1
372,35.317,-97.424,0,21.35,3,337,-0.316,-0.03,9.697,1
373,35.317,-97.424,0,21.03,3,337,-0.281,-0.013,9.631,1
374,35.318,-97.424,0,20.501,3,338,-0.276,0.004,9.653,1
375,35.318,-97.424,359.9,20.031,3,338,-0.246,-0.051,9.742,1
376,35.318,-97.424,359.8,19.571,3,338,-0.153,-0.048,9.575,0
377,35.318,-97.424,0,19.002,3,338,-0.282,0.079,9.816,0
378,35.318,-97.424,0.3,18.452,3,338,0.515,0.731,9.689,0
379,35.318,-97.424,0.6,17.452,3,339,-0.414,0.251,9.836,0
380,35.319,-97.424,1.3,16.252,3,339,-0.056,-0.055,9.343,0
381,35.319,-97.424,1.5,15.671,3,339,-0.344,0.016,9.791,0
382,35.319,-97.424,1.6,15.051,3,340,1.236,0.628,10.084,0
383,35.319,-97.424,1.4,14.212,3,340,1.501,0.698,9.946,0
384,35.319,-97.424,1.2,12.062,3,340,0.354,0.163,9.741,0
385,35.319,-97.424,1,9.6012,3,340,-0.265,-0.003,9.751,0
386,35.319,-97.424,0.9,8.272,3,340,-1.315,-0.433,9.597,1
387,35.319,-97.424,0.2,8.0956,3,341,-1.659,-0.639,9.456,1
388,35.319,-97.424,0.1,8.6908,3,341,-1.759,-0.398,9.872,0
389,35.319,-97.424,359.7,9.6209,3,342,-1.784,-0.562,9.783,1
390,35.32,-97.424,359.5,10.61,3,342,-1.6,-0.566,9.554,0
391,35.32,-97.424,359.8,11.491,3,342,-1.497,-0.5,9.763,0
392,35.32,-97.424,359.9,12.351,3,343,-1.53,-0.456,9.59,0
393,35.32,-97.424,359.9,13.162,3,343,-1.58,-0.471,9.404,0
394,35.32,-97.424,359.9,13.942,3,343,-1.688,-0.651,9.484,1
395,35.32,-97.424,359.8,14.692,3,344,-1.704,-0.618,9.281,0
396,35.32,-97.424,359.5,15.283,3,344,-1.421,-0.597,9.22,1
397,35.32,-97.424,359,16.601,3,344,-1.551,-0.208,9.475,0
398,35.321,-97.424,358.7,17.45,3,344,-1.348,-0.595,9.421,0
399,35.321,-97.424,358.9,18.161,3,345,-1.423,-0.376,9.636,0
401,35.321,-97.424,358.7,18.901,3,345,-1.196,-0.228,9.049,0
402,35.321,-97.424,358.8,19.601,3,346,-0.594,0.22,9.603,0
403,35.321,-97.424,359.5,20.15,3,346,-0.695,-0.139,9.681,0
404,35.322,-97.424,0.2,20.171,3,346,-0.729,-0.15,9.235,0
405,35.322,-97.424,0.3,20.2,3,346,-0.699,-0.432,9.701,0
406,35.322,-97.424,0,20.29,3,346,-0.717,-0.44,9.917,0
407,35.322,-97.424,359.8,20.48,3,347,-1.094,-0.421,9.882,0
408,35.322,-97.424,359.8,20.841,3,348,-1.286,-0.384,9.144,0
409,35.323,-97.424,359.9,21.371,3,348,-1.179,-0.235,9.697,0
410,35.323,-97.424,0,21.951,3,348,-1.156,-0.444,9.724,0
411,35.323,-97.424,0.2,22.501,3,347,-1.119,-0.319,9.065,0
412,35.323,-97.424,0,23.071,3,348,-0.744,-0.227,9.649,0
413,35.323,-97.424,359.9,23.381,3,348,-0.636,-0.405,9.871,0
414,35.324,-97.424,359.8,23.451,3,349,-0.908,-0.156,9.837,0
415,35.324,-97.424,359.9,23.63,3,349,-0.852,-0.223,9.741,0
416,35.324,-97.424,359.9,23.771,3,349,-0.744,-0.255,9.423,0
417,35.324,-97.424,359.8,23.901,3,350,-0.798,-0.316,9.721,0
418,35.325,-97.424,359.7,24.071,3,350,-0.808,-0.121,9.764,0
419,35.325,-97.424,359.6,24.211,3,350,-0.982,-0.006,9.31,0
420,35.325,-97.424,0,24.321,3,351,-0.385,-0.198,9.375,0
421,35.325,-97.424,0,24.341,3,351,-0.7,-0.082,9.473,0
422,35.325,-97.424,359.9,24.321,3,351,-0.549,-0.349,9.83,0
423,35.326,-97.424,359.7,24.39,3,352,-0.705,-0.036,9.82,1
424,35.326,-97.424,359.9,24.46,3,352,-0.733,-0.107,9.495,0
425,35.326,-97.424,0.1,24.56,3,352,-0.525,-0.164,9.942,0
426,35.326,-97.424,0.2,24.69,3,351,-0.25,0.075,9.779,0
427,35.327,-97.424,0.1,24.49,3,351,-0.139,0.039,9.418,0
428,35.327,-97.424,0.1,24.1,3,351,-0.34,-0.113,9.82,0
429,35.327,-97.424,359.9,24.05,3,351,-0.607,-0.092,10.089,0
430,35.327,-97.424,0,24.02,3,351,-0.635,-0.155,9.906,0
431,35.327,-97.424,0.1,24.06,3,351,-0.559,-0.049,9.628,0
432,35.328,-97.424,0.2,24.16,3,351,-0.547,-0.216,9.817,0
433,35.328,-97.424,0.2,24.05,3,351,-0.61,0.017,9.712,0
434,35.328,-97.424,0.1,24.111,3,350,-0.447,-0.753,9.548,0
435,35.328,-97.424,359.5,24.23,3,350,-0.671,0.04,9.564,0
436,35.328,-97.424,359.6,24.371,3,350,-0.189,0.022,9.243,0
437,35.329,-97.424,359.7,24.461,3,350,-0.336,-0.168,9.341,0
438,35.329,-97.424,359.7,24.322,3,349,-0.198,0.113,9.491,0
439,35.329,-97.424,359.7,24.333,3,348,-0.227,0.104,9.574,0
440,35.329,-97.424,359.8,24.333,3,348,-0.09,0.016,9.658,0
441,35.33,-97.424,359.9,24.373,3,347,-0.221,-0.032,10.089,0
442,35.33,-97.424,359.9,23.952,3,347,-0.659,-0.124,10.023,0
443,35.33,-97.424,359.9,23.841,3,347,-0.917,0.119,10.32,0
444,35.33,-97.424,359.6,24.01,3,347,-0.656,0.054,9.707,0
445,35.33,-97.424,359.4,24.1,3,347,-0.811,-0.117,10.66,0
446,35.331,-97.424,359,24.121,3,347,-0.431,-0.744,9.666,0
447,35.331,-97.424,357.9,24.071,3,347,-0.668,-0.48,10.25,0
448,35.331,-97.424,356.1,24.092,3,347,-0.35,0.042,10.072,0
449,35.331,-97.424,354.6,23.912,3,348,-0.871,-0.205,9.779,0
450,35.332,-97.424,353.9,23.563,3,348,-0.302,-0.229,10.017,0
451,35.332,-97.424,352.8,23.314,3,349,-0.794,0.043,9.507,0
452,35.332,-97.424,351.8,22.914,3,350,-0.643,-0.371,9.495,0
453,35.332,-97.424,350.9,22.724,3,350,-0.626,-0.42,9.663,0
454,35.332,-97.424,349.7,22.734,3,351,-0.504,-0.102,9.476,0
455,35.333,-97.424,348.1,22.454,3,352,-0.379,0.292,9.616,0
456,35.333,-97.424,346.9,22.133,3,351,-0.706,0.148,9.583,0
457,35.333,-97.424,346.5,21.712,3,352,-0.55,-0.12,9.388,0
458,35.333,-97.424,345.8,21.361,3,352,-0.768,0.057,9.415,0
459,35.333,-97.424,345,21.14,3,352,-0.694,-0.102,9.401,0
460,35.333,-97.424,343.9,21.14,3,352,-0.866,-0.168,9.573,0
461,35.334,-97.424,342.9,21.27,3,352,-0.919,-0.227,9.522,1
462,35.334,-97.424,341.9,21.5,3,352,-0.633,-0.224,9.478,1
463,35.334,-97.424,340.7,21.8,3,352,-0.516,-0.191,9.672,1
464,35.334,-97.425,339.3,21.831,3,352,-0.425,-0.127,9.886,1
465,35.334,-97.425,337.6,21.841,3,352,-0.576,-0.079,9.616,1
466,35.335,-97.425,336.2,22.002,3,351,-0.365,0.105,9.679,1
468,35.335,-97.425,335.3,22.033,3,350,-0.308,0.043,9.825,1
469,35.335,-97.425,334.3,21.914,3,349,-0.188,-0.24,9.672,1
470,35.335,-97.425,332.8,21.845,3,348,-0.192,-0.143,10.073,0
471,35.335,-97.425,331,21.795,3,347,-0.199,0.003,9.534,0
472,35.335,-97.425,330,21.684,3,346,-0.479,0.329,9.594,0
473,35.336,-97.425,329.2,21.933,3,345,-0.766,0.426,9.952,0
474,35.336,-97.426,329.2,22.252,3,344,-0.829,0.065,9.761,0
475,35.336,-97.426,329.1,22.571,3,344,-0.928,0.161,9.86,0
476,35.336,-97.426,329.6,22.77,3,344,-0.924,0,9.909,0
477,35.336,-97.426,329.6,22.97,3,343,-0.664,-0.321,9.728,0
478,35.337,-97.426,329.4,23.17,3,343,-0.813,-0.108,9.759,0
479,35.337,-97.426,329.8,23.4,3,343,-0.677,-0.074,9.773,0
480,35.337,-97.426,330.6,23.25,3,343,-0.315,0.016,9.673,0
481,35.337,-97.427,331.4,23.09,3,343,-0.493,0.153,9.59,0
482,35.337,-97.427,332.7,23.1,3,343,-0.796,0.303,9.844,0
483,35.338,-97.427,334.6,23.24,3,343,-0.87,0.298,9.919,0
484,35.338,-97.427,336.3,23.41,3,342,-0.887,0.299,9.924,0
485,35.338,-97.427,337.9,23.58,3,342,-0.736,0.011,9.715,0
486,35.338,-97.427,339.2,23.72,3,342,-0.823,0.145,9.741,0
487,35.338,-97.427,340.5,23.85,3,341,-0.786,0.26,9.791,0
488,35.339,-97.427,342.4,23.96,3,342,-0.787,0.177,9.996,0
489,35.339,-97.427,343.9,24.09,3,342,-0.906,0.193,9.919,0
490,35.339,-97.427,345.4,24.21,3,342,-0.861,0.197,9.65,0
491,35.339,-97.427,347.2,24.37,3,342,-0.915,0.426,9.519,0
492,35.339,-97.427,348.9,24.5,3,342,-0.851,0.245,10.052,0
493,35.34,-97.427,350.7,24.54,3,342,-0.751,0.351,9.626,0
494,35.34,-97.428,352,24.56,3,342,-0.857,0.616,9.904,0
495,35.34,-97.428,354,24.63,3,342,-0.887,0.478,9.53,0
496,35.34,-97.428,355.5,24.72,3,342,-0.911,0.192,9.959,0
497,35.341,-97.428,356.8,24.73,3,342,-0.605,0.485,9.67,0
498,35.341,-97.428,358.6,24.55,3,342,-0.411,0.518,9.326,0
499,35.341,-97.428,0,24.2,3,343,-0.451,0.521,9.6,0
500,35.341,-97.428,1.5,23.81,3,343,-0.535,0.478,9.956,0
501,35.341,-97.428,3.5,23.51,3,343,-0.586,0.21,9.607,0
502,35.342,-97.428,5,23.29,3,343,-0.621,0.065,9.533,0
503,35.342,-97.428,5.9,23.26,3,343,-0.943,0.035,10.157,0
504,35.342,-97.427,7.3,23.38,3,343,-0.997,0.527,9.624,0
505,35.342,-97.427,9.4,23.43,3,342,-0.859,0.177,9.726,0
506,35.342,-97.427,11.3,23.58,3,342,-0.786,0.22,9.455,0
507,35.343,-97.427,12.5,23.72,3,342,-0.535,0.366,9.854,0
508,35.343,-97.427,14.2,23.44,3,342,-0.775,0.434,9.913,0
509,35.343,-97.427,15.8,23.44,3,342,-0.748,0.184,9.814,0
510,35.343,-97.427,17.6,23.39,3,342,-0.795,0.011,9.56,0
511,35.343,-97.427,18.7,23.43,3,341,-0.86,0.116,9.69,1
512,35.344,-97.427,20.2,23.52,3,341,-0.843,0.177,9.838,1
513,35.344,-97.427,21.6,23.61,3,341,-0.786,-0.031,9.652,1
514,35.344,-97.427,22.9,23.64,3,342,-0.468,-0.02,9.878,1
515,35.344,-97.427,23.7,23.54,3,342,-0.449,-0.359,9.735,1
516,35.344,-97.427,23.7,23.38,3,342,-0.548,-0.226,9.591,1
517,35.345,-97.426,23.4,23.4,3,342,-0.393,0.038,9.742,1
518,35.345,-97.426,23.4,23.17,3,342,-0.294,0.068,9.794,1
519,35.345,-97.426,23.6,22.67,3,342,-0.489,-0.346,9.757,0
520,35.345,-97.426,23.7,22.34,3,342,-0.638,-0.437,9.636,0
521,35.345,-97.426,23,22.3,3,341,-0.764,-0.228,9.654,0
522,35.346,-97.426,22.9,22.47,3,341,-0.878,-0.131,9.521,0
523,35.346,-97.426,23.2,22.69,3,341,-0.835,-0.075,9.994,0
524,35.346,-97.426,23.5,22.99,3,341,-0.854,-0.402,9.815,0
525,35.346,-97.426,23.6,23.23,3,341,-0.825,-0.342,9.813,0
526,35.346,-97.426,23.3,23.51,3,340,-0.771,-0.12,9.504,0
527,35.347,-97.425,23.2,23.67,3,340,-0.928,-0.239,9.766,0
528,35.347,-97.425,23.1,23.86,3,340,-0.796,-0.133,9.677,0
529,35.347,-97.425,22.8,24.07,3,340,-0.698,-0.038,9.779,0
530,35.347,-97.425,22.6,24.23,3,340,-0.41,0.098,9.91,0
532,35.347,-97.425,22.3,23.98,3,341,-0.219,0.06,9.632,0
533,35.348,-97.425,21.7,23.59,3,342,-0.406,-0.018,9.873,0
534,35.348,-97.425,21,23.24,3,342,-0.491,-0.045,9.531,0
535,35.348,-97.425,20.4,23.05,3,341,-0.469,-0.153,9.551,0
536,35.348,-97.425,19.6,22.95,3,342,-0.395,-0.409,9.835,0
537,35.349,-97.425,17.4,22.54,3,343,-0.538,-0.247,9.673,0
538,35.349,-97.424,16.7,22.41,3,343,-0.765,-0.133,9.808,0
539,35.349,-97.424,16.1,22.411,3,343,-0.662,-0.034,9.745,0
540,35.349,-97.424,15.1,22.342,3,343,-0.582,-0.163,9.752,0
541,35.349,-97.424,13.9,22.203,3,343,-0.678,-0.28,9.941,0
542,35.349,-97.424,12.7,22.114,3,343,-0.817,-0.463,9.663,0
543,35.35,-97.424,11.4,22.155,3,344,-0.949,-0.281,10.008,0
544,35.35,-97.424,10.8,22.056,3,344,-1.057,0.058,9.609,0
545,35.35,-97.424,11,21.997,3,345,-1.036,0.045,9.515,0
546,35.35,-97.424,11.2,22.025,3,345,-0.954,-0.105,9.532,0
547,35.35,-97.424,10.4,22.084,3,346,-0.684,-0.193,9.665,0
548,35.351,-97.424,9.5,21.783,3,347,-0.396,-0.027,9.478,0
549,35.351,-97.424,8.7,21.432,3,347,-0.493,-0.209,9.612,0
550,35.351,-97.424,7.8,21.281,3,347,-0.655,-0.056,9.699,0
551,35.351,-97.424,7.1,21.29,3,347,-0.639,0.054,9.384,1
552,35.351,-97.424,6.5,21.33,3,347,-0.596,0.013,9.652,1
553,35.352,-97.424,5.8,21.24,3,347,-0.594,-0.123,9.599,1
554,35.352,-97.424,4.9,21.29,3,347,-0.54,-0.036,9.638,1
555,35.352,-97.424,4.4,21.281,3,347,-0.515,0.216,9.794,1
556,35.352,-97.424,4.1,21.24,3,347,-0.565,-0.155,9.65,1
557,35.352,-97.424,3.1,21.34,3,347,-0.511,-0.179,9.888,1
558,35.353,-97.424,2,21.54,3,347,-0.621,-0.078,9.803,0
559,35.353,-97.424,1.3,21.67,3,347,-0.82,-0.08,9.861,0
560,35.353,-97.424,0.6,21.91,3,347,-0.64,-0.071,9.803,0
561,35.353,-97.424,0,21.75,3,347,-0.754,-0.164,9.817,0
562,35.353,-97.424,359.6,21.711,3,347,-0.629,-0.047,9.788,0
563,35.354,-97.424,359.2,21.611,3,348,-0.719,0.033,9.699,0
564,35.354,-97.424,359.2,21.521,3,348,-0.791,0.024,9.663,0
565,35.354,-97.424,359.4,21.461,3,348,-0.778,-0.098,9.791,0
566,35.354,-97.424,359.4,21.481,3,349,-0.704,-0.174,9.722,1
567,35.354,-97.424,359.5,21.521,3,349,-0.838,-0.251,9.791,0
568,35.354,-97.424,359.7,21.561,3,349,-0.761,-0.176,9.404,0
569,35.355,-97.424,359.6,21.65,3,350,-0.673,-0.2,9.588,0
570,35.355,-97.424,359.5,21.66,3,349,-0.599,-0.191,9.713,0
571,35.355,-97.424,358.9,21.77,3,350,-0.672,0.01,9.83,0
572,35.355,-97.424,359.1,21.86,3,350,-0.424,0.159,9.517,0
573,35.355,-97.424,359.3,21.7,3,350,-0.509,-0.034,9.82,0
574,35.356,-97.424,359.3,21.54,3,350,-0.664,-0.225,9.702,0
575,35.356,-97.424,359.1,21.711,3,350,-0.714,-0.157,9.519,0
576,35.356,-97.424,359.1,22.013,3,350,-0.609,0.11,9.686,0
577,35.356,-97.424,359.1,22.14,3,350,-0.74,-0.019,9.924,0
578,35.356,-97.424,359.5,22.623,3,349,-0.608,-0.2,9.883,0
579,35.357,-97.424,359.5,22.861,3,349,-0.463,-0.17,9.887,0
580,35.357,-97.424,359.4,23.161,3,348,-0.358,-0.07,9.722,0
581,35.357,-97.424,359.2,23,3,348,-0.657,-0.136,9.802,0
582,35.357,-97.424,358.9,23.06,3,349,-0.552,-0.299,9.689,0
583,35.358,-97.424,358.5,22.921,3,349,-0.629,-0.094,9.864,0
584,35.358,-97.424,359.1,23.021,3,350,-0.882,-0.068,9.858,0
585,35.358,-97.424,359.2,22.942,3,350,-0.858,-0.094,10.006,0
586,35.358,-97.424,359.4,22.953,3,350,-0.921,-0.105,9.812,0
587,35.358,-97.424,359.5,22.774,3,351,-0.821,-0.189,9.619,0
588,35.359,-97.424,359.6,22.735,3,351,-0.839,-0.133,9.648,0
589,35.359,-97.424,359.4,22.664,3,352,-0.825,-0.133,9.66,0
590,35.359,-97.424,359.5,22.574,3,353,-0.778,-0.32,9.724,0
591,35.359,-97.424,359.7,22.485,3,353,-0.86,-0.183,9.86,0
592,35.359,-97.424,359.8,22.494,3,354,-0.78,-0.265,9.715,0
593,35.36,-97.424,359.9,22.463,3,355,-0.807,-0.33,9.695,1
595,35.36,-97.424,359.7,22.502,3,356,-0.764,-0.189,9.607,1
596,35.36,-97.424,359.4,22.492,3,356,-0.853,-0.275,9.725,1
597,35.36,-97.424,359.5,22.452,3,357,-0.914,-0.185,9.772,1
598,35.36,-97.424,359.6,22.472,3,357,-0.827,-0.192,9.609,1
599,35.361,-97.424,359.6,22.512,3,358,-0.708,-0.199,9.824,1
600,35.361,-97.424,359.7,22.542,3,358,-0.751,-0.263,9.718,1
601,35.361,-97.424,359.7,22.372,3,359,-0.694,-0.264,9.774,1
602,35.361,-97.424,359.7,22.312,3,359,-0.756,-0.305,9.97,0
603,35.362,-97.424,359.7,22.271,3,359,-0.485,-0.107,9.714,0
604,35.362,-97.424,359.6,21.771,3,360,-0.277,-0.107,9.719,0
605,35.362,-97.424,359.3,21.251,3,360,-0.199,-0.447,9.819,0
606,35.362,-97.424,358.5,20.582,3,360,0.637,0.202,9.782,0
607,35.362,-97.424,358.2,18.872,3,361,1.213,0.513,9.896,0
608,35.362,-97.424,358.1,16.892,3,361,0.904,0.134,9.894,0
609,35.363,-97.424,357.8,15.302,3,361,1.846,0.983,9.765,0
610,35.363,-97.424,357.8,12.671,3,362,1.943,1.365,10.021,0
