time,lat,lng,bearing,spd,acc,alt,accx,accy,accz,stable,
0,35.291,-97.441,180.7,6.92,16.687,324,-1.133,3.944,8.61,1
1,35.291,-97.441,180.5,9.62,16.687,322,-1.52,3.002,8.508,1
2,35.291,-97.441,179.7,10.69,16.687,321,-0.791,3.471,8.98,0
3,35.29,-97.441,179.1,12.34,16.687,322,-0.523,3.465,9.195,1
4,35.29,-97.441,179.7,13.04,16.687,322,-0.994,3.437,8.727,0
5,35.29,-97.441,180.4,14.57,16.687,322,-1.008,3.217,8.811,0
6,35.29,-97.441,182.5,15.37,18.204,320,-0.999,3,8.786,0
7,35.29,-97.441,183.3,16.76,18.204,321,-0.867,2.55,8.926,0
8,35.29,-97.441,182.6,17.91,18.204,319,-0.873,2.673,9.196,0
9,35.289,-97.441,181.7,18.86,18.204,320,-1.118,2.629,9.131,0
10,35.289,-97.441,183.6,18.88,18.204,322,-1.344,2.608,9.359,0
11,35.289,-97.441,179.3,21.17,16.687,321,-1.045,2.337,8.872,0
12,35.289,-97.441,179.4,21.41,16.687,316,-1.112,2.255,9.606,0
13,35.289,-97.441,179.5,22.29,16.687,313,-1.267,2.161,9.616,0
14,35.289,-97.441,179.8,22.39,16.687,314,-1.132,1.913,9.592,0
15,35.288,-97.441,179.3,22.74,15.17,314,-1.355,1.982,9.812,0
16,35.288,-97.441,179,22.81,16.687,313,-1.147,1.924,9.243,0
17,35.288,-97.441,179.6,22.45,16.687,312,-1.255,2.416,9.976,0
18,35.288,-97.441,180,22.58,15.17,313,-1.037,2.44,9.479,0
19,35.288,-97.441,179.2,22.55,15.17,311,-1.297,2.558,9.562,0
20,35.287,-97.441,179.4,22.73,15.17,310,-0.978,2.339,9.203,0
21,35.287,-97.441,178.9,22.4,15.17,311,-0.754,2.336,9.145,0
22,35.287,-97.441,179.4,23.28,15.17,311,-1.136,2.302,9.501,0
23,35.287,-97.441,179.7,23.23,15.17,311,-0.51,2.232,9.492,0
25,35.286,-97.441,179.9,23.21,16.687,311,-0.433,2.185,9.865,0
25,35.286,-97.441,179.9,23.21,16.687,311,-0.433,2.185,9.865,0
26,35.286,-97.441,180.8,23.16,15.17,310,-0.672,2.098,9.339,0
27,35.286,-97.441,180.3,23.01,15.17,311,-0.91,2.114,9.322,1
28,35.286,-97.441,180.9,23.06,16.687,308,-0.93,2.069,9.456,1
29,35.285,-97.441,180.8,23.13,16.687,307,-1.217,1.925,8.616,0
30,35.285,-97.441,179.7,22.99,16.687,306,-1.069,2.314,9.615,0
31,35.285,-97.441,179.7,22.9,16.687,306,-1.179,2.531,10.459,0
32,35.285,-97.441,179.4,22.6,18.204,306,-0.946,1.951,9.335,1
33,35.285,-97.441,178.4,22.74,19.721,306,-0.764,2.085,9.762,0
34,35.284,-97.441,180.2,22.91,16.687,304,-0.776,1.986,9.729,0
35,35.284,-97.441,179.9,22.81,18.204,305,-0.841,2.019,9.59,0
36,35.284,-97.441,179.7,22.55,18.204,305,-0.916,1.933,8.791,1
37,35.284,-97.441,180.2,22.35,18.204,304,-1.207,2.175,9.396,0
38,35.284,-97.441,180.3,22.4,18.204,304,-0.956,2.309,9.418,0
39,35.283,-97.441,180.5,22.23,19.721,304,-0.858,2.37,9.728,0
40,35.283,-97.441,177.3,21.65,21.238,305,-0.923,2.178,9.173,1
41,35.283,-97.441,177.5,22.56,21.238,306,-0.805,2.553,10.327,0
42,35.283,-97.441,180.8,22.51,21.238,305,-0.971,2.108,9.611,0
43,35.283,-97.441,180.2,23.61,22.755,305,-1.178,1.809,9.27,0
44,35.283,-97.441,187.3,20.15,22.755,303,-0.757,2.163,9.949,0
45,35.282,-97.442,186.4,21.07,24.272,301,-0.747,2.316,9.917,0
46,35.282,-97.442,185,20.25,22.755,302,-0.892,1.927,9.368,0
47,35.282,-97.441,179,21.37,22.755,307,-0.91,1.953,9.01,0
48,35.282,-97.441,179.2,21.7,19.721,306,-1.278,2.014,9.231,0
49,35.282,-97.441,179.1,21.29,19.721,306,-0.951,2.015,9.282,0
50,35.281,-97.441,179.6,20.95,18.204,305,-1.116,1.974,9.048,0
52,35.281,-97.441,179.6,19.84,18.204,305,-0.789,2.245,9.364,0
52,35.281,-97.441,179.6,19.84,18.204,305,-0.789,2.245,9.364,0
53,35.281,-97.441,179.7,20,16.687,304,-0.927,2.288,9.261,0
54,35.281,-97.441,179.5,19.38,16.687,306,-0.741,2.301,9.249,1
55,35.28,-97.441,180.1,19.44,16.687,304,-0.732,2.469,9.314,0
56,35.28,-97.441,180.5,19.58,16.687,305,-0.79,2.389,9.468,1
57,35.28,-97.441,180,19.36,16.687,307,-0.888,2.612,9.131,0
58,35.28,-97.441,179.9,19.61,16.687,309,-0.905,2.648,8.844,0
59,35.28,-97.441,180.8,19.98,16.687,308,-0.992,2.585,9.468,1
60,35.28,-97.441,179.9,20.02,16.687,308,-0.77,2.759,9.334,1
61,35.279,-97.441,180.6,20.23,16.687,309,-0.965,2.616,9.118,0
62,35.279,-97.441,180.3,20.31,18.204,310,-0.802,1.977,8.939,1
63,35.279,-97.441,177.9,19.99,19.721,309,-1.035,2.005,9.817,0
64,35.279,-97.441,175.5,20.84,21.238,309,-0.966,1.484,9.478,0
65,35.279,-97.441,176.3,20.83,24.272,308,-0.62,1.608,9.304,1
66,35.278,-97.441,180.2,21.94,28.823,310,-0.625,1.466,9.418,1
67,35.278,-97.441,180.3,23.16,25.789,311,0.148,1.416,9.367,0
68,35.278,-97.441,180.1,23.56,25.789,312,0.038,1.572,9.84,0
69,35.278,-97.441,182.3,20.13,24.272,311,-0.739,1.782,9.656,0
70,35.278,-97.441,187.2,17.04,18.204,311,-0.841,1.835,9.374,1
71,35.278,-97.441,186.3,16.86,18.204,310,-0.754,1.763,9.322,1
72,35.277,-97.442,190.2,16.17,18.204,308,-1.187,1.832,9.579,0
73,35.277,-97.442,188.2,16.93,21.238,307,-1.168,1.903,9.478,0
74,35.277,-97.442,186.9,16.92,21.238,308,-0.908,1.164,9.357,1
75,35.277,-97.442,184.6,15.18,24.272,309,-0.732,0.346,9.914,0
76,35.277,-97.442,182.8,16.71,22.755,309,-0.758,0.083,9.926,0
78,35.277,-97.442,182.4,15.29,22.755,310,-0.452,0.615,9.853,0
78,35.277,-97.442,182.4,15.29,22.755,310,-0.452,0.615,9.853,0
79,35.277,-97.442,179.3,11.08,19.721,310,-0.332,0.452,9.856,0
80,35.277,-97.442,182.8,10.13,19.721,310,-0.161,-0.301,10.126,0
81,35.276,-97.442,178.7,8.95,21.238,310,-0.24,0.398,9.83,0
82,35.276,-97.441,162.8,7.01,21.238,311,-0.31,0.516,9.815,1
83,35.276,-97.441,162.8,7.01,21.238,311,-0.334,1.7,9.538,1
84,35.276,-97.441,172.2,4.59,21.238,309,-0.355,3.809,8.868,1
85,35.276,-97.441,173.7,4.47,22.755,310,-0.581,4.413,8.555,1
86,35.276,-97.441,163.5,3.61,24.272,310,-0.919,3.646,8.72,1
87,35.276,-97.441,149.6,3.55,24.272,311,-1.098,4.016,8.926,0
88,35.276,-97.441,167.2,3.86,22.755,312,-0.658,3.707,8.633,1
89,35.276,-97.441,164.5,6.12,19.721,312,-0.545,3.496,9.118,1
90,35.276,-97.441,151.4,6.1,19.721,313,-0.273,3.547,9.32,0
91,35.276,-97.441,163.6,7.74,21.238,313,-0.077,3.449,9.01,1
92,35.276,-97.441,167.4,8.93,22.755,312,-0.452,3.33,8.822,1
93,35.276,-97.441,173.5,8.28,24.272,310,-1.143,3.154,9.537,0
94,35.276,-97.441,172.2,8.38,22.755,311,-1.167,3.195,9.066,1
95,35.276,-97.441,174.3,10.81,27.306,311,-1.091,3.139,8.771,0
96,35.275,-97.441,176.1,14.56,27.306,311,-0.872,3.25,10.289,0
97,35.275,-97.441,176.3,15.29,28.823,312,-0.293,2.952,9.566,0
98,35.275,-97.441,177.5,20.56,25.789,313,-1.003,2.645,9.125,0
99,35.275,-97.441,179.5,21.68,21.238,312,-1.163,2.748,9.404,0
100,35.275,-97.441,179.3,21.54,21.238,311,-0.261,2.439,8.718,1
101,35.274,-97.441,178.8,21.86,19.721,311,-0.842,2.089,9.278,0
102,35.274,-97.441,179.6,22.25,19.721,312,-0.818,1.692,8.872,1
103,35.274,-97.441,178.7,22.13,19.721,313,-0.878,1.777,9.191,1
104,35.274,-97.441,178.2,21.9,19.721,313,-0.631,1.714,8.51,1
105,35.274,-97.441,180.9,22.06,19.721,313,-1.13,2.521,9.412,1
106,35.273,-97.441,178.1,21.95,19.721,310,-0.873,2.541,8.939,0
107,35.273,-97.441,178.2,21.77,18.204,311,-0.905,2.098,9.557,0
108,35.273,-97.441,178.3,22.05,18.204,311,-0.826,2.111,9.839,0
109,35.273,-97.441,179.4,22.6,16.687,310,-0.85,2.07,9.789,0
111,35.272,-97.441,179.5,22.67,16.687,309,-0.787,2.252,9.659,0
111,35.272,-97.441,179.5,22.67,16.687,309,-0.787,2.252,9.659,0
112,35.272,-97.441,181.5,22.57,18.204,310,-0.797,2.316,9.268,0
113,35.272,-97.441,186.2,21.89,19.721,309,-0.711,2.364,9.03,0
114,35.272,-97.441,194.6,21.11,21.238,307,-0.978,2.592,9.165,0
115,35.272,-97.441,191.4,20.82,22.755,308,-0.726,2.754,9.185,0
116,35.271,-97.442,190.7,21.88,24.272,308,-0.731,2.721,9.366,0
117,35.271,-97.441,185.1,22.54,27.306,307,-0.952,2.119,9.479,0
118,35.271,-97.441,183.7,24.47,27.306,307,-1.053,2.052,9.57,0
119,35.271,-97.441,173.3,25.8,28.823,307,-0.71,1.93,9.238,0
120,35.27,-97.441,173,28,27.306,308,-0.784,1.969,9.105,0
121,35.27,-97.441,174.4,25.47,27.306,308,-0.942,2.141,10.018,0
122,35.27,-97.441,173,24.58,27.306,308,-0.823,1.917,9.172,0
123,35.27,-97.441,176.1,24.49,27.306,308,-0.668,1.774,8.427,0
124,35.269,-97.441,176.2,24.26,30.34,308,-0.695,2.043,9.347,0
125,35.269,-97.441,189.6,19.96,31.857,306,-0.736,1.985,8.002,0
126,35.269,-97.441,182,19.85,31.857,305,-0.965,2.301,9.273,0
127,35.269,-97.441,179.7,20.37,34.891,305,-0.802,2.422,10.427,0
128,35.269,-97.441,182.4,18.82,39.442,306,-0.317,1.789,8.214,0
129,35.269,-97.441,181.8,20.83,40.959,305,-0.789,2.174,9.536,0
130,35.268,-97.441,180.2,21.3,24.272,306,-1.005,2.38,9.737,0
131,35.268,-97.441,180.8,20.82,21.238,307,-0.825,2.52,9.182,0
132,35.268,-97.441,179.8,20.96,19.721,307,-0.938,2.909,8.91,0
133,35.268,-97.441,179.4,20.74,19.721,309,-0.823,3.002,9.299,0
134,35.268,-97.441,178.7,20.34,18.204,310,-1.001,2.781,8.98,0
135,35.267,-97.441,180.2,21.18,18.204,310,-0.816,2.264,9.386,1
136,35.267,-97.441,179.8,21.58,16.687,310,-0.965,2.275,9.405,1
137,35.267,-97.441,180.1,20.68,16.687,313,-0.88,2.522,9.102,1
138,35.267,-97.441,179.6,20.06,16.687,314,-0.924,2.746,9.123,1
139,35.267,-97.441,179.7,20.56,16.687,316,-0.867,2.89,8.937,1
141,35.267,-97.441,179.2,20.16,16.687,318,-0.785,2.927,8.947,1
141,35.267,-97.441,179.2,20.16,16.687,318,-0.785,2.927,8.947,1
142,35.266,-97.441,180.5,21,16.687,318,-0.722,3.117,9.705,0
143,35.266,-97.441,180.9,21.45,15.17,317,-0.931,3.015,9.389,1
144,35.266,-97.441,180.9,21.74,15.17,317,-0.733,2.934,9.118,1
145,35.266,-97.441,180.2,22.03,15.17,318,-0.869,2.733,8.775,1
146,35.265,-97.441,179.7,22.61,16.687,318,-0.502,2.705,9.644,0
147,35.265,-97.441,179.7,21.89,16.687,318,-1.002,2.665,9.415,1
148,35.265,-97.441,179.7,22.25,16.687,319,-0.918,2.615,9.217,1
149,35.265,-97.441,178,22.08,15.17,319,-0.353,2.537,8.862,0
150,35.265,-97.441,178.5,21.91,16.687,320,-0.715,2.369,8.672,1
151,35.264,-97.441,178.7,21.56,16.687,320,-0.786,2.171,9.716,0
152,35.264,-97.441,180,21.78,16.687,321,-1.132,1.907,9.344,1
153,35.264,-97.441,179.9,21.65,16.687,323,-0.674,1.857,9.189,0
154,35.264,-97.441,179.6,21.59,16.687,321,-0.898,2.074,9.359,0
155,35.264,-97.441,179.6,20.91,16.687,323,-0.621,2.061,9.493,1
156,35.263,-97.441,179.4,20.81,16.687,322,-0.343,2.05,9.595,0
157,35.263,-97.441,178.8,21.18,18.204,323,-0.771,1.232,9.043,0
158,35.263,-97.441,180.6,20.76,19.721,323,-1.232,0.624,10.189,0
159,35.263,-97.441,182.2,18.53,21.238,325,-0.761,0.454,9.648,0
160,35.263,-97.441,181.8,17.85,22.755,327,-0.856,0.497,10.237,0
161,35.263,-97.441,175.9,16.33,19.721,329,-1,0.635,9.911,0
162,35.262,-97.441,178.9,15.62,19.721,329,-0.997,0.428,10.021,0
163,35.262,-97.441,174.5,17.73,19.721,328,-0.984,0.331,9.924,0
164,35.262,-97.441,179.3,14.46,21.238,327,-0.834,0.694,9.684,0
165,35.262,-97.441,179.1,10.27,21.238,326,-0.776,0.048,10.078,0
166,35.262,-97.441,189,8.8,22.755,325,-0.79,0.304,9.935,0
167,35.262,-97.441,195.2,9.06,21.238,325,-0.799,0.835,9.761,1
168,35.262,-97.441,193.4,7.59,21.238,324,-0.725,1.213,9.663,1
169,35.262,-97.441,181.3,5.76,21.238,325,-0.754,1.724,9.53,1
170,35.262,-97.441,189.3,6.42,22.755,326,-0.754,2.19,9.406,1
171,35.262,-97.441,199.9,4.53,22.755,326,-0.755,2.174,9.264,1
172,35.262,-97.442,213.9,4.03,21.238,326,-0.738,2.175,9.392,1
173,35.262,-97.441,168.7,2.05,21.238,325,-0.752,2.169,9.422,1
174,35.262,-97.441,147.2,1.3,19.721,325,-0.761,2.18,9.425,1
175,35.262,-97.441,139.5,1.57,19.721,325,-0.748,2.168,9.414,1
176,35.262,-97.441,41.4,2.46,19.721,326,-0.748,2.183,9.44,1
177,35.262,-97.441,356.9,2.68,19.721,326,-0.765,2.17,9.407,1
178,35.262,-97.441,14.1,4.41,19.721,327,-0.757,2.188,9.382,1
180,35.262,-97.441,10.7,1.58,19.721,326,-0.751,2.174,9.338,1
180,35.262,-97.441,10.7,1.58,19.721,326,-0.751,2.174,9.338,1
181,35.262,-97.441,296.7,1.77,21.238,326,-0.745,2.162,9.266,1
182,35.262,-97.441,189.6,1.74,21.238,325,-0.737,2.168,9.258,1
183,35.262,-97.441,200.8,3.43,21.238,325,-0.747,2.165,9.265,1
184,35.262,-97.441,167.9,2.75,19.721,324,-0.751,2.154,9.255,1
185,35.262,-97.441,151.4,2.02,21.238,324,-0.76,2.186,9.434,1
186,35.262,-97.441,131.1,1.24,21.238,324,-0.739,2.168,9.264,1
187,35.262,-97.441,136.5,2.56,21.238,323,-0.756,2.15,9.259,1
188,35.262,-97.441,143.2,2.53,22.755,324,-0.754,2.157,9.258,1
189,35.262,-97.441,144.8,1.42,21.238,324,-0.744,2.176,9.419,1
190,35.262,-97.441,131.6,1.95,21.238,325,-0.76,2.177,9.413,1
191,35.262,-97.441,125.3,2.32,21.238,325,-0.748,2.563,9.203,1
192,35.262,-97.441,117.5,2.13,21.238,326,-0.771,4.777,8.524,1
193,35.262,-97.441,118.3,1.6,21.238,327,-0.776,4.759,8.556,1
194,35.262,-97.441,113.2,1.45,22.755,327,-0.595,4.311,8.826,1
195,35.262,-97.441,147.8,1.52,21.238,325,-0.52,4.011,8.864,0
196,35.262,-97.441,235.7,2.44,22.755,326,-0.056,3.899,8.644,1
197,35.262,-97.441,250.3,2.85,21.238,326,-0.457,3.257,9.249,1
198,35.262,-97.441,245.5,3.62,21.238,325,-0.929,3.546,8.798,0
199,35.262,-97.441,243.9,4.16,21.238,324,-0.694,3.299,8.72,1
200,35.262,-97.441,230,4.58,21.238,324,-0.768,3.442,8.976,1
201,35.262,-97.441,184.9,8.09,22.755,322,-0.761,2.993,9.313,1
202,35.261,-97.441,174.5,10.49,24.272,322,-1.171,2.644,8.405,0
203,35.261,-97.441,184.3,13.76,21.238,320,-1.154,2.668,8.958,0
204,35.261,-97.441,171.1,15.4,22.755,318,-0.718,2.637,8.874,0
205,35.261,-97.441,174.8,15.99,25.789,319,-0.679,2.169,9.233,1
206,35.261,-97.441,181.9,16.99,27.306,321,-0.697,1.995,9.143,1
207,35.26,-97.441,178.6,18.86,19.721,321,-0.818,2.006,9.331,1
208,35.26,-97.441,178.6,19.17,18.204,317,-0.896,1.929,9.492,1
209,35.26,-97.441,178.6,19.27,18.204,316,-0.673,1.861,9.25,1
210,35.26,-97.441,179.3,19.45,18.204,315,-0.506,1.897,9.591,0
212,35.26,-97.441,178.6,19.45,16.687,313,-0.82,1.895,9.622,1
212,35.26,-97.441,178.6,19.45,16.687,313,-0.82,1.895,9.622,1
213,35.259,-97.441,177.6,19.38,16.687,314,-1.067,1.782,9.206,0
214,35.259,-97.441,178.3,19.35,16.687,314,-0.926,1.929,9.548,0
215,35.259,-97.441,177.6,18.96,18.204,314,-0.888,1.919,9.536,1
216,35.259,-97.441,177.7,19.35,19.721,315,-0.828,1.937,9.576,0
217,35.259,-97.441,178.6,18.92,19.721,315,-0.984,2.006,9.495,1
218,35.258,-97.441,179.3,19.5,21.238,316,-1.081,2.382,9.163,1
219,35.258,-97.441,177.9,19.36,21.238,318,-0.992,2.627,9.732,0
220,35.258,-97.441,178.6,17.73,21.238,320,-0.89,2.144,9.319,1
221,35.258,-97.441,180,17.85,22.755,320,-0.943,2.017,9.22,1
222,35.258,-97.441,187.1,17.94,22.755,320,-0.873,2.355,9.21,1
223,35.258,-97.441,183.4,18.51,25.789,319,-0.806,2.359,8.794,1
224,35.257,-97.441,174.8,19.85,24.272,319,-0.977,2.435,9.247,1
225,35.257,-97.441,169.7,18.82,22.755,317,-0.951,2.439,9.176,1
226,35.257,-97.441,176.7,19.3,22.755,317,-0.803,2.41,9.037,1
227,35.257,-97.441,181.3,19.26,24.272,319,-0.735,2.629,9.666,0
228,35.257,-97.441,183.1,18.87,22.755,319,-1.129,2.209,9.265,1
229,35.257,-97.441,186.8,19.23,24.272,319,-0.97,2.11,9.65,1
230,35.256,-97.441,183.2,21.49,22.755,318,-0.825,2.005,9.583,0
231,35.256,-97.441,180.9,20.09,22.755,317,-1.01,1.909,9.502,0
232,35.256,-97.441,180.7,18.64,18.204,317,-1.107,2.407,8.947,1
233,35.256,-97.441,179.4,18.53,18.204,317,-1.05,2.502,9.122,1
234,35.256,-97.441,179.8,18.07,16.687,317,-0.931,2.325,9.149,1
236,35.256,-97.441,179.4,18.13,16.687,319,-0.898,2.143,9.275,1
236,35.256,-97.441,179.4,18.13,16.687,319,-0.898,2.143,9.275,1
237,35.255,-97.441,179.5,17.2,18.204,318,-0.896,2.059,9.183,1
238,35.255,-97.441,178.7,18.39,16.687,318,-1.062,2.066,9.489,1
239,35.255,-97.441,180.2,18.04,16.687,317,-1.063,2.093,9.339,0
240,35.255,-97.441,178.8,18.19,16.687,317,-1.007,2.104,9.866,0
241,35.255,-97.441,178.3,17.9,16.687,317,-0.833,2.055,9.551,0
242,35.255,-97.441,178,17.85,16.687,318,-0.812,2.425,9.446,0
243,35.254,-97.441,179.5,17.86,15.17,318,-0.866,2.686,9.189,0
244,35.254,-97.441,180.1,17.43,15.17,320,-0.921,2.658,9.2,1
245,35.254,-97.441,179.2,18.03,15.17,320,-0.895,2.633,9.256,1
246,35.254,-97.441,180.1,17.73,15.17,320,-1.284,2.658,9.385,1
247,35.254,-97.441,180,17.67,15.17,320,-1.08,2.608,9.199,1
248,35.254,-97.441,178.5,17.38,15.17,321,-0.942,2.648,9.268,1
249,35.253,-97.441,179.1,17.6,15.17,323,-0.938,2.601,9.1,0
250,35.253,-97.441,179.9,17.65,15.17,325,-0.953,2.694,8.63,0
251,35.253,-97.441,180.1,17.91,15.17,323,-0.888,2.618,9.234,1
252,35.253,-97.441,180.1,17.67,15.17,324,-0.183,2.595,9.054,1
253,35.253,-97.441,179.2,17.89,15.17,324,-0.689,2.59,9.091,1
254,35.253,-97.441,179.4,17.9,16.687,326,-0.699,2.517,9.278,1
255,35.252,-97.441,179.4,17.98,18.204,327,-0.677,2.248,8.952,1
256,35.252,-97.441,178.9,18.09,19.721,328,-0.896,2.126,9.173,1
257,35.252,-97.441,180.8,17.02,21.238,327,-0.829,2.016,9.38,1
258,35.252,-97.441,179,17.73,21.238,328,-0.876,1.906,9.403,0
260,35.252,-97.441,181.4,16.67,22.755,326,-0.791,1.903,9.408,1
260,35.252,-97.441,181.4,16.67,22.755,326,-0.791,1.903,9.408,1
261,35.251,-97.441,179.2,18.87,19.721,326,-0.877,2.139,9.308,1
262,35.251,-97.441,180.5,18.63,18.204,324,-0.966,2.052,9.094,1
263,35.251,-97.441,180.4,18.63,18.204,325,-0.984,2.042,9.384,1
264,35.251,-97.441,179.1,18.68,18.204,323,-1.009,2.117,9.444,1
265,35.251,-97.441,179.4,18.81,16.687,321,-0.81,1.997,9.022,1
266,35.251,-97.441,178.7,18.25,16.687,322,-0.982,2.086,9.377,1
267,35.25,-97.441,177.9,18.39,16.687,322,-1.019,2.048,9.401,1
268,35.25,-97.441,178.3,18.4,16.687,323,-0.883,2.07,9.615,1
269,35.25,-97.441,178.7,18.1,16.687,323,-0.901,1.923,9.55,0
270,35.25,-97.441,178.4,18.19,16.687,323,-0.843,1.859,9.358,1
271,35.25,-97.441,177.9,18.01,18.204,323,-0.688,2.031,9.578,0
272,35.25,-97.441,179.5,18.09,19.721,323,-0.547,2.26,9.296,0
273,35.249,-97.441,179.5,19.19,21.238,324,-0.818,2.436,9.404,1
274,35.249,-97.441,181.3,18.31,21.238,323,-0.846,2.318,9.379,1
275,35.249,-97.441,182.2,17.41,21.238,323,-0.756,2.263,9.273,1
276,35.249,-97.441,181.5,17.04,22.755,324,-0.547,2.368,9.382,0
277,35.249,-97.441,181.8,17.29,21.238,323,0.179,2.434,8.972,0
278,35.249,-97.441,175.2,17.38,21.238,324,-0.636,1.462,9.445,0
280,35.249,-97.441,183,17.5,18.204,323,-1.179,0.722,9.894,0
280,35.249,-97.441,183,17.5,18.204,323,-1.179,0.722,9.894,0
281,35.248,-97.441,184,14.89,16.687,323,-0.827,0.808,9.264,0
282,35.248,-97.441,182.8,13.13,15.17,323,-0.776,1.085,9.497,1
283,35.248,-97.441,183.6,11.08,15.17,322,-0.883,0.95,9.522,1
284,35.248,-97.441,182.1,9.45,15.17,322,-1.078,1.362,9.592,1
285,35.248,-97.441,181.2,8.26,15.17,322,-1.057,0.847,9.959,0
286,35.248,-97.441,179.4,7.87,15.17,324,-0.954,0.783,9.735,0
287,35.248,-97.441,174.8,6.1,15.17,324,-0.833,0.665,9.852,1
288,35.248,-97.441,176.7,6.16,15.17,325,-0.854,0.842,9.723,1
289,35.248,-97.441,177.9,6.05,16.687,327,-0.868,2.024,9.322,1
290,35.248,-97.441,163,5.23,18.204,327,-0.865,2.466,9.251,1
291,35.248,-97.441,159.1,0.99,16.687,328,-0.868,2.506,9.286,1
292,35.248,-97.441,175.1,0.34,16.687,329,-0.884,2.494,9.281,1
293,35.248,-97.441,174.4,0.22,16.687,331,-0.858,2.489,9.303,1
294,35.248,-97.441,0,0,16.687,329,-0.87,2.457,9.2,1
295,35.248,-97.441,0,0,16.687,329,-0.86,2.454,9.208,1
296,35.248,-97.441,0,0,16.687,329,-0.871,2.501,9.254,1
297,35.248,-97.441,0,0,16.687,330,-0.865,2.457,9.149,1
298,35.248,-97.441,0,0,16.687,330,-0.851,2.48,9.147,1
299,35.248,-97.441,0,0,16.687,330,-0.861,2.473,9.185,1
300,35.248,-97.441,0,0,16.687,330,-0.864,2.469,9.298,1
301,35.248,-97.441,0,0,16.687,330,-0.863,2.487,9.323,1
302,35.248,-97.441,0,0,16.687,330,-0.87,2.492,9.28,1
303,35.248,-97.441,0,0,16.687,330,-0.88,2.499,9.326,1
304,35.248,-97.441,0,0,16.687,330,-0.862,2.463,9.207,1
305,35.248,-97.441,0,0,16.687,331,-0.856,2.493,9.193,1
306,35.248,-97.441,0,0,16.687,331,-0.866,2.463,9.173,1
307,35.248,-97.441,0,0,16.687,331,-0.872,2.469,9.298,1
308,35.248,-97.441,0,0,16.687,331,-0.866,2.477,9.303,1
309,35.248,-97.441,0,0,16.687,331,-0.861,2.463,9.241,1
310,35.248,-97.441,0,0,16.687,331,-0.862,2.456,9.22,1
311,35.248,-97.441,0,0,16.687,331,-0.871,2.51,9.338,1
312,35.248,-97.441,0,0,16.687,331,-0.861,2.477,9.214,1
313,35.248,-97.441,0,0,16.687,331,-0.858,2.495,9.324,1
314,35.248,-97.441,0,0,16.687,331,-0.864,2.473,9.167,1
315,35.248,-97.441,0,0,16.687,331,-0.87,2.484,9.209,1
316,35.248,-97.441,0,0,16.687,331,-0.857,2.473,9.155,1
317,35.248,-97.441,0,0,16.687,331,-0.858,2.465,9.258,1
318,35.248,-97.441,0,0,16.687,331,-0.866,2.498,9.223,1
319,35.248,-97.441,0,0,16.687,331,-0.847,2.628,9.143,1
320,35.248,-97.441,0,0,16.687,331,-0.874,4.862,8.483,1
321,35.248,-97.441,0,0,16.687,331,-0.945,4.285,8.596,1
322,35.248,-97.441,0,0,16.687,331,-0.76,4.037,8.703,1
324,35.248,-97.441,0,0,16.687,331,-0.834,4.02,8.705,0
324,35.248,-97.441,0,0,16.687,331,-0.834,4.02,8.705,0
325,35.248,-97.441,179.2,6.33,15.17,330,-1.112,3.73,9.02,1
326,35.247,-97.441,179.2,7.94,15.17,329,-0.85,3.696,8.925,1
327,35.247,-97.441,179.2,8.73,15.17,330,-0.71,3.46,8.935,1
328,35.247,-97.441,181,8.97,16.687,330,-0.981,3.445,9.099,1
329,35.247,-97.441,182.9,11.1,16.687,330,-1.195,3.354,8.826,1
331,35.247,-97.441,181.6,11.2,16.687,329,-0.908,3.373,8.993,1
331,35.247,-97.441,181.6,11.2,16.687,329,-0.908,3.373,8.993,1
332,35.247,-97.441,183.1,11.56,18.204,329,-1.025,3.42,8.947,1
333,35.247,-97.441,185.2,12.01,19.721,328,-1.033,3.212,9.018,1
334,35.247,-97.441,183.9,13.22,21.238,330,-0.861,3.103,8.965,1
335,35.246,-97.441,178.4,14.11,24.272,332,-0.747,2.205,9.319,1
336,35.246,-97.441,174.6,16.77,27.306,331,-0.763,2.159,9.443,1
337,35.246,-97.441,169.4,14.23,30.34,332,-0.784,1.968,9.252,1
338,35.246,-97.441,168.5,15.08,25.789,331,-0.757,1.916,9.114,0
339,35.246,-97.441,172.7,16.92,25.789,332,-0.751,2.34,8.763,0
340,35.246,-97.441,180.2,17.06,19.721,334,-1.064,2.536,9.394,0
341,35.246,-97.441,181,17.72,18.204,334,-0.88,2.619,9.239,0
342,35.245,-97.441,180.9,17.29,18.204,335,-1.029,2.645,9.48,1
343,35.245,-97.441,181,17.54,16.687,334,-1.154,2.585,9.315,0
344,35.245,-97.441,180.7,18.04,16.687,332,-0.841,2.549,9.382,1
345,35.245,-97.441,180.6,18.82,16.687,331,-1.132,2.197,9.334,1
346,35.245,-97.441,179.4,18.69,16.687,332,-0.696,1.949,9.45,1
347,35.244,-97.441,180.1,18.2,16.687,331,-0.952,2.097,9.494,0
348,35.244,-97.441,179.9,18.19,16.687,331,-0.818,2.04,9.334,1
349,35.244,-97.441,178.1,18,16.687,332,-0.764,2.173,9.003,1
350,35.244,-97.441,180.3,18.04,16.687,332,-1.107,2.584,9.299,0
351,35.244,-97.441,178.1,18.45,16.687,332,-0.933,2.605,9.213,1
352,35.244,-97.441,180.2,18.28,16.687,333,-1.201,2.58,9.357,1
353,35.243,-97.441,179.4,18.33,16.687,333,-1.122,2.472,9.14,1
354,35.243,-97.441,179.1,18.82,16.687,334,-0.944,1.997,9.133,1
355,35.243,-97.441,178.9,19.08,18.204,333,-0.871,1.977,9.341,1
356,35.243,-97.441,179.4,18.78,16.687,334,-0.786,1.902,9.586,1
357,35.243,-97.441,178.9,18.76,18.204,335,-1.007,1.919,9.397,0
358,35.243,-97.441,178.8,18.2,16.687,335,-0.92,2.439,9.285,1
359,35.242,-97.441,177.2,17.61,16.687,336,-0.965,2.236,9.477,1
360,35.242,-97.441,176.8,17.85,18.204,335,-0.841,2.165,9.396,1
361,35.242,-97.441,177.9,17.91,18.204,335,-0.824,2.15,9.298,1
362,35.242,-97.441,177.7,18.53,19.721,335,-0.882,2.24,9.57,0
363,35.242,-97.441,180.7,17.6,18.204,335,-1.072,2.196,9.321,1
364,35.242,-97.441,181,17.49,18.204,336,-0.618,2.163,8.835,0
365,35.242,-97.441,181.6,16.93,18.204,336,-1.064,2.558,9.292,1
366,35.241,-97.441,181.6,17.52,16.687,336,-1.202,2.588,9.296,1
367,35.241,-97.441,181.8,17.42,16.687,336,-1.101,2.532,9.223,1
368,35.241,-97.441,181.4,17.87,16.687,337,-0.932,2.588,8.845,0
369,35.241,-97.441,181.1,17.96,16.687,337,-0.943,2.064,9.128,0
370,35.241,-97.441,181.1,18.41,18.204,337,-0.85,2.169,9.346,1
371,35.241,-97.441,179.2,18.57,19.721,338,-1.004,2.177,9.284,1
372,35.24,-97.441,177.9,18.56,16.687,336,-0.949,2.151,9.073,0
373,35.24,-97.441,179.8,18.2,16.687,336,-0.965,2.134,9.213,1
375,35.24,-97.441,179.2,17.67,16.687,338,-0.896,2.214,9.381,1
375,35.24,-97.441,179.2,17.67,16.687,338,-0.896,2.214,9.381,1
376,35.24,-97.441,180.8,17.25,16.687,338,-0.883,2.22,9.508,1
377,35.24,-97.441,180.7,17.17,16.687,339,-1.001,2.201,9.19,1
378,35.239,-97.441,180.5,16.91,15.17,339,-1.027,2.192,9.41,1
379,35.239,-97.441,178.7,16.93,15.17,339,-1.036,2.22,9.374,1
380,35.239,-97.441,179.7,16.63,15.17,340,-0.98,2.208,9.331,1
381,35.239,-97.441,179,16.52,16.687,341,-0.975,2.199,9.425,1
382,35.239,-97.441,181,16.54,16.687,341,-0.973,2.221,9.375,1
383,35.239,-97.441,180.6,16.52,18.204,342,-0.977,2.453,9.166,1
384,35.239,-97.441,179.5,16.94,16.687,340,-0.894,2.17,9.342,1
385,35.238,-97.441,179.9,17.23,16.687,340,-0.993,2.449,9.387,1
386,35.238,-97.441,179.3,17.41,16.687,340,-1.007,2.524,9.253,0
387,35.238,-97.441,179,16.88,16.687,338,-0.857,2.497,9.026,1
388,35.238,-97.441,180,17.22,16.687,338,-0.956,2.432,8.959,0
389,35.238,-97.441,180.4,17,16.687,338,-1.071,2.525,9.365,1
390,35.238,-97.441,180,17.36,16.687,338,-1.028,2.54,9.32,1
391,35.237,-97.441,179.7,17.83,16.687,339,-1.017,2.153,9.485,1
392,35.237,-97.441,180.2,18.2,16.687,338,-0.762,1.969,9.292,1
393,35.237,-97.441,177.9,18.39,16.687,338,-0.91,2.35,9.399,1
394,35.237,-97.441,178.1,17.71,16.687,338,-0.947,2.48,9.287,1
395,35.237,-97.441,179.2,17.68,16.687,336,-0.917,2.566,9.165,1
396,35.237,-97.441,179.7,17.34,18.204,337,-1.285,2.814,9.596,0
397,35.236,-97.441,181.2,18.03,16.687,337,-0.975,2.245,9.262,1
398,35.236,-97.441,179.5,18.53,16.687,338,-0.935,2.52,9.09,1
399,35.236,-97.441,178.6,17.94,16.687,338,-0.89,2.527,9.159,1
400,35.236,-97.441,179.5,18.44,16.687,337,-0.908,2.056,9.057,1
401,35.236,-97.441,179,18.37,18.204,337,-0.892,1.913,9.369,0
402,35.236,-97.441,178.9,18.65,16.687,337,-0.832,1.704,8.866,0
403,35.235,-97.441,179.1,17.92,16.687,337,-1.062,1.89,9.356,0
404,35.235,-97.441,179.7,17.67,16.687,336,-0.904,1.844,9.439,1
405,35.235,-97.441,180.3,18.1,16.687,333,-0.998,1.882,9.429,1
406,35.235,-97.441,179.7,17.45,16.687,334,-1.083,1.926,9.706,1
407,35.235,-97.441,179.8,16.98,16.687,335,-1.046,1.954,9.78,0
408,35.235,-97.441,179.1,16.55,16.687,335,-0.994,1.861,9.432,0
409,35.235,-97.441,179.9,16.24,16.687,334,-0.937,1.872,9.522,0
410,35.234,-97.441,180.5,15.7,16.687,334,-1.075,1.721,9.296,1
411,35.234,-97.441,179,15.75,16.687,334,-0.823,1.771,9.154,0
413,35.234,-97.441,178.3,15.45,15.17,334,-0.958,1.221,9.359,0
413,35.234,-97.441,178.3,15.45,15.17,334,-0.958,1.221,9.359,0
414,35.234,-97.441,177.9,13.98,16.687,334,-0.977,1.439,10.036,0
415,35.234,-97.441,177.7,12.98,16.687,334,-0.989,1.024,9.744,0
416,35.234,-97.441,178.1,12.19,16.687,334,-0.77,1.303,9.88,1
417,35.234,-97.441,177.3,10.8,16.687,334,-0.668,0.827,9.806,1
418,35.234,-97.441,178,9.47,16.687,333,-0.671,0.712,9.802,1
419,35.233,-97.441,179.9,8.75,16.687,333,-0.696,0.646,9.749,1
420,35.233,-97.441,179.6,7.57,16.687,333,-0.873,0.831,9.782,1
421,35.233,-97.441,178,6.41,16.687,334,-0.8,0.975,9.7,1
422,35.233,-97.441,181.1,4.24,16.687,335,-0.851,0.974,9.753,1
423,35.233,-97.441,182.1,3.28,16.687,335,-0.82,1.343,9.617,1
424,35.233,-97.441,181.2,2.48,16.687,336,-0.798,1.582,9.587,1
425,35.233,-97.441,175.3,1.72,16.687,335,-0.825,1.564,9.446,1
426,35.233,-97.441,181.4,0.87,16.687,336,-0.815,1.806,9.406,1
427,35.233,-97.441,181,0.67,16.687,335,-0.816,2.113,9.45,1
428,35.233,-97.441,181,0.67,16.687,335,-0.817,2.108,9.268,1
429,35.233,-97.441,180.6,0.48,16.687,335,-0.825,2.123,9.408,1
430,35.233,-97.441,180.9,0.51,16.687,335,-0.82,2.118,9.369,1
431,35.233,-97.441,0,0,15.17,334,-0.821,2.099,9.369,1
432,35.233,-97.441,0,0,15.17,334,-0.844,2.118,9.329,1
433,35.233,-97.441,0,0,15.17,334,-0.835,2.124,9.423,1
434,35.233,-97.441,0,0,15.17,334,-0.82,2.112,9.284,1
435,35.233,-97.441,0,0,15.17,334,-0.823,2.132,9.38,1
436,35.233,-97.441,0,0,15.17,334,-0.814,2.091,9.271,1
437,35.233,-97.441,0,0,15.17,334,-0.809,2.105,9.261,1
438,35.233,-97.441,0,0,15.17,334,-0.829,2.117,9.299,1
439,35.233,-97.441,0,0,15.17,332,-0.826,2.123,9.322,1
440,35.233,-97.441,0,0,15.17,332,-0.845,2.109,9.384,1
441,35.233,-97.441,0,0,15.17,332,-0.818,2.127,9.457,1
442,35.233,-97.441,0,0,15.17,332,-0.805,2.125,9.435,1
443,35.233,-97.441,0,0,15.17,332,-0.825,2.474,9.255,1
444,35.233,-97.441,0,0,15.17,332,-0.81,2.743,9.109,1
445,35.233,-97.441,0,0,15.17,332,-0.842,3.879,8.811,1
446,35.233,-97.441,0,0,15.17,332,-0.802,4.201,8.782,1
448,35.233,-97.441,0,0,15.17,332,-0.786,3.252,8.836,1
448,35.233,-97.441,0,0,15.17,332,-0.786,3.252,8.836,1
449,35.233,-97.441,181.7,5,15.17,331,-0.533,3.323,8.826,1
450,35.233,-97.441,179.2,6.62,15.17,332,-0.524,2.637,9.052,1
451,35.233,-97.441,179.8,7.7,15.17,331,-0.773,2.912,9.391,0
452,35.233,-97.441,180.8,8.47,15.17,332,-0.647,2.926,9.088,1
453,35.233,-97.441,179.3,9,15.17,331,-0.687,2.982,8.67,1
454,35.233,-97.441,180.6,10.07,15.17,334,-0.721,3.009,8.951,1
455,35.233,-97.441,178.4,10.22,16.687,333,-0.77,3.105,9.185,1
456,35.232,-97.441,179.2,11.92,16.687,333,-1.127,2.256,9.476,1
457,35.232,-97.441,181.3,13.01,16.687,333,-0.769,2.151,9.447,1
458,35.232,-97.441,180.2,13.17,16.687,333,-0.767,1.968,9.255,1
459,35.232,-97.441,181.5,13.17,16.687,334,-0.772,1.495,9.607,1
460,35.232,-97.441,180.4,13.15,16.687,333,-0.955,0.559,9.593,0
461,35.232,-97.441,181,12.48,16.687,332,-0.931,1.546,9.417,0
462,35.232,-97.441,179.4,11.33,16.687,332,-0.837,2.123,9.498,1
463,35.232,-97.441,179,11.41,18.204,331,-0.997,2.087,9.404,1
464,35.232,-97.441,178.8,10.98,18.204,332,-0.698,2.378,9.335,1
465,35.231,-97.441,178.5,10.45,18.204,332,-0.814,2.61,9.346,1
467,35.231,-97.441,180.2,10.46,16.687,331,-0.752,2.817,9.014,1
467,35.231,-97.441,180.2,10.46,16.687,331,-0.752,2.817,9.014,1
468,35.231,-97.441,178.2,11.62,16.687,331,-0.719,2.612,9.101,0
469,35.231,-97.441,177.8,12.23,16.687,330,-0.513,2.116,9.174,0
470,35.231,-97.441,182.3,12.52,16.687,329,-0.652,1.648,9.496,1
471,35.231,-97.441,181.8,12.33,16.687,330,-0.704,1.881,9.141,0
472,35.231,-97.441,178.3,12.18,18.204,328,-0.546,2.628,9.237,1
473,35.231,-97.441,180.2,11.87,18.204,329,-0.958,2.213,9.453,0
474,35.23,-97.441,181.6,11.89,18.204,329,-0.565,2.057,9.546,1
475,35.23,-97.441,184.2,11.56,18.204,330,-0.808,1.989,9.276,1
476,35.23,-97.441,179.6,11.67,18.204,331,-0.912,2.134,9.652,0
477,35.23,-97.441,179.5,11.42,16.687,331,-0.826,2.04,9.417,1
478,35.23,-97.441,180.4,11.18,16.687,332,-0.631,1.971,9.39,1
479,35.23,-97.441,179,10.95,16.687,332,-0.714,2.332,9.194,1
480,35.23,-97.441,181.4,10.62,16.687,331,-0.724,3.311,9.29,1
481,35.23,-97.441,182.7,11.04,16.687,330,-0.517,3.02,9.137,0
482,35.23,-97.441,180.5,11.5,18.204,328,-0.354,2.895,9.023,1
483,35.229,-97.441,183.2,13.47,16.687,328,-1.073,2.223,9.597,1
484,35.229,-97.441,182.8,13.82,16.687,328,-1.217,1.799,8.787,0
485,35.229,-97.441,183.5,14,15.17,329,-1.343,1.858,8.804,0
486,35.229,-97.441,182.7,14.02,15.17,329,-1.133,1.978,9.327,0
488,35.229,-97.441,180.9,13.76,15.17,329,-0.994,1.919,9.231,0
488,35.229,-97.441,180.9,13.76,15.17,329,-0.994,1.919,9.231,0
489,35.229,-97.441,180.3,12.88,15.17,329,-0.968,2.015,9.289,0
490,35.229,-97.441,178.6,12.78,15.17,327,-0.584,1.952,8.868,0
491,35.229,-97.441,181.5,12.7,16.687,327,-0.967,2.082,9.693,0
492,35.228,-97.441,179.8,12.61,16.687,327,-0.975,2.27,9.127,0
493,35.228,-97.441,180.9,12.02,16.687,327,-1.05,2.382,9.284,1
494,35.228,-97.441,182.1,11.97,16.687,328,-0.864,2.297,9.173,1
495,35.228,-97.441,180.4,12.42,16.687,328,-0.895,2.547,9.533,0
496,35.228,-97.441,179.5,12.46,16.687,329,-1.101,2.33,9.407,0
497,35.228,-97.441,180.8,12.02,16.687,329,-0.906,2.302,8.929,1
498,35.228,-97.441,179.3,12.45,16.687,330,-1.043,2.171,9.727,0
499,35.228,-97.441,181.4,12.83,16.687,328,-1.235,2.202,10.095,0
500,35.228,-97.441,181.2,12.72,16.687,326,-0.925,2.373,9.268,1
501,35.227,-97.441,180.9,12.46,15.17,327,-0.983,2.411,9.458,1
502,35.227,-97.441,180.4,13.59,15.17,327,-0.587,2.259,8.754,1
503,35.227,-97.441,180.4,13.01,15.17,328,-0.84,2.36,9.171,0
504,35.227,-97.441,179.6,13.37,15.17,326,-1.04,2.033,9.224,1
505,35.227,-97.441,178.7,13.46,16.687,326,-1.205,1.986,9.434,1
506,35.227,-97.441,179.8,13.3,16.687,326,-0.935,2.145,8.829,0
507,35.227,-97.441,180.4,13.61,16.687,324,-0.976,2.255,9.395,0
508,35.227,-97.441,180.6,13.48,16.687,325,-0.962,2.153,9.093,0
509,35.226,-97.441,180.2,13.44,16.687,325,-0.671,2.272,8.877,1
511,35.226,-97.441,180.1,13.59,16.687,326,-1.255,2.189,9.398,0
511,35.226,-97.441,180.1,13.59,16.687,326,-1.255,2.189,9.398,0
512,35.226,-97.441,180.7,13.8,16.687,325,-1.434,2.14,9.368,0
513,35.226,-97.441,180.3,13.82,16.687,325,-2.054,1.988,9.303,0
514,35.226,-97.441,177.1,13.48,16.687,325,-2.554,1.94,9.388,0
515,35.226,-97.441,170.6,12.97,16.687,325,-2.403,2.225,9.166,0
516,35.226,-97.441,160.7,12.26,15.17,326,-2.09,2.45,9.335,0
517,35.225,-97.441,156.9,12.73,16.687,326,-0.767,2.379,8.568,0
518,35.225,-97.441,152.2,12.7,16.687,326,-1.126,2.232,8.186,0
519,35.225,-97.441,153.1,12.68,16.687,326,-0.56,2.491,9.114,0
520,35.225,-97.441,153.1,13.35,16.687,327,-1.018,2.083,9.138,1
521,35.225,-97.441,152.5,13.71,16.687,327,-1.307,2.014,9.531,0
522,35.225,-97.441,152.5,13.7,16.687,329,-1.117,2.474,9.146,0
523,35.225,-97.441,152.5,14.06,18.204,328,-0.754,2.145,9.224,0
524,35.225,-97.44,152.8,13.72,18.204,329,-0.697,2.113,9.02,0
525,35.225,-97.44,153.4,13.63,18.204,328,-0.589,1.857,8.12,0
526,35.225,-97.44,153.8,13.28,18.204,330,-1.113,2.176,8.731,0
527,35.224,-97.44,151.4,13.16,18.204,331,-1.264,2.155,9.208,1
528,35.224,-97.44,151.1,13.47,18.204,329,-0.811,1.582,9.602,1
529,35.224,-97.44,152.2,13.22,18.204,329,-1.632,1.084,9.739,0
530,35.224,-97.44,152.4,13.45,18.204,328,-1.176,0.431,10.125,0
531,35.224,-97.44,150.8,12.88,18.204,328,-1.05,-0.486,9.921,0
532,35.224,-97.44,154.7,12.47,19.721,327,-1.08,0.712,9.684,0
533,35.224,-97.44,157.4,10.58,19.721,330,-0.94,0.793,9.636,0
535,35.224,-97.44,160.7,8.03,19.721,330,-1.11,1.057,9.745,0
535,35.224,-97.44,160.7,8.03,19.721,330,-1.11,1.057,9.745,0
536,35.224,-97.44,180.8,4.64,21.238,330,-1.007,1.142,9.712,0
537,35.224,-97.44,191.5,4,21.238,330,-1.005,1.399,9.54,1
538,35.224,-97.44,181.4,3.25,21.238,330,-1.029,1.499,9.484,1
539,35.224,-97.44,170.3,3.13,24.272,331,-1.033,2.218,9.341,1
540,35.224,-97.44,170.2,3.26,22.755,332,-1.026,2.209,9.352,1
541,35.224,-97.44,170.5,2.82,24.272,331,-1.024,2.189,9.229,1
542,35.224,-97.44,181.6,2.45,27.306,331,-1.019,2.211,9.376,1
543,35.224,-97.44,181.6,2.45,27.306,331,-1.012,2.195,9.217,1
544,35.224,-97.44,185.1,1.86,27.306,331,-1.018,2.214,9.286,1
545,35.224,-97.44,144.6,0.87,22.755,333,-1.024,2.214,9.394,1
546,35.224,-97.44,144.6,0.87,22.755,333,-1.01,2.188,9.246,1
547,35.224,-97.44,115.5,0.61,22.755,334,-1.034,2.211,9.408,1
548,35.224,-97.44,115.5,0.61,22.755,334,-1.027,2.237,9.383,1
549,35.224,-97.44,91.1,0.68,24.272,332,-1.024,2.218,9.422,1
550,35.224,-97.44,91.1,0.68,24.272,332,-1.027,2.209,9.299,1
551,35.224,-97.44,91.1,0.68,24.272,332,-1.005,2.187,9.252,1
552,35.224,-97.44,193,0.44,24.272,332,-1.018,2.521,9.157,1
553,35.224,-97.44,225.4,0.49,27.306,333,-0.992,4.909,8.549,1
554,35.224,-97.44,230.7,0.28,24.272,331,-0.911,4.171,8.593,0
555,35.224,-97.44,230.7,0.28,24.272,331,-1.076,3.13,8.967,0
556,35.224,-97.44,144.9,2.62,22.755,331,-0.828,3.19,8.224,0
557,35.224,-97.44,153.3,5.16,21.238,334,-1.251,3.654,8.953,0
558,35.224,-97.44,153,6.39,19.721,332,-0.713,3.673,8.568,0
559,35.223,-97.44,152.3,7.87,19.721,332,-0.664,2.924,8.833,1
561,35.223,-97.44,154.6,9.1,18.204,334,-0.916,2.208,9.304,0
561,35.223,-97.44,154.6,9.1,18.204,334,-0.916,2.208,9.304,0
562,35.223,-97.44,150.9,11.26,19.721,330,-0.888,2.642,9.252,0
563,35.223,-97.44,149.2,11.5,19.721,330,-0.907,2.713,9.247,0
564,35.223,-97.439,154.4,12.01,19.721,331,-1.29,2.812,9.037,1
565,35.223,-97.439,153.7,12.63,19.721,331,-1.131,2.373,9.649,0
566,35.223,-97.439,152.2,12.78,19.721,331,-1.677,2.544,11.16,0
567,35.223,-97.439,153,13.21,19.721,331,-0.235,1.785,8.067,0
568,35.223,-97.439,154.5,12.94,19.721,332,-0.897,2.643,9.456,0
569,35.222,-97.439,154.7,13.59,19.721,327,-1.204,2.755,9.543,0
570,35.222,-97.439,151.6,13.66,19.721,328,-0.692,2.726,9.273,0
571,35.222,-97.439,152,14.14,19.721,327,-1.032,2.833,9.453,0
572,35.222,-97.439,152.9,14.05,19.721,331,-0.755,2.299,9.449,0
573,35.222,-97.439,153.1,14.04,19.721,332,-1.044,1.966,9.335,0
574,35.222,-97.439,153.8,14.29,19.721,333,-1.269,2.022,9.589,1
575,35.222,-97.439,153.2,13.89,19.721,333,-1.041,2.118,9.64,0
576,35.222,-97.439,154.9,13.4,19.721,333,-0.944,2.07,9.631,0
577,35.222,-97.439,152.9,13.24,19.721,332,-1.112,1.936,9.123,0
578,35.222,-97.439,152.5,13.18,19.721,332,-0.852,1.879,9.153,0
579,35.221,-97.438,153.5,12.73,19.721,332,-1.122,1.605,9.377,1
580,35.221,-97.438,150.5,12.7,18.204,332,-1.398,0.978,10.293,0
581,35.221,-97.438,153.9,12.9,18.204,334,-0.818,0.1,10.046,0
582,35.221,-97.438,154.5,11.82,18.204,333,-0.952,0.019,10.128,0
583,35.221,-97.438,153.4,9.07,18.204,333,-0.872,0.658,9.743,0
584,35.221,-97.438,155,8.08,18.204,333,-0.887,-0.061,10.067,0
585,35.221,-97.438,153.2,6.43,18.204,333,-0.788,0.911,9.785,0
586,35.221,-97.438,160.4,2.82,18.204,330,-0.846,1.25,9.656,1
587,35.221,-97.438,151.6,1.61,16.687,331,-0.877,1.674,9.439,1
588,35.221,-97.438,152,0.78,16.687,331,-0.864,2.099,9.378,1
589,35.221,-97.438,151.6,0.43,16.687,331,-0.88,2.137,9.43,1
590,35.221,-97.438,0,0,16.687,330,-0.872,2.154,9.429,1
591,35.221,-97.438,0,0,16.687,330,-0.877,2.157,9.442,1
592,35.221,-97.438,0,0,16.687,330,-0.873,2.162,9.459,1
593,35.221,-97.438,0,0,16.687,330,-0.877,2.167,9.448,1
594,35.221,-97.438,0,0,16.687,330,-0.87,2.14,9.279,1
595,35.221,-97.438,0,0,16.687,330,-0.867,3.659,8.874,1
596,35.221,-97.438,0,0,16.687,330,-0.918,4.431,8.655,1
597,35.221,-97.438,0,0,16.687,330,-0.923,3.767,8.774,1
598,35.221,-97.438,0,0,16.687,330,-0.779,3.135,8.701,0
599,35.221,-97.438,0,0,16.687,330,-0.63,3.452,8.656,0
601,35.221,-97.438,0,0,16.687,330,-0.776,3.525,8.882,0
601,35.221,-97.438,0,0,16.687,330,-0.776,3.525,8.882,0
602,35.221,-97.438,152.7,7.85,15.17,332,-0.817,3.392,8.919,1
603,35.221,-97.438,151.7,8.52,16.687,330,-1.299,2.966,9.407,0
604,35.221,-97.438,151.9,10.47,16.687,327,-0.958,2.804,9.219,0
605,35.22,-97.438,151.1,11.14,16.687,328,-1.212,3.032,9.573,0
606,35.22,-97.438,150.6,11.09,16.687,327,-1.148,2.482,9.343,0
607,35.22,-97.438,150.4,11.79,16.687,328,-0.979,2.3,9.084,0
608,35.22,-97.438,151.5,12.49,16.687,327,-1.086,2.11,9.16,0
609,35.22,-97.438,152,12.32,18.204,327,-0.959,2.284,9.324,0
610,35.22,-97.437,152.6,12.55,18.204,326,-0.849,2.354,9.241,1
611,35.22,-97.437,153.2,13.51,16.687,326,-0.912,2.292,9.068,0
612,35.22,-97.437,153.4,13.25,16.687,325,-1.013,2.512,9.681,0
613,35.22,-97.437,152.8,13.41,16.687,324,-0.849,2.133,9.223,0
614,35.219,-97.437,152.7,14.35,16.687,325,-0.638,1.99,9.413,0
615,35.219,-97.437,152.6,14.03,16.687,325,-0.77,1.975,9.289,1
616,35.219,-97.437,153.9,13.32,16.687,327,-0.344,1.995,9.422,1
617,35.219,-97.437,155.2,13.84,16.687,326,-0.163,2.182,10.189,0
618,35.219,-97.437,156.3,12.84,16.687,331,-0.87,1.908,8.755,1
619,35.219,-97.437,155.4,13.02,16.687,331,-1.122,2.217,9.295,0
620,35.219,-97.437,156,12.64,16.687,330,-1.139,2.121,9.404,1
621,35.219,-97.437,154.3,13.03,16.687,330,-0.262,2.347,10.408,0
622,35.219,-97.437,153.2,13.41,16.687,330,-0.222,2.003,9.602,0
623,35.218,-97.437,155.6,13.69,16.687,331,0.143,2.196,9.068,0
624,35.218,-97.437,157.9,12.63,16.687,332,1.686,2.144,9.437,0
625,35.218,-97.437,162.5,12.72,16.687,331,-0.491,2.517,9.375,1
626,35.218,-97.436,167.5,12.75,16.687,330,-0.811,2.625,9.291,1
627,35.218,-97.436,174.7,12.85,16.687,330,-0.87,2.642,9.627,0
628,35.218,-97.436,176.2,13.07,18.204,327,-0.805,2.521,9.329,1
629,35.218,-97.436,177.7,13.33,18.204,326,-0.541,2.152,9.433,1
630,35.218,-97.436,177.4,13.87,18.204,329,-0.845,2.211,10.197,0
631,35.217,-97.436,178.2,13.81,18.204,329,-0.628,1.787,8.806,0
633,35.217,-97.436,178.1,13.84,18.204,329,-1.11,2.25,10.224,0
633,35.217,-97.436,178.1,13.84,18.204,329,-1.11,2.25,10.224,0
634,35.217,-97.436,179.4,13.35,18.204,326,-1.094,2.182,8.892,0
635,35.217,-97.436,180.6,13.63,18.204,326,-1.049,2.39,8.788,0
636,35.217,-97.436,180,13.68,19.721,325,-1.268,2.754,9.654,0
637,35.217,-97.436,179.4,13.95,18.204,326,-0.979,2.466,8.959,0
638,35.217,-97.436,178.8,13.69,18.204,325,-0.806,1.907,8.478,0
639,35.217,-97.436,178.9,14.64,18.204,325,-0.889,1.911,8.947,0
