time,lat,lng,bearing,spd,acc,alt,accx,accy,accz,stable,
0,35.291,-97.441,181.8,8.1303,3,331,-1.071,-0.57,9.964,0
1,35.291,-97.441,180.7,10.061,3,331,-0.381,-0.938,9.665,0
2,35.291,-97.441,178.3,11.661,3,330,-0.631,0.274,8.029,0
3,35.29,-97.441,177.8,13.031,3,330,-0.839,0.044,10.249,0
4,35.29,-97.441,179.1,14.502,3,330,-0.491,-0.242,9.581,0
5,35.29,-97.441,179.7,15.993,3,329,-0.301,-0.284,10.008,0
6,35.29,-97.441,179.7,17.414,3,329,-0.001,-0.17,9.511,0
7,35.29,-97.441,179.9,18.434,3,328,0.295,-0.031,9.696,0
8,35.29,-97.441,180.1,19.294,3,328,0.413,-0.215,9.506,0
9,35.29,-97.441,180.3,19.914,3,327,0.204,-0.04,9.972,0
10,35.289,-97.441,180.5,20.584,3,327,0.427,-0.414,9.79,0
11,35.289,-97.441,180.4,21.274,3,326,0.452,-0.144,9.664,0
12,35.289,-97.441,179.9,21.865,3,326,0.33,0.186,9.981,0
13,35.289,-97.441,180,22.405,3,325,1.129,-0.16,10.713,0
14,35.289,-97.441,180.1,22.604,3,324,1.209,0.114,9.682,0
15,35.288,-97.441,180.2,22.624,3,324,1.193,-0.27,9.838,0
16,35.288,-97.441,180.2,22.523,3,323,1.108,-0.225,9.603,0
17,35.288,-97.441,180,22.392,3,323,0.799,0.018,9.929,0
18,35.288,-97.441,180,22.372,3,322,0.633,0.015,9.037,0
19,35.288,-97.441,180,22.49,3,323,0.716,-0.23,10.184,0
20,35.287,-97.441,179.9,22.66,3,322,0.586,0.055,9.879,0
21,35.287,-97.441,179.5,22.82,3,322,0.422,0.391,9.662,0
22,35.287,-97.441,179.6,23.01,3,321,0.741,-0.033,9.816,0
23,35.287,-97.441,179.9,23.191,3,322,0.727,0.062,10.064,0
24,35.287,-97.441,179.8,23.36,3,322,0.724,0.55,9.53,0
25,35.286,-97.441,179.8,23.36,3,321,0.828,0.485,9.288,0
26,35.286,-97.441,180,23.23,3,320,0.917,0.246,9.749,0
27,35.286,-97.441,180.2,23.141,3,321,0.809,0.109,9.382,0
28,35.286,-97.441,180.3,23.071,3,320,0.854,0.107,9.998,0
29,35.285,-97.441,180.4,23.051,3,320,0.884,0.223,10.084,0
30,35.285,-97.441,180.1,23.001,3,320,0.862,0.117,9.946,0
31,35.285,-97.441,180,23,3,320,1.061,-0.074,9.573,0
32,35.285,-97.441,180,23,3,320,0.934,0.148,9.477,0
33,35.285,-97.441,179.8,22.88,3,320,0.743,0.666,10.263,0
34,35.284,-97.441,179.8,22.72,3,319,0.947,0.191,9.41,0
35,35.284,-97.441,179.8,22.521,3,319,0.859,0.119,9.783,0
36,35.284,-97.441,180.2,22.33,3,319,0.717,-0.019,10.203,0
37,35.284,-97.441,180.1,22.21,3,319,0.879,0.288,9.345,0
38,35.284,-97.441,179.9,22.25,3,319,0.581,-0.068,9.714,0
39,35.283,-97.441,180,22.29,3,318,0.688,0.184,10.341,0
40,35.283,-97.441,180.1,22.35,3,318,0.811,-0.123,10.201,0
41,35.283,-97.441,180,22.39,3,318,0.683,0.179,10.058,0
42,35.283,-97.441,179.9,22.451,3,318,0.99,0.219,10.426,0
43,35.283,-97.441,180.2,22.5,3,318,1.181,-0.063,10.051,0
44,35.282,-97.441,180.3,22.36,3,317,0.981,0.326,9.717,0
45,35.282,-97.441,179.8,22.17,3,317,1.064,0.205,9.832,0
46,35.282,-97.441,179.9,21.93,3,317,0.957,0.07,9.743,0
47,35.282,-97.441,180.1,21.71,3,317,0.942,0.372,8.587,0
48,35.282,-97.441,180,21.41,3,317,1.147,-0.086,10.073,0
50,35.281,-97.441,180.2,21.08,3,317,0.871,0.22,9.455,0
50,35.281,-97.441,180.2,21.08,3,317,0.871,0.22,9.455,0
51,35.281,-97.441,180.1,20.411,3,317,0.993,-0.047,9.515,0
52,35.281,-97.441,179.9,20,3,317,0.787,0.304,9.677,0
53,35.281,-97.441,179.9,19.701,3,317,0.76,0.15,9.8,0
54,35.281,-97.441,179.7,19.551,3,318,0.652,0.319,9.34,0
55,35.28,-97.441,179.8,19.431,3,318,0.6,0.36,9.807,0
56,35.28,-97.441,180,19.47,3,319,0.554,0.309,9.979,0
57,35.28,-97.441,180.2,19.51,3,319,0.347,0.142,9.884,0
58,35.28,-97.441,180.2,19.64,3,319,0.604,-0.203,9.506,0
59,35.28,-97.441,179.9,19.91,3,320,0.316,0.163,10.524,0
60,35.279,-97.441,179.7,20.21,3,320,0.178,0.118,9.775,0
61,35.279,-97.441,180,20.54,3,320,0.212,-0.041,9.895,0
62,35.279,-97.441,180,20.91,3,320,0.579,0.237,9.756,0
63,35.279,-97.441,180,21.1,3,319,0.729,0.408,9.255,0
64,35.279,-97.441,180.2,20.91,3,319,1.369,-0.067,10.568,0
65,35.279,-97.441,180.2,20.47,3,319,1.403,0.327,10,0
66,35.278,-97.441,180.4,19.74,3,319,1.345,0.522,9.744,0
67,35.278,-97.441,181.1,19.07,3,319,1.395,0.963,9.885,0
68,35.278,-97.441,182.4,18.32,3,319,1.307,1.473,9.682,0
69,35.278,-97.441,185.1,17.52,3,319,1.081,0.629,8.982,0
70,35.278,-97.441,187.4,16.83,3,319,1.048,0.398,9.686,0
71,35.278,-97.441,187.7,16.37,3,319,1.131,0.384,9.783,0
72,35.277,-97.441,187.3,15.97,3,319,1.26,0.076,9.858,0
73,35.277,-97.441,186.4,15.54,3,319,1.282,-0.044,9.433,0
74,35.277,-97.442,183.9,15.09,3,319,1.331,0.03,9.522,0
75,35.277,-97.442,180.4,14.79,3,319,2.3,0.839,9.815,0
76,35.277,-97.442,178.6,13.801,3,319,3.229,0.961,9.926,0
77,35.277,-97.441,177.3,12.031,3,319,2.422,1.016,9.586,0
78,35.277,-97.441,175.7,10.021,3,319,2.331,1.097,9.711,0
79,35.277,-97.441,175.1,8.4912,3,318,3.237,1.402,9.398,0
80,35.277,-97.441,174.7,6.7912,3,318,2.433,1.38,10.179,0
81,35.277,-97.441,175.1,4.5007,3,318,2.288,1.151,9.709,0
82,35.276,-97.441,175.2,2.7603,3,318,1.919,1.044,9.823,0
83,35.276,-97.441,175.2,1.3002,3,318,0.224,0.515,9.828,0
84,35.276,-97.441,175.2,1.3002,3,318,-1.808,-0.233,9.796,0
85,35.276,-97.441,175.3,1.7803,3,318,-1.073,-0.219,9.748,0
86,35.276,-97.441,174.5,4.4114,3,318,-0.507,-0.461,9.889,1
87,35.276,-97.441,172.7,6.5017,3,318,-0.783,-0.599,9.563,0
88,35.276,-97.441,170.1,8.4517,3,318,-0.631,0.074,9.857,0
89,35.276,-97.441,169.2,10.423,3,317,-0.642,0.12,9.993,0
90,35.276,-97.441,170.6,11.812,3,317,-0.739,0.392,9.951,0
91,35.276,-97.441,173.3,13.412,3,317,-0.648,0.45,9.691,0
92,35.276,-97.441,175.9,14.901,3,316,-0.497,0.127,10.545,0
93,35.276,-97.441,177.8,16.331,3,316,-0.1,-0.384,10.133,0
94,35.276,-97.441,179.2,17.461,3,316,-0.12,-0.336,9.961,0
95,35.275,-97.441,179,18.45,3,316,-0.126,-0.475,9.67,0
96,35.275,-97.441,179.1,19.39,3,315,-0.119,0.15,10.253,0
97,35.275,-97.441,178.6,20.26,3,314,0.264,0.479,11.012,0
98,35.275,-97.441,178.9,21.05,3,315,0.336,-0.197,9.775,0
99,35.275,-97.441,179.9,21.43,3,315,0.23,-0.077,9.804,0
100,35.274,-97.441,179.3,21.791,3,315,0.131,0.665,9.345,0
101,35.274,-97.441,179.1,21.911,3,315,0.935,0.133,9.416,0
102,35.274,-97.441,179.8,21.901,3,316,0.995,0.517,8.898,0
103,35.274,-97.441,179.9,21.531,3,316,1.078,0.311,9.653,1
104,35.274,-97.441,179.8,21.08,3,316,0.938,0.539,8.882,0
105,35.273,-97.441,179.9,20.802,3,315,0.522,-0.235,9.951,0
106,35.273,-97.441,179.9,20.947,3,314,0.318,0.196,9.045,0
107,35.273,-97.441,179.5,21.65,3,313,0.839,0.212,10.039,0
108,35.273,-97.441,179.7,22.322,3,312,0.998,0.3,10.185,0
109,35.273,-97.441,179.8,22.577,3,312,0.929,0.452,10.344,0
110,35.272,-97.441,180,22.614,3,311,0.736,0.253,9.93,0
111,35.272,-97.441,180.1,22.561,3,311,0.584,0.347,10.101,0
113,35.272,-97.441,180.2,22.62,3,311,0.468,0.117,9.768,0
113,35.272,-97.441,180.2,22.62,3,311,0.468,0.117,9.768,0
114,35.272,-97.441,180.2,22.92,3,311,0.446,0.002,10.026,0
115,35.271,-97.441,180,23.21,3,311,0.193,0.057,9.721,0
116,35.271,-97.441,180,23.66,3,311,0.162,0.278,10.042,0
117,35.271,-97.441,180.3,24.13,3,312,0.897,0.12,10,0
118,35.271,-97.441,180.5,24.09,3,312,0.99,0.19,9.705,0
119,35.271,-97.441,180,23.87,3,312,1.167,0.22,10.346,0
120,35.27,-97.441,180,23.58,3,312,1.076,0.039,10.423,0
121,35.27,-97.441,180,23.28,3,312,1.006,0.26,9.489,0
122,35.27,-97.441,179.9,22.97,3,312,1.027,0.078,10.126,0
123,35.27,-97.441,179.8,22.64,3,313,0.932,0.229,10.82,0
124,35.27,-97.441,179.6,22.28,3,312,1.013,0.232,9.491,0
125,35.269,-97.441,180.1,21.97,3,312,0.965,0.235,12.245,0
126,35.269,-97.441,180,21.74,3,312,0.641,0.14,9.284,0
127,35.269,-97.441,179.6,21.79,3,312,0.831,0.316,9.548,0
128,35.269,-97.441,179.5,21.8,3,313,1.133,-0.15,12.486,0
129,35.269,-97.441,180.1,21.62,3,312,0.833,0.359,10.461,0
130,35.268,-97.441,180.4,21.411,3,313,0.831,0.142,9.84,0
131,35.268,-97.441,180.4,21.092,3,313,0.61,0.145,9.61,0
132,35.268,-97.441,180.1,20.786,3,313,0.067,-0.087,9.778,0
133,35.268,-97.441,180.1,20.739,3,314,-0.006,-0.038,10.512,0
134,35.268,-97.441,180.2,20.951,3,315,0.227,-0.271,10.268,0
135,35.267,-97.441,180.2,21.152,3,316,0.494,0.339,9.466,0
136,35.267,-97.441,180,21.101,3,317,0.696,0,9.675,0
137,35.267,-97.441,180.1,20.661,3,318,0.448,0.105,9.203,0
138,35.267,-97.441,180,20.211,3,319,0.308,0.002,9.63,0
139,35.267,-97.441,179.9,20.058,3,320,0.124,-0.035,9.542,0
140,35.266,-97.441,179.6,20.096,3,320,-0.004,0.048,10.004,0
141,35.266,-97.441,179.5,20.444,3,321,0.055,0.219,10.271,0
142,35.266,-97.441,179.6,20.873,3,321,0.066,-0.35,10.195,0
143,35.266,-97.441,179.7,21.313,3,322,0.014,0.091,9.748,0
144,35.266,-97.441,179.6,21.743,3,322,0.009,-0.038,10.168,0
145,35.266,-97.441,179.6,22.144,3,322,0.283,0.406,10.212,0
146,35.265,-97.441,179.5,22.423,3,323,0.276,0.175,9.927,0
147,35.265,-97.441,180,22.498,3,324,0.327,0.026,9.619,0
148,35.265,-97.441,179.7,22.419,3,325,0.306,0.052,9.88,0
149,35.265,-97.441,179.4,22.32,3,326,0.162,0.348,9.727,1
150,35.265,-97.441,179.6,22.22,3,327,0.734,-0.175,11.589,0
151,35.264,-97.441,179.6,22.155,3,327,0.856,0.311,9.779,0
152,35.264,-97.441,179.8,21.814,3,328,1.125,0.184,8.966,0
153,35.264,-97.441,179.9,21.293,3,329,0.915,0.388,9.186,1
154,35.264,-97.441,179.8,20.731,3,329,0.771,0.311,9.6,0
155,35.264,-97.441,179.7,20.361,3,329,0.827,0.889,9.668,0
156,35.263,-97.441,179.5,20.08,3,330,0.843,0.733,8.967,0
157,35.263,-97.441,180.5,19.78,3,330,2.003,0.41,9.701,0
158,35.263,-97.441,180.9,19.32,3,330,2.628,0.755,9.173,0
159,35.263,-97.441,180.8,18.11,3,330,2.791,0.861,9.832,0
160,35.263,-97.441,180.8,16.301,3,330,2.416,0.627,9.112,0
161,35.263,-97.441,180.9,14.48,3,329,2.129,0.434,9.401,0
162,35.262,-97.441,180.6,12.811,3,329,2.525,0.642,9.87,0
163,35.262,-97.441,180.2,11.36,3,329,2.762,0.717,10.001,0
164,35.262,-97.441,179.8,9.5003,3,329,2.502,0.698,9.801,0
165,35.262,-97.441,179.5,7.6202,3,329,3.065,0.881,9.688,0
166,35.262,-97.441,179.4,5.9701,3,329,1.783,0.672,9.83,0
167,35.262,-97.441,179.3,3.7501,3,329,1.838,0.547,9.824,0
168,35.262,-97.441,179.3,2.14,3,329,1.241,0.396,9.89,0
169,35.262,-97.441,179.3,2.14,3,329,0.456,0.168,9.883,1
170,35.262,-97.441,179.3,2.14,3,329,0.692,0.227,9.852,1
171,35.262,-97.441,0,0.01,3,330,0.68,0.228,9.869,1
172,35.262,-97.441,0,0.01,3,330,0.721,0.267,9.877,1
173,35.262,-97.441,0,0.01,3,330,0.723,0.258,9.793,1
174,35.262,-97.441,0,0.01,3,330,0.69,0.237,9.803,1
175,35.262,-97.441,0,0.01,3,330,0.732,0.22,9.835,1
176,35.262,-97.441,0,0.01,3,330,0.694,0.214,9.856,1
177,35.262,-97.441,0,0.01,3,330,0.715,0.243,9.771,1
178,35.262,-97.441,0,0.01,3,330,0.669,0.249,9.765,1
179,35.262,-97.441,0,0.01,3,330,0.735,0.213,9.931,1
180,35.262,-97.441,0,0.01,3,330,0.701,0.24,9.727,1
181,35.262,-97.441,0,0.01,3,330,0.702,0.237,9.857,1
182,35.262,-97.441,0,0.01,3,330,0.726,0.255,9.724,1
183,35.262,-97.441,0,0.01,3,330,0.7,0.207,9.9,1
184,35.262,-97.441,0,0.01,3,330,0.728,0.249,9.773,1
185,35.262,-97.441,0,0.01,3,330,0.706,0.215,9.883,1
186,35.262,-97.441,0,0.01,3,330,0.625,0.247,9.775,1
187,35.262,-97.441,0,0.01,3,330,0.725,0.235,9.922,1
188,35.262,-97.441,0,0.01,3,330,0.675,0.224,9.719,1
189,35.262,-97.441,0,0.01,3,330,0.7,0.21,9.881,1
190,35.262,-97.441,0,0.01,3,330,0.269,0.1,9.772,1
192,35.262,-97.441,0,0.01,3,330,-1.87,-0.582,9.825,0
192,35.262,-97.441,0,0.01,3,330,-1.87,-0.582,9.825,0
193,35.262,-97.441,179.2,1.2,3,330,-1.782,-0.472,9.947,0
194,35.262,-97.441,179.3,3.79,3,330,-1.274,-0.091,10.023,0
195,35.262,-97.441,179.1,6.1,3,330,-0.947,-0.119,9.63,0
196,35.262,-97.441,179.1,8.06,3,330,-1.164,0.537,9.83,0
197,35.262,-97.441,179.6,9.83,3,331,-0.384,0.448,10.02,0
198,35.262,-97.441,180.5,11.431,3,330,-0.627,-0.22,10.183,0
199,35.262,-97.441,179.9,12.72,3,330,-0.536,0.026,9.627,0
200,35.262,-97.441,179.4,14.05,3,330,-0.555,-0.094,9.844,0
201,35.261,-97.441,179.4,15.32,3,330,-0.165,0.01,9.717,0
202,35.261,-97.441,179.8,16.57,3,330,0.33,-0.002,9.602,0
203,35.261,-97.441,179.8,17.33,3,330,0.187,-0.076,9.134,0
204,35.261,-97.441,179.5,17.96,3,330,0.35,-0.054,10.067,0
205,35.261,-97.441,178.7,18.45,3,330,0.669,0.303,9.605,1
206,35.261,-97.441,178.6,18.981,3,329,0.849,0.328,9.655,1
207,35.26,-97.441,178.9,19.193,3,329,0.952,0.382,9.99,0
208,35.26,-97.441,179.4,19.304,3,328,1.123,0.386,9.827,1
209,35.26,-97.441,179.3,19.342,3,328,1.099,0.494,9.774,0
210,35.26,-97.441,179.4,19.295,3,327,1.055,0.591,9.955,0
211,35.26,-97.441,179.6,19.256,3,326,1.111,0.433,9.801,0
212,35.26,-97.441,180,19.236,3,326,1.213,0.131,10.365,0
213,35.259,-97.441,180,19.184,3,325,1.154,0.162,9.95,0
214,35.259,-97.441,179.9,19.042,3,325,1.105,0.32,9.913,0
215,35.259,-97.441,179.9,18.831,3,325,1.122,0.197,9.932,0
216,35.259,-97.441,180,18.53,3,324,1.137,0.174,9.924,0
217,35.259,-97.441,180.2,18.2,3,324,0.666,-0.044,9.813,1
218,35.259,-97.441,180.2,17.9,3,324,0.504,-0.065,9.867,1
219,35.258,-97.441,179.9,17.97,3,324,0.708,0.14,9.413,0
220,35.258,-97.441,179.7,18.18,3,324,0.933,0.129,9.882,0
221,35.258,-97.441,179.6,18.13,3,325,0.528,0.03,9.687,0
222,35.258,-97.441,179.5,17.86,3,325,0.545,0.139,9.861,1
223,35.258,-97.441,179.5,17.83,3,325,0.486,0.182,9.677,1
224,35.258,-97.441,179.6,17.98,3,325,0.549,0.071,9.647,0
225,35.257,-97.441,179.7,18.23,3,325,0.495,0.054,9.868,0
226,35.257,-97.441,179.4,18.49,3,325,0.517,0.263,10.8,0
227,35.257,-97.441,179.3,18.77,3,324,0.34,0.279,9.881,0
228,35.257,-97.441,179.8,19.02,3,325,0.79,-0.078,9.637,0
230,35.257,-97.441,180.3,19.2,3,325,1.059,0.236,9.841,0
230,35.257,-97.441,180.3,19.2,3,325,1.059,0.236,9.841,0
231,35.256,-97.441,180.2,18.831,3,325,1.113,0.159,10.106,0
232,35.256,-97.441,180.3,18.292,3,326,0.857,0.093,9.568,0
233,35.256,-97.441,180.2,17.892,3,326,0.546,-0.19,9.941,1
234,35.256,-97.441,179.8,17.901,3,326,0.377,-0.018,9.349,1
235,35.256,-97.441,179.5,18.1,3,326,0.702,0.157,9.59,1
236,35.256,-97.441,179.8,18.281,3,326,0.806,0.134,9.629,0
237,35.255,-97.441,180.1,18.321,3,325,0.874,0.091,9.588,0
238,35.255,-97.441,180.1,18.352,3,325,0.982,-0.018,9.551,0
239,35.255,-97.441,179.9,18.392,3,324,0.963,0.058,9.812,0
240,35.255,-97.441,179.6,18.391,3,324,1.14,0.128,10.464,0
241,35.255,-97.441,179.3,18.25,3,323,1.146,0.269,9.965,0
242,35.255,-97.441,179.3,17.96,3,323,0.497,0.247,10.056,0
243,35.254,-97.441,179.8,17.783,3,324,0.288,0.106,10.012,0
244,35.254,-97.441,180.1,17.754,3,324,0.271,0.071,9.894,1
245,35.254,-97.441,180.3,17.804,3,325,0.338,0.141,9.915,0
246,35.254,-97.441,180.6,17.844,3,326,0.53,-0.362,10.093,0
247,35.254,-97.441,180.1,17.835,3,327,0.379,-0.121,9.668,0
248,35.254,-97.441,179.5,17.806,3,327,0.316,0.011,9.949,0
249,35.253,-97.441,179.6,17.805,3,328,0.345,-0.027,9.979,0
250,35.253,-97.441,179.9,17.806,3,328,0.37,0.045,10.273,0
251,35.253,-97.441,180,17.806,3,329,0.326,-0.287,9.61,0
252,35.253,-97.441,179.3,17.775,3,329,0.207,0.397,9.613,0
253,35.253,-97.441,178.8,17.834,3,331,0.218,0.615,9.428,1
254,35.253,-97.441,180,17.912,3,331,0.429,-0.062,9.713,1
255,35.252,-97.441,179.8,18.101,3,331,0.415,0.451,9.602,1
256,35.252,-97.441,180.2,18.22,3,331,0.698,0.144,9.776,1
257,35.252,-97.441,180.6,18.371,3,331,0.859,0.317,9.857,1
258,35.252,-97.441,180.2,18.441,3,331,1.03,0.323,9.855,0
259,35.252,-97.441,179.8,18.442,3,330,1.018,0.375,9.73,1
260,35.252,-97.441,179.6,18.302,3,330,0.815,0.442,10.016,0
261,35.251,-97.441,179.8,18.202,3,329,0.865,0.136,9.819,1
262,35.251,-97.441,180.3,18.232,3,329,0.946,0.135,9.76,0
263,35.251,-97.441,180.2,18.291,3,329,0.966,0.081,9.871,0
264,35.251,-97.441,180,18.311,3,329,0.941,0.277,10.018,0
265,35.251,-97.441,179.6,18.322,3,328,0.93,0.223,9.733,0
266,35.251,-97.441,179.8,18.343,3,327,1.002,0.093,9.791,1
267,35.25,-97.441,179.8,18.404,3,327,0.998,0.146,9.652,1
268,35.25,-97.441,179.7,18.484,3,327,1.098,0.273,9.995,0
269,35.25,-97.441,179.5,18.553,3,326,1.063,0.263,10.169,0
270,35.25,-97.441,179.4,18.472,3,326,1.045,0.326,9.923,0
271,35.25,-97.441,179.3,18.291,3,325,0.867,0.5,9.995,0
272,35.25,-97.441,179.4,18.07,3,325,0.543,0.508,9.669,0
273,35.249,-97.441,179.8,17.93,3,325,0.542,0.204,9.82,0
274,35.249,-97.441,180.2,17.92,3,325,0.686,0.206,9.935,0
275,35.249,-97.441,180.3,18.04,3,325,0.62,0.316,9.732,0
276,35.249,-97.441,180.4,18.01,3,325,0.542,0.488,9.92,0
277,35.249,-97.441,180.6,17.951,3,325,0.171,0.915,10.167,0
278,35.249,-97.441,181.6,17.833,3,326,1.604,0.573,10.472,0
279,35.249,-97.441,183.3,17.416,3,326,2.267,0.184,10.222,0
280,35.248,-97.441,183.8,16.264,3,327,2.551,0.63,9.771,0
281,35.248,-97.441,182.9,14.504,3,328,2.073,0.548,9.507,0
282,35.248,-97.441,182.4,12.625,3,329,1.882,0.427,9.586,0
283,35.248,-97.441,182.5,10.953,3,330,1.852,0.269,9.526,0
284,35.248,-97.441,182.4,9.3421,3,330,2.147,0.348,9.565,0
285,35.248,-97.441,181.6,8.0214,3,330,2.201,0.452,9.797,0
286,35.248,-97.441,180.3,6.6008,3,331,2.379,0.714,9.711,0
287,35.248,-97.441,179.4,4.9007,3,331,2.39,0.61,9.815,0
288,35.248,-97.441,178.5,3.0206,3,332,1.374,0.37,9.761,0
289,35.248,-97.441,178.5,1.24,3,332,0.501,0.113,9.773,1
290,35.248,-97.441,178.5,1.24,3,332,0.474,0.13,9.784,1
291,35.248,-97.441,178.5,1.24,3,332,0.465,0.099,9.811,1
292,35.248,-97.441,178.5,1.24,3,332,0.443,0.118,9.75,1
294,35.248,-97.441,178.5,1.24,3,332,0.481,0.101,9.712,1
294,35.248,-97.441,178.5,1.24,3,332,0.481,0.101,9.712,1
295,35.248,-97.441,0,0,3,332,0.465,0.091,9.875,1
296,35.248,-97.441,0,0,3,332,0.473,0.112,9.747,1
297,35.248,-97.441,0,0,3,332,0.47,0.112,9.795,1
298,35.248,-97.441,0,0,3,332,0.457,0.106,9.727,1
299,35.248,-97.441,0,0,3,332,0.481,0.09,9.919,1
300,35.248,-97.441,0,0,3,332,0.473,0.093,9.911,1
301,35.248,-97.441,0,0,3,332,0.447,0.116,9.815,1
302,35.248,-97.441,0,0,3,332,0.43,0.098,9.749,1
303,35.248,-97.441,0,0,3,332,0.488,0.081,9.866,1
304,35.248,-97.441,0,0,3,332,0.44,0.081,9.847,1
305,35.248,-97.441,0,0,3,332,0.478,0.119,9.759,1
306,35.248,-97.441,0,0,3,332,0.479,0.1,9.88,1
307,35.248,-97.441,0,0,3,332,0.455,0.088,9.823,1
308,35.248,-97.441,0,0,3,332,0.473,0.105,9.79,1
309,35.248,-97.441,0,0,3,332,0.461,0.109,9.728,1
310,35.248,-97.441,0,0,3,332,0.463,0.109,9.748,1
311,35.248,-97.441,0,0,3,332,0.475,0.092,9.908,1
312,35.248,-97.441,0,0,3,332,0.489,0.103,9.868,1
313,35.248,-97.441,0,0,3,332,0.456,0.071,9.902,1
314,35.248,-97.441,0,0,3,332,0.454,0.1,9.808,1
315,35.248,-97.441,0,0,3,332,0.452,0.091,9.845,1
316,35.248,-97.441,0,0,3,332,0.466,0.105,9.91,1
317,35.248,-97.441,0,0,3,332,0.461,0.108,9.707,1
318,35.248,-97.441,0,0,3,332,0.431,0.077,9.796,1
319,35.248,-97.441,0,0,3,332,0.471,0.113,9.736,1
320,35.248,-97.441,0,0,3,332,0.315,0.036,9.869,1
321,35.248,-97.441,0,0,3,332,-1.754,-0.589,9.775,0
322,35.248,-97.441,0,0,3,332,-1.454,-0.322,9.854,0
323,35.248,-97.441,179.2,3.3205,3,331,-1.141,-0.266,9.739,0
324,35.248,-97.441,179.2,5.2306,3,331,-0.835,-0.364,9.883,0
325,35.248,-97.441,179.6,6.8604,3,331,-0.596,-0.286,9.597,0
326,35.248,-97.441,179.4,8.3401,3,331,-0.924,-0.407,9.528,0
327,35.247,-97.441,179.1,9.7603,3,331,-0.551,0.144,10.046,0
328,35.247,-97.441,179.7,11.011,3,331,-0.486,-0.161,9.7,0
329,35.247,-97.441,180.4,12.06,3,332,-0.374,-0.358,9.794,0
330,35.247,-97.441,180.2,13.13,3,332,-0.349,-0.139,10.118,0
331,35.247,-97.441,179.3,14.11,3,333,-0.449,-0.172,9.858,0
332,35.247,-97.441,179,15.12,3,333,-0.364,-0.309,9.975,0
333,35.247,-97.441,178.5,16.18,3,333,-0.206,-0.197,9.945,0
334,35.247,-97.441,178.1,17.07,3,333,0.087,0.256,9.898,0
335,35.246,-97.441,178,17.76,3,333,0.7,0.401,9.729,0
336,35.246,-97.441,178.5,18.05,3,333,0.78,0.549,9.819,0
337,35.246,-97.441,178.8,17.89,3,333,1.032,0.361,10.014,0
338,35.246,-97.441,179.3,17.62,3,333,0.61,0.096,10.272,0
339,35.246,-97.441,179.8,17.33,3,334,0.51,-0.109,9.648,0
340,35.246,-97.441,180.2,17.31,3,334,0.416,-0.144,9.65,0
341,35.245,-97.441,180,17.54,3,333,0.447,-0.029,9.644,0
342,35.245,-97.441,179.9,17.83,3,333,0.406,-0.086,9.508,0
344,35.245,-97.441,179.7,18.16,3,334,0.301,0.185,9.505,0
344,35.245,-97.441,179.7,18.16,3,334,0.301,0.185,9.505,0
345,35.245,-97.441,179.4,18.71,3,334,0.794,0.087,9.571,0
346,35.245,-97.441,179.4,18.81,3,334,1.062,0.081,9.97,0
347,35.244,-97.441,179.1,18.55,3,334,1.095,0.186,9.451,0
348,35.244,-97.441,179.3,18.25,3,334,0.883,0.194,9.999,0
349,35.244,-97.441,179.5,18.1,3,334,0.896,0.216,9.889,0
350,35.244,-97.441,180,17.92,3,334,0.47,-0.109,9.592,0
351,35.244,-97.441,179.9,18.06,3,334,0.334,-0.022,9.791,0
352,35.244,-97.441,179.7,18.4,3,334,0.379,-0.113,9.738,0
353,35.243,-97.441,179.4,18.73,3,334,0.471,-0.14,9.803,1
354,35.243,-97.441,178.8,19.02,3,334,0.891,0.233,9.873,0
355,35.243,-97.441,178.9,18.97,3,334,1.017,0.146,9.718,0
356,35.243,-97.441,178.6,18.67,3,334,1.005,0.347,9.93,0
357,35.243,-97.441,178.9,18.3,3,334,1.196,0.07,9.81,0
358,35.243,-97.441,179.1,17.91,3,334,0.62,0.084,10.117,0
359,35.242,-97.441,179,17.78,3,334,0.806,0.144,9.783,0
360,35.242,-97.441,179.1,17.8,3,335,0.839,0.258,9.666,0
361,35.242,-97.441,179.5,17.69,3,335,0.763,0.235,9.866,0
362,35.242,-97.441,179.9,17.56,3,335,0.854,0.262,9.569,0
363,35.242,-97.441,180.5,17.41,3,336,0.806,0.139,9.649,0
364,35.242,-97.441,180.5,17.29,3,336,0.752,0.126,10.055,0
365,35.241,-97.441,180.7,17.25,3,336,0.387,0.211,9.825,0
366,35.241,-97.441,181.3,17.34,3,336,0.482,-0.18,9.596,0
367,35.241,-97.441,180.9,17.58,3,336,0.492,-0.203,10.017,0
368,35.241,-97.441,180.3,17.85,3,336,0.46,0.098,8.735,0
369,35.241,-97.441,179.8,18.14,3,336,0.783,0.16,9.842,0
370,35.241,-97.441,179.5,18.37,3,337,0.914,0.295,9.82,0
371,35.241,-97.441,179.6,18.23,3,337,0.879,0.274,9.593,0
372,35.24,-97.441,179.8,18.05,3,337,0.807,0.14,9.504,0
373,35.24,-97.441,179.7,17.91,3,338,0.773,0.255,9.618,0
374,35.24,-97.441,179.6,17.79,3,337,0.787,0.083,9.647,0
375,35.24,-97.441,179.5,17.64,3,338,0.826,0.025,9.646,0
376,35.24,-97.441,179.6,17.51,3,337,0.804,0.108,9.651,0
377,35.24,-97.441,179.8,17.39,3,337,0.827,-0.047,9.865,0
378,35.239,-97.441,179.8,17.27,3,337,0.875,0.007,9.737,0
379,35.239,-97.441,179.8,17.16,3,338,0.832,0.109,9.674,0
380,35.239,-97.441,179.6,17.03,3,338,0.83,0.089,9.899,0
381,35.239,-97.441,179.6,16.91,3,338,0.836,0.069,10.001,0
382,35.239,-97.441,179.5,16.79,3,339,0.636,0.081,9.594,0
383,35.239,-97.441,179.5,16.72,3,338,0.471,0.219,9.717,0
384,35.238,-97.441,179.4,16.81,3,338,0.731,0.143,9.891,0
385,35.238,-97.441,179.6,16.8,3,338,0.571,-0.048,10.09,0
386,35.238,-97.441,179.5,16.81,3,338,0.54,0.079,9.788,0
387,35.238,-97.441,179.5,17.02,3,338,0.424,0.03,9.806,0
388,35.238,-97.441,179.6,17.16,3,338,0.462,-0.066,9.925,0
389,35.238,-97.441,180,17.39,3,339,0.5,0.094,9.487,0
390,35.238,-97.441,179.8,17.59,3,339,0.732,-0.009,9.763,0
391,35.237,-97.441,179.6,17.8,3,339,0.991,0.18,9.644,0
392,35.237,-97.441,179.6,17.8,3,339,1.08,0.324,9.871,0
393,35.237,-97.441,179.6,17.56,3,339,0.583,0.045,9.718,0
394,35.237,-97.441,179.8,17.3,3,339,0.435,0.19,9.982,0
395,35.237,-97.441,179.9,17.37,3,339,0.465,-0.024,10.107,0
396,35.237,-97.441,180.1,17.62,3,339,0.555,-0.114,9.506,0
397,35.236,-97.441,179.9,17.92,3,339,0.584,0.09,9.848,0
398,35.236,-97.441,179.4,18.1,3,339,0.453,0.096,10.26,0
399,35.236,-97.441,179.4,18.19,3,339,0.394,-0.051,9.864,0
400,35.236,-97.441,179.6,18.47,3,339,0.94,0.306,9.959,0
401,35.236,-97.441,179.5,18.67,3,339,1.284,0.292,9.582,0
402,35.236,-97.441,179.5,18.5,3,339,1.209,0.181,10.686,0
404,35.235,-97.441,179.5,18.19,3,340,1.175,0.173,9.642,0
404,35.235,-97.441,179.5,18.19,3,340,1.175,0.173,9.642,0
405,35.235,-97.441,179.6,17.51,3,340,1.121,0.338,9.6,0
406,35.235,-97.441,179.7,17.15,3,340,1.232,0.033,9.579,0
407,35.235,-97.441,179.6,16.83,3,340,1.114,0.214,9.303,0
408,35.235,-97.441,179.5,16.5,3,340,1.112,0.353,9.459,0
409,35.235,-97.441,179.6,16.21,3,340,1.053,0.226,9.515,0
410,35.234,-97.441,179.6,15.87,3,340,1.191,0.326,9.612,0
411,35.234,-97.441,179.4,15.55,3,339,1.333,0.203,9.659,0
412,35.234,-97.441,178.8,15.15,3,339,1.516,0.308,9.443,0
413,35.234,-97.441,178.3,14.62,3,339,1.766,0.334,9.558,0
414,35.234,-97.441,177.9,13.72,3,339,1.916,0.484,10.038,0
415,35.234,-97.441,177.8,12.76,3,339,2.077,0.451,10.147,0
416,35.234,-97.441,177.9,11.68,3,339,1.986,0.746,9.665,0
417,35.234,-97.441,178.3,10.6,3,339,2.289,0.826,9.697,0
418,35.233,-97.441,179.2,9.3202,3,339,2.274,0.799,9.998,0
419,35.233,-97.441,179.9,7.8103,3,339,2.284,0.759,9.816,0
420,35.233,-97.441,180.3,6.4401,3,339,2.215,0.664,9.869,0
421,35.233,-97.441,180.4,5.1301,3,339,2.055,0.652,9.734,0
422,35.233,-97.441,180.6,3.9101,3,339,2.111,0.562,9.737,0
423,35.233,-97.441,180.2,2.7501,3,339,1.697,0.499,9.807,0
424,35.233,-97.441,180.2,1.7901,3,339,1.484,0.477,9.844,0
425,35.233,-97.441,180.2,1.15,3,339,1.475,0.436,9.804,0
426,35.233,-97.441,180.2,1.15,3,339,1.329,0.423,9.752,0
427,35.233,-97.441,180.2,1.15,3,339,0.872,0.284,9.845,1
428,35.233,-97.441,180.2,1.15,3,339,0.845,0.273,9.826,1
429,35.233,-97.441,180.2,1.15,3,339,0.846,0.272,9.871,1
430,35.233,-97.441,180.2,1.15,3,339,0.882,0.277,9.918,1
431,35.233,-97.441,0,0,3,340,0.867,0.262,9.838,1
432,35.233,-97.441,0,0,3,340,0.851,0.264,9.902,1
433,35.233,-97.441,0,0,3,340,0.871,0.282,9.797,0
434,35.233,-97.441,0,0,3,340,0.881,0.276,9.915,1
435,35.233,-97.441,0,0,3,340,0.874,0.3,9.699,1
436,35.233,-97.441,0,0,3,340,0.855,0.304,9.722,1
437,35.233,-97.441,0,0,3,340,0.874,0.278,9.92,1
438,35.233,-97.441,0,0,3,340,0.825,0.271,9.876,1
439,35.233,-97.441,0,0,3,340,0.862,0.303,9.733,1
440,35.233,-97.441,0,0,3,340,0.844,0.233,9.833,0
441,35.233,-97.441,0,0,3,340,0.869,0.288,9.734,1
442,35.233,-97.441,0,0,3,340,0.863,0.261,9.888,1
443,35.233,-97.441,0,0,3,340,0.864,0.284,9.721,1
444,35.233,-97.441,0,0,3,340,0.316,0.131,9.771,1
445,35.233,-97.441,0,0,3,340,-1.083,-0.348,9.755,1
446,35.233,-97.441,180.1,0.90006,3,340,-0.851,-0.235,9.875,0
447,35.233,-97.441,179.5,2.66,3,340,-0.835,-0.3,9.614,0
448,35.233,-97.441,179.7,4.6102,3,340,-0.507,-0.093,10,0
449,35.233,-97.441,179.5,6.3203,3,340,-0.489,-0.166,9.751,0
450,35.233,-97.441,179.8,7.6705,3,340,0.551,0.286,10.116,0
451,35.233,-97.441,180.1,8.8004,3,340,0.142,0.093,9.334,0
452,35.233,-97.441,180.1,9.1301,3,340,-0.205,0.197,9.876,0
453,35.233,-97.441,180.3,9.8503,3,340,-0.143,-0.042,9.547,0
454,35.233,-97.441,179.7,10.7,3,339,-0.215,0.148,9.732,0
455,35.233,-97.441,180.1,11.68,3,339,-0.169,-0.027,9.923,0
456,35.232,-97.441,180.4,12.63,3,339,0.848,-0.014,9.779,0
457,35.232,-97.441,180.1,13.531,3,339,0.854,0.321,9.559,0
458,35.232,-97.441,179.5,13.691,3,339,0.981,0.377,9.759,0
459,35.232,-97.441,179.8,13.691,3,338,2.177,0.738,9.78,0
460,35.232,-97.441,180,13.52,3,338,2.438,0.595,9.666,0
462,35.232,-97.441,180.1,12.49,3,338,0.931,0.324,9.716,0
462,35.232,-97.441,180.1,12.49,3,338,0.931,0.324,9.716,0
463,35.232,-97.441,179.4,10.71,3,338,0.831,0.288,9.746,0
464,35.232,-97.441,179,10.66,3,337,0.988,0.118,9.648,0
465,35.231,-97.441,178.7,10.61,3,337,0.616,0.322,9.592,0
466,35.231,-97.441,178.9,10.75,3,337,0.241,0.193,9.628,0
467,35.231,-97.441,179,11.18,3,337,-0.016,-0.009,9.766,0
468,35.231,-97.441,179.1,11.93,3,337,0.144,0.073,9.556,0
469,35.231,-97.441,179.4,12.46,3,337,0.767,0.591,9.825,0
470,35.231,-97.441,179.8,12.53,3,337,1.375,0.891,9.821,0
471,35.231,-97.441,180,12.06,3,336,0.793,0.394,9.751,0
472,35.231,-97.441,179.8,11.59,3,336,0.327,0.394,9.814,0
473,35.231,-97.441,180.3,11.69,3,336,0.681,0.265,9.739,0
474,35.23,-97.441,180.1,11.91,3,336,0.607,0.704,9.514,1
475,35.23,-97.441,180.2,11.86,3,336,0.989,0.127,9.966,0
476,35.23,-97.441,180,11.74,3,336,0.831,0.409,9.606,0
477,35.23,-97.441,180.3,11.56,3,335,0.98,0.235,9.671,0
478,35.23,-97.441,180.4,11.4,3,335,1.028,0.262,10.127,0
479,35.23,-97.441,180.2,11.21,3,335,0.849,0.312,9.901,0
480,35.23,-97.441,180.2,11.13,3,335,-0.224,0.085,9.851,0
481,35.23,-97.441,180.4,11.7,3,335,-0.446,0.418,9.671,0
482,35.23,-97.441,181.1,12.71,3,335,-0.267,1.064,9.41,0
483,35.23,-97.441,183.1,13.49,3,335,0.75,0.105,9.899,0
484,35.229,-97.441,183.9,13.88,3,335,1.378,-0.35,9.791,0
485,35.229,-97.441,182.8,13.82,3,335,1.153,-0.214,9.591,0
486,35.229,-97.441,181.2,13.61,3,335,1.061,-0.128,10.153,0
487,35.229,-97.441,180.2,13.34,3,335,1.033,0.061,9.546,0
488,35.229,-97.441,179.7,13.12,3,336,0.939,-0.165,9.686,0
489,35.229,-97.441,179.7,12.89,3,335,0.829,0.187,9.706,0
490,35.229,-97.441,179.5,12.69,3,335,0.769,0.565,8.786,1
491,35.229,-97.441,179.8,12.43,3,335,0.817,0.165,9.929,0
492,35.228,-97.441,180.1,12.3,3,334,0.704,0.02,9.693,0
493,35.228,-97.441,180,12.32,3,334,0.556,0.07,9.691,0
494,35.228,-97.441,179.9,12.44,3,334,0.546,-0.071,8.55,0
495,35.228,-97.441,179.9,12.58,3,334,0.478,-0.013,9.388,0
496,35.228,-97.441,180.3,12.77,3,333,0.819,-0.127,9.662,0
497,35.228,-97.441,180.2,12.99,3,334,0.549,0.027,9.733,0
498,35.228,-97.441,180.1,13.21,3,335,1.003,-0.049,9.851,0
499,35.228,-97.441,180.1,13.24,3,334,1.038,-0.05,10.537,0
500,35.228,-97.441,179.9,13.08,3,334,0.617,-0.058,9.797,0
501,35.227,-97.441,179.6,13.08,3,334,0.603,-0.038,10.023,0
502,35.227,-97.441,179.4,13.25,3,333,0.481,0.421,10.293,0
503,35.227,-97.441,179.4,13.41,3,333,0.544,-0.115,10.089,0
504,35.227,-97.441,179.9,13.62,3,333,0.777,0.237,9.536,0
505,35.227,-97.441,180.2,13.67,3,333,1.007,-0.004,9.71,0
506,35.227,-97.441,180.3,13.54,3,333,0.823,0.2,9.339,0
507,35.227,-97.441,179.6,13.34,3,333,0.855,0.279,10.939,0
508,35.227,-97.441,179.5,13.35,3,333,0.757,0.154,9.705,0
509,35.226,-97.441,179.8,13.39,3,333,0.563,0.182,8.721,1
510,35.226,-97.441,180,13.35,3,332,0.912,0.006,10.576,0
511,35.226,-97.441,180.5,13.45,3,332,0.763,-0.083,9.32,0
512,35.226,-97.441,180.5,13.47,3,332,1.304,-0.977,10.272,0
513,35.226,-97.441,179.1,13.39,3,332,1.474,-1.403,9.46,0
514,35.226,-97.441,174.7,13.26,3,332,0.893,-1.205,9.742,0
515,35.226,-97.441,168.2,12.99,3,332,1.495,-2.144,11.276,0
516,35.226,-97.441,161.3,12.981,3,331,0.57,-0.244,10.059,0
517,35.226,-97.441,154.7,13.17,3,331,0.451,-0.904,10.315,0
518,35.225,-97.441,152.5,13.37,3,331,0.204,0.773,9.337,0
520,35.225,-97.441,151.8,13.67,3,331,0.703,0.317,9.89,0
520,35.225,-97.441,151.8,13.67,3,331,0.703,0.317,9.89,0
521,35.225,-97.441,153.6,13.98,3,331,0.999,-0.109,9.903,0
522,35.225,-97.441,152.8,13.81,3,331,1.033,-0.141,10.023,0
523,35.225,-97.441,152.3,13.64,3,331,0.472,0.071,10.262,0
524,35.225,-97.441,152,13.69,3,331,0.705,-0.238,9.034,0
525,35.225,-97.44,152.7,13.69,3,331,0.969,-0.347,11.072,0
526,35.225,-97.44,153.4,13.66,3,330,0.73,-0.083,10.32,0
527,35.224,-97.44,153.7,13.66,3,330,0.64,-0.352,9.709,0
528,35.224,-97.44,153.1,13.77,3,333,0.97,-0.195,9.636,0
529,35.224,-97.44,152.5,13.69,3,331,1.928,0.408,10.415,0
530,35.224,-97.44,153.2,12.95,3,331,2.216,0.272,9.289,0
531,35.224,-97.44,152.3,11.69,3,330,3.164,0.263,10.102,0
532,35.224,-97.44,152.6,9.86,3,330,3.477,0.739,9.398,0
533,35.224,-97.44,152.4,7.17,3,330,2.135,0.411,9.889,0
534,35.224,-97.44,152.4,5.27,3,330,1.826,0.714,9.757,0
535,35.224,-97.44,152.4,3.9505,3,330,2.052,0.119,9.822,0
536,35.224,-97.44,150.8,2.7609,3,330,1.706,0.304,9.757,0
537,35.224,-97.44,151.8,1.5295,3,330,1.663,0.25,9.804,0
538,35.224,-97.44,151.8,1.5295,3,330,1.243,0.111,9.9,1
539,35.224,-97.44,0,0,3,331,0.73,-0.068,9.832,1
540,35.224,-97.44,0,0,3,331,0.737,-0.052,9.887,1
541,35.224,-97.44,0,0,3,331,0.743,-0.045,9.787,1
542,35.224,-97.44,0,0,3,331,0.736,-0.031,9.729,1
543,35.224,-97.44,0,0,3,331,0.721,-0.038,9.715,1
544,35.224,-97.44,0,0,3,331,0.722,-0.066,9.78,1
545,35.224,-97.44,0,0,3,331,0.725,-0.034,9.79,1
546,35.224,-97.44,0,0,3,330,0.729,-0.041,9.72,1
547,35.224,-97.44,0,0,3,330,0.743,-0.046,9.677,1
548,35.224,-97.44,0,0,3,330,0.755,-0.037,9.735,1
549,35.224,-97.44,0,0,3,330,0.744,-0.04,9.837,1
550,35.224,-97.44,0,0,3,330,0.734,-0.029,9.684,1
551,35.224,-97.44,0,0,3,330,0.727,-0.08,9.794,1
552,35.224,-97.44,0,0,3,330,0.405,-0.156,9.744,1
553,35.224,-97.44,0,0,3,330,-1.864,-0.804,9.713,0
554,35.224,-97.44,154.1,0.98,3,331,-1.275,-0.574,9.89,0
555,35.224,-97.44,150.3,3.5424,3,331,-0.613,-0.339,9.618,0
556,35.224,-97.44,154.1,5.34,3,331,-0.456,-0.884,10.053,0
557,35.224,-97.44,153.4,6.48,3,330,-0.564,-0.282,10.001,0
558,35.224,-97.44,152.4,7.7102,3,334,-0.642,-0.05,9.477,0
559,35.223,-97.44,151.8,9.13,3,333,0.063,0.157,9.196,0
560,35.223,-97.44,152.3,10.57,3,332,0.197,-0.134,9.906,0
561,35.223,-97.44,152.7,11.44,3,332,0.356,-0.04,9.727,0
562,35.223,-97.44,152.7,11.73,3,332,0.303,0.053,9.446,0
563,35.223,-97.439,152.6,12.01,3,333,0.11,-0.343,9.897,0
564,35.223,-97.439,153,12.51,3,332,0.745,0.081,9.269,0
565,35.223,-97.439,152.7,13.1,3,332,1.347,0.796,10.509,0
566,35.223,-97.439,152.5,13.15,3,332,0.886,0.442,10.496,0
567,35.223,-97.439,152.8,12.872,3,332,0.251,0.154,9.037,0
568,35.223,-97.439,153.2,12.65,3,332,0.167,0.057,9.45,0
569,35.222,-97.439,152.7,13.04,3,332,0.247,0.182,9.453,0
570,35.222,-97.439,151.9,13.54,3,332,0.368,0.225,10.07,0
571,35.222,-97.439,152.1,13.96,3,332,0.528,-0.02,10.453,0
572,35.222,-97.439,152.4,14.37,3,332,0.854,0.275,9.633,0
573,35.222,-97.439,152.4,14.46,3,332,1.032,-0.062,9.867,0
574,35.222,-97.439,153,14.2,3,333,1.048,0.342,9.805,0
575,35.222,-97.439,152.6,13.93,3,333,0.985,0.369,9.555,0
576,35.222,-97.439,152.1,13.53,3,333,1.012,-0.129,10.248,0
578,35.222,-97.439,153.1,13.351,3,333,1.013,-0.037,9.631,0
578,35.222,-97.439,153.1,13.351,3,333,1.013,-0.037,9.631,0
579,35.221,-97.438,152.3,13.05,3,333,1.036,0.298,9.76,0
580,35.221,-97.438,152.7,12.75,3,332,1.741,0.211,9.765,0
581,35.221,-97.438,152.3,11.97,3,332,2.375,0.605,9.562,0
582,35.221,-97.438,152.3,10.46,3,332,3.189,0.902,9.962,0
583,35.221,-97.438,152.8,8.2702,3,331,2.306,0.639,9.718,0
584,35.221,-97.438,152.8,6.4601,3,332,3.08,0.911,9.706,0
585,35.221,-97.438,152.4,4.6102,3,332,2.996,0.828,9.917,0
586,35.221,-97.438,151.8,2.5809,3,331,2.14,0.525,9.874,0
587,35.221,-97.438,151.8,1.2902,3,331,1.528,0.332,9.843,0
588,35.221,-97.438,151.8,1.2902,3,331,1.225,0.237,9.851,1
589,35.221,-97.438,151.8,1.2902,3,331,0.804,0.139,9.725,1
590,35.221,-97.438,151.8,1.2902,3,331,0.799,0.131,9.783,1
591,35.221,-97.438,151.8,1.2902,3,331,0.804,0.118,9.835,1
592,35.221,-97.438,151.8,1.2902,3,331,0.782,0.132,9.722,1
593,35.221,-97.438,151.8,1.2902,3,331,0.82,0.128,9.727,1
594,35.221,-97.438,151.8,1.2902,3,331,0.8,0.125,9.788,1
595,35.221,-97.438,151.8,1.2902,3,331,0.292,-0.016,9.805,1
596,35.221,-97.438,151.8,1.2902,3,331,-1.658,-0.643,9.765,1
597,35.221,-97.438,153.1,1.7,3,332,-1.066,-0.334,9.534,0
598,35.221,-97.438,153.6,4.0101,3,332,-0.648,-0.073,9.535,0
599,35.221,-97.438,152.8,5.63,3,332,-0.438,-0.333,9.393,0
600,35.221,-97.438,152.7,6.8202,3,332,-0.428,-0.434,9.483,0
601,35.221,-97.438,152.8,8.1403,3,332,-0.435,-0.238,9.896,0
602,35.221,-97.438,152.4,9.5202,3,332,-0.234,-0.064,9.866,0
603,35.221,-97.438,151.9,10.71,3,331,0.064,-0.047,8.883,0
604,35.22,-97.438,152.8,11.71,3,331,0.164,0.109,9.136,0
605,35.22,-97.438,152.8,12.38,3,331,0.506,0.046,9.583,0
606,35.22,-97.438,152.6,12.82,3,330,0.419,-0.133,8.786,0
607,35.22,-97.438,152.3,13.09,3,331,0.597,0.177,9.513,0
608,35.22,-97.438,152.4,13.31,3,330,0.531,0.001,9.931,0
609,35.22,-97.437,152.6,13.43,3,330,0.56,0.28,10.185,0
610,35.22,-97.437,152.6,13.54,3,330,0.522,0.212,9.619,0
611,35.22,-97.437,152.8,13.67,3,331,0.753,-0.013,10.147,0
612,35.22,-97.437,152.6,13.8,3,330,0.714,-0.016,9.473,0
613,35.219,-97.437,152.4,13.95,3,330,1.004,0.123,10.082,0
614,35.219,-97.437,152.2,14.02,3,330,0.904,0.471,10.11,0
615,35.219,-97.437,152.7,13.89,3,331,1.009,0.305,9.568,0
616,35.219,-97.437,153.4,13.73,3,330,0.811,0.69,10.193,0
617,35.219,-97.437,154.3,13.5,3,330,0.936,0.658,10.164,0
618,35.219,-97.437,156.6,13.28,3,329,0.819,-0.241,9.639,0
619,35.219,-97.437,157.4,13.12,3,329,0.881,-0.131,9.847,1
620,35.219,-97.437,155.9,13.21,3,329,0.89,0.149,9.511,0
621,35.219,-97.437,154.3,13.2,3,329,0.569,1.182,9.247,0
622,35.219,-97.437,154,13.07,3,329,0.847,0.678,10.2,0
623,35.218,-97.437,156,12.91,3,328,0.408,1.309,9.773,0
624,35.218,-97.437,158,12.7,3,328,0.066,2.721,9.553,0
625,35.218,-97.436,164.3,12.59,3,328,0.51,0.316,9.803,0
626,35.218,-97.436,174.4,12.5,3,328,0.306,0.168,9.872,0
627,35.218,-97.436,177.8,12.91,3,328,0.407,0.098,9.815,0
628,35.218,-97.436,178.1,13.341,3,328,0.475,0.101,10.139,0
629,35.218,-97.436,177.3,13.84,3,327,0.809,0.481,10.019,0
630,35.218,-97.436,177.1,14.081,3,327,0.889,0.137,10.256,0
631,35.217,-97.436,178.2,14.131,3,326,0.886,0.373,8.952,0
632,35.217,-97.436,178.7,13.92,3,326,0.996,0.317,11.49,0
633,35.217,-97.436,179.7,13.701,3,326,0.601,-0.614,9.514,0
635,35.217,-97.436,180.1,13.52,3,326,0.46,0.068,9.21,0
635,35.217,-97.436,180.1,13.52,3,326,0.46,0.068,9.21,0
636,35.217,-97.436,180.2,13.76,3,326,0.423,-0.439,9.824,0
637,35.217,-97.436,180.1,14.19,3,326,0.385,-0.316,9.603,0
638,35.217,-97.436,179.8,14.53,3,326,0.768,0.019,8.979,0
639,35.216,-97.436,179.9,14.55,3,326,1.032,-0.115,10.55,0
