time,lat,lng,bearing,spd,acc,alt,accx,accy,accz,stable,
0,35.389,-97.495,0,33.74,9,365,-2.55,-1.088,8.914,1
1,35.389,-97.495,359.7,33.82,10,365,-2.308,-0.984,9.129,1
2,35.389,-97.495,0.3,33.73,6,365,-2.34,-1.054,9.126,1
3,35.39,-97.495,0,33.54,5,365,-2.278,-1.137,9.507,1
4,35.39,-97.495,0,33.33,5,366,-2.33,-1.022,9.06,1
5,35.39,-97.495,0,33.12,5,366,-2.431,-1.022,9.44,1
6,35.391,-97.495,0,32.88,6,365,-2.405,-1.159,9.248,1
7,35.391,-97.495,0.1,32.63,6,365,-2.308,-1.134,8.933,1
8,35.391,-97.495,0.2,32.43,7,365,-2.252,-1.152,8.668,1
9,35.391,-97.495,0,32.25,7,365,-2.614,-1.351,9.545,1
10,35.392,-97.495,358.3,31.97,7,363,-2.881,-1.585,9.749,0
11,35.392,-97.495,358.2,32.14,6,364,-2.916,-1.446,9.212,0
12,35.392,-97.495,358.4,32.25,7,364,-2.881,-1.61,8.476,0
13,35.393,-97.495,359.7,33.22,6,364,-2.938,-1.821,8.888,0
14,35.393,-97.495,359.8,33.77,7,363,-2.898,-1.732,8.667,0
15,35.393,-97.495,359.7,34.26,7,364,-2.769,-1.59,8.837,0
16,35.394,-97.495,359.7,34.74,7,364,-2.852,-1.637,8.653,0
17,35.394,-97.495,359.8,35.23,7,364,-2.785,-1.705,9.111,0
18,35.394,-97.495,359.9,35.66,7,363,-2.557,-1.405,8.712,1
19,35.395,-97.495,359.9,35.8,7,363,-2.213,-1.255,9.247,1
20,35.395,-97.495,359.8,35.47,6,363,-2.103,-0.89,9.016,1
21,35.395,-97.495,359.6,35.04,6,363,-2.213,-0.935,8.968,1
22,35.396,-97.495,359.7,34.55,6,363,-2.324,-1.03,9.154,1
23,35.396,-97.495,359.8,34.12,6,363,-2.161,-1.064,9.054,1
24,35.396,-97.495,359.8,33.69,6,363,-2.216,-1.167,9.199,1
25,35.396,-97.495,359.9,33.3,7,363,-2.165,-0.998,8.826,1
26,35.397,-97.495,0,32.97,8,363,-2.299,-1.078,9.077,1
27,35.397,-97.495,359.9,32.69,6,367,-2.278,-0.975,8.754,1
28,35.397,-97.495,0.1,32.57,6,370,-2.195,-1.013,8.917,1
29,35.398,-97.495,0,32.56,6,370,-2.362,-1.278,9.426,1
30,35.398,-97.495,0.2,32.43,6,370,-2.266,-1.206,9.192,1
31,35.398,-97.495,0.1,32.08,6,369,-2.232,-1.104,9.633,0
32,35.398,-97.495,0.1,32.15,5,369,-2.239,-1.15,9.263,0
34,35.399,-97.495,0,32.18,6,370,-2.374,-1.195,9.335,0
34,35.399,-97.495,0,32.18,6,370,-2.374,-1.195,9.335,0
35,35.399,-97.495,0.8,30.92,4,370,-2.424,-1.086,9.426,0
36,35.399,-97.495,359.7,31.12,3,370,-2.354,-1.409,9.235,0
37,35.4,-97.495,359.7,31.47,4,370,-2.435,-1.374,9.341,0
38,35.4,-97.495,359.5,31.5,3,370,-2.725,-1.334,8.983,0
39,35.4,-97.495,359.5,31.35,4,370,-2.794,-1.45,8.947,0
40,35.4,-97.495,359.5,31.33,4,369,-2.701,-1.506,8.789,0
41,35.401,-97.495,359.7,31.42,4,369,-2.442,-1.664,9.047,0
42,35.401,-97.495,359.6,31.54,4,369,-2.915,-1.295,8.908,0
43,35.401,-97.495,359.5,31.66,4,369,-3.281,-0.934,8.806,0
44,35.402,-97.495,0.7,31.78,4,368,-3.274,-0.958,8.985,0
45,35.402,-97.495,2.7,32.06,3,370,-3.097,-1.229,8.596,0
46,35.402,-97.495,5,32.72,3,369,-2.955,-1.297,9.191,1
47,35.403,-97.495,5.7,32.8,3,370,-2.774,-1.054,9.035,1
48,35.403,-97.495,6.5,32.76,3,371,-2.927,-0.888,8.766,1
49,35.403,-97.495,7.8,33.041,3,372,-3.022,-1.088,9.304,0
50,35.404,-97.495,9.1,33.051,3,373,-2.83,-0.749,9.239,0
51,35.404,-97.495,10.4,32.83,3,372,-2.609,-0.758,9.18,0
52,35.404,-97.495,11.3,32.86,3,371,-2.413,-1.077,9.37,0
53,35.404,-97.495,12.2,32.34,3,371,-2.359,-0.891,9.021,0
54,35.405,-97.494,13.2,31.93,3,371,-2.562,-0.945,9.639,0
55,35.405,-97.494,13.5,31.63,3,371,-2.844,-0.829,9.582,0
56,35.405,-97.494,15.5,31.46,3,371,-2.493,-0.95,9.197,0
57,35.406,-97.494,16.5,30.89,3,371,-2.498,-0.836,8.82,0
58,35.406,-97.494,17.4,30.41,3,371,-2.045,-1.221,8.856,0
59,35.406,-97.494,17.7,30.19,3,371,-2.395,-1.5,9.297,0
60,35.406,-97.494,17.5,30.22,3,372,-2.693,-1.768,9.472,0
61,35.407,-97.494,17.5,30.29,3,372,-2.59,-1.739,9.516,0
62,35.407,-97.494,17.3,30.49,3,372,-2.847,-1.84,9.555,0
63,35.407,-97.494,17.3,30.71,3,372,-2.709,-1.547,8.675,0
64,35.407,-97.493,17.3,31.03,3,371,-2.604,-1.659,8.72,0
65,35.408,-97.493,17.5,31.28,3,372,-2.632,-1.683,9.083,0
66,35.408,-97.493,17.6,31.55,3,371,-2.761,-1.846,9.465,0
67,35.408,-97.493,17.7,31.86,3,370,-2.42,-1.74,8.974,0
68,35.409,-97.493,17.6,32.09,3,371,-3.612,-1.701,9.595,0
69,35.409,-97.493,17.6,32.28,3,371,-2.612,-1.735,9.439,0
70,35.409,-97.493,17.5,32.15,4,371,-2.195,-1.395,9.285,0
71,35.409,-97.493,17.5,31.9,3,371,-2.454,-1.337,9.209,0
72,35.41,-97.493,17.7,31.82,3,370,-2.633,-1.393,9.066,0
73,35.41,-97.492,17.2,31.67,3,370,-2.281,-1.624,9.015,0
74,35.41,-97.492,17.5,32.31,3,369,-2.603,-1.498,8.878,0
75,35.41,-97.492,17.3,32.671,3,368,-2.392,-1.324,8.801,0
76,35.411,-97.492,17.4,32.871,3,368,-2.416,-1.285,8.797,1
77,35.411,-97.492,17.4,33.082,3,367,-2.445,-1.441,9.485,1
78,35.411,-97.492,17.5,33.241,3,366,-2.4,-1.341,9.22,0
79,35.412,-97.492,17.5,33.223,3,365,-2.352,-1.293,9.29,0
80,35.412,-97.492,17.7,33.193,3,364,-2.448,-1.388,9.77,0
81,35.412,-97.492,17.7,33.142,3,364,-2.237,-1.383,9.616,0
82,35.412,-97.492,17.6,33.112,3,363,-2.237,-1.397,9.351,0
83,35.413,-97.491,17.5,33.082,3,362,-2.217,-1.432,9.167,0
84,35.413,-97.491,17.4,33.052,3,361,-2.266,-1.364,9.049,0
85,35.413,-97.491,17.4,33.052,3,360,-2.298,-1.231,9.128,0
86,35.414,-97.491,17.4,33.041,3,361,-2.243,-1.328,9.491,0
87,35.414,-97.491,17.6,32.93,3,360,-2.145,-1.356,8.771,0
88,35.414,-97.491,18.3,32.64,3,360,-2.536,-1.681,9.436,1
89,35.414,-97.491,17.2,32.55,3,360,-2.656,-1.614,8.754,1
90,35.415,-97.491,17.4,33.28,3,360,-2.555,-1.793,9.108,1
91,35.415,-97.491,17.4,33.54,3,360,-2.44,-1.599,8.539,1
92,35.415,-97.49,17.5,33.514,3,361,-2.498,-1.632,8.578,1
93,35.416,-97.49,17.5,33.631,3,361,-2.447,-1.577,8.901,1
94,35.416,-97.49,17.6,33.791,3,362,-2.482,-1.824,8.798,1
95,35.416,-97.49,17.6,33.941,3,362,-2.614,-1.731,8.836,1
96,35.416,-97.49,17.4,34.16,3,362,-2.404,-1.281,8.536,1
97,35.417,-97.49,17.5,34.31,3,362,-2.384,-1.314,8.6,1
98,35.417,-97.49,17.4,34.26,3,362,-2.314,-1.573,8.339,1
100,35.417,-97.49,17.5,34.35,3,362,-2.358,-1.162,8.964,1
100,35.417,-97.49,17.5,34.35,3,362,-2.358,-1.162,8.964,1
101,35.418,-97.49,17.5,34.28,3,362,-2.308,-1.144,9.047,1
102,35.418,-97.489,17.7,34.061,3,362,-2.309,-1.004,9.233,0
103,35.418,-97.489,17.7,33.86,3,362,-2.261,-1.348,8.908,0
104,35.419,-97.489,17.6,33.65,3,362,-2.231,-1.109,9.26,0
105,35.419,-97.489,17.6,33.34,3,362,-2.467,-1.684,9.432,0
106,35.419,-97.489,17.7,33.23,3,362,-2.788,-1.307,9.017,0
107,35.419,-97.489,17.9,33.2,3,362,-3.122,-1.057,9.202,0
108,35.42,-97.489,19.1,32.942,3,363,-3.069,-1.432,8.887,0
109,35.42,-97.488,21.2,33.361,3,364,-2.851,-1.504,9.182,0
110,35.42,-97.488,21.9,33.66,3,364,-2.958,-1.591,8.444,0
111,35.421,-97.488,22.2,33.93,3,365,-2.947,-1.716,9.812,0
112,35.421,-97.488,22.4,34.09,3,365,-2.798,-1.693,9.297,0
113,35.421,-97.488,22.5,34.33,3,365,-2.161,-1.4,8.313,0
114,35.422,-97.488,22.3,34.84,3,365,-2.758,-1.773,8.969,0
115,35.422,-97.488,22.6,35.371,3,364,-2.502,-1.289,9.172,0
116,35.422,-97.487,23,35.121,3,364,-2.263,-0.89,8.601,0
117,35.422,-97.487,23.5,34.98,3,364,-2.387,-1,9.176,0
118,35.423,-97.487,23.9,34.59,3,364,-2.226,-1.355,9.276,0
119,35.423,-97.487,23.2,34.392,3,364,-2.045,-1.378,9.116,0
120,35.423,-97.487,22.1,33.911,3,364,-1.99,-1.227,9.168,0
121,35.424,-97.487,20.6,33.801,3,363,-1.907,-1.487,9.283,1
122,35.424,-97.487,18.9,33.572,3,363,-1.618,-1.83,9.39,1
123,35.424,-97.487,17,33.64,3,363,-2.132,-1.871,8.679,1
124,35.424,-97.486,15.2,34.09,3,363,-2.161,-1.952,9.174,1
125,35.425,-97.486,13.3,34.732,3,362,-1.706,-1.635,9.123,1
126,35.425,-97.486,11.5,34.732,3,361,-1.807,-1.339,9.334,0
127,35.425,-97.486,10,34.552,3,361,-2.532,-2.192,9.683,0
128,35.426,-97.486,8.6,34.581,3,361,-1.734,-1.723,9.568,0
129,35.426,-97.486,7.1,34.32,3,361,-1.595,-1.517,9.3,0
130,35.426,-97.486,5.7,33.86,3,361,-1.541,-1.26,9.17,0
131,35.427,-97.486,3,33.962,3,359,-1.579,-1.224,9.277,0
132,35.427,-97.486,1.4,33.422,3,359,-1.983,-1.306,9.178,0
133,35.427,-97.486,0.4,33.14,3,358,-1.842,-0.574,9.236,0
134,35.428,-97.486,0.1,32.15,3,358,-1.73,-0.787,9.394,0
135,35.428,-97.486,359.9,31.12,3,358,-2.177,-0.997,9.058,1
136,35.428,-97.486,359.7,30.91,3,358,-1.881,-0.701,8.927,1
137,35.428,-97.486,359.7,30.81,3,358,-2.111,-1.004,9.017,1
138,35.429,-97.486,0.1,29.12,3,358,-2.051,-1.47,9.159,1
139,35.429,-97.486,0.1,28.89,3,358,-2.363,-1.531,9.281,1
140,35.429,-97.486,0,28.71,3,358,-2.205,-1.38,9.312,1
141,35.429,-97.486,359.8,28.46,3,358,-2.243,-1.425,9.142,1
142,35.43,-97.486,359.9,28.27,3,358,-1.903,-1.299,8.78,0
143,35.43,-97.486,0,28.02,3,358,-2.042,-1.207,8.723,0
144,35.43,-97.486,0,27.64,3,358,-1.915,-1.133,9.157,0
145,35.43,-97.486,359.9,27.17,3,358,-1.702,-0.595,9.554,0
146,35.431,-97.486,0.1,26.101,3,359,-1.854,-0.861,9.603,0
147,35.431,-97.486,0.1,24.75,3,359,-1.848,-1.284,9.238,0
148,35.431,-97.486,359.8,24.331,3,359,-2.184,-1.154,9.119,0
149,35.431,-97.486,359.7,24.15,3,359,-2.611,-1.696,9.094,1
150,35.432,-97.486,359.9,24.35,3,359,-3.108,-2.23,8.716,1
151,35.432,-97.486,0.2,25.221,3,359,-3.152,-2.438,8.701,1
152,35.432,-97.486,0.5,26.291,3,359,-3.016,-2.455,8.138,1
153,35.432,-97.486,0.1,27.66,3,360,-3.497,-2.48,8.877,1
154,35.432,-97.486,0.1,28.93,3,360,-3.233,-2.41,8.31,1
155,35.433,-97.486,0.1,30.19,3,360,-2.652,-1.96,8.798,1
157,35.433,-97.486,0,30.93,3,360,-2.442,-1.39,8.88,1
157,35.433,-97.486,0,30.93,3,360,-2.442,-1.39,8.88,1
158,35.433,-97.486,359.9,31.21,3,360,-2.116,-1.39,8.975,1
159,35.434,-97.486,0.1,31.07,3,359,-2.271,-1.153,9.102,1
160,35.434,-97.486,359.8,31.12,3,359,-2.267,-1.188,8.856,1
161,35.434,-97.486,0,31.11,3,359,-2.236,-1.377,9.21,1
162,35.434,-97.486,0.1,31.12,3,359,-2.399,-1.442,9.608,0
163,35.435,-97.486,0.1,31.14,3,358,-2.3,-1.392,9.348,0
164,35.435,-97.486,0,30.98,3,358,-2.212,-1.386,9.176,0
165,35.435,-97.486,0.1,30.17,3,358,-2.418,-1.433,9.439,0
166,35.436,-97.486,358.6,30.341,3,358,-2.675,-1.622,9.17,0
167,35.436,-97.486,359.8,30.6,3,358,-2.627,-1.671,8.648,0
168,35.436,-97.486,0.1,30.91,3,358,-2.308,-1.495,9.017,0
169,35.436,-97.486,359.9,31.22,3,358,-2.289,-1.222,9.153,0
170,35.437,-97.486,0.1,30.77,3,358,-2.192,-1.267,9.268,0
171,35.437,-97.486,0,30.47,3,357,-2.279,-1.36,9.614,0
172,35.438,-97.486,359.9,30.29,3,357,-2.413,-1.439,9.293,0
173,35.438,-97.486,0,30.3,3,357,-2.491,-1.393,8.842,0
174,35.438,-97.486,0.1,30.4,3,357,-2.354,-1.786,8.805,0
175,35.438,-97.486,359.9,30.58,3,358,-2.593,-1.772,9.129,0
176,35.439,-97.486,359.9,30.74,3,357,-2.499,-1.659,9.165,0
177,35.439,-97.486,359.9,30.82,3,358,-2.448,-1.626,9.093,0
178,35.439,-97.486,1.5,30.26,3,359,-2.625,-1.247,8.867,0
179,35.439,-97.486,0,29.611,3,358,-2.377,-1.467,9.182,0
180,35.44,-97.486,0,30.66,3,358,-2.193,-1.458,9.042,1
181,35.44,-97.486,359.8,30.42,3,358,-2.294,-1.332,9.644,0
182,35.44,-97.486,359.9,30.1,3,358,-2.268,-1.326,8.705,0
183,35.441,-97.486,359.9,29.9,3,358,-2.54,-1.81,9.613,0
184,35.441,-97.486,359.8,29.89,3,358,-2.546,-1.316,9.353,0
185,35.441,-97.486,0,29.77,3,358,-2.606,-1.341,9.224,0
186,35.441,-97.486,0.3,29.52,3,358,-2.262,-1.354,8.954,0
187,35.442,-97.486,0.3,29.41,3,358,-2.137,-1.392,8.986,0
188,35.442,-97.486,0.2,29.23,3,358,-2.125,-1.491,9.84,0
189,35.442,-97.486,0.1,29.03,3,358,-2.023,-1.544,9.306,0
190,35.442,-97.486,359.9,28.89,3,358,-2.023,-1.286,9.516,0
191,35.443,-97.486,359.9,28.64,3,358,-2.087,-1.168,9.418,0
192,35.443,-97.486,0.1,28.561,3,357,-2.572,-1.439,8.593,0
193,35.443,-97.486,0.2,28.59,3,357,-2.388,-1.468,8.915,0
194,35.443,-97.486,0.3,28.61,3,356,-2.266,-1.461,9.299,0
195,35.444,-97.486,0.2,28.52,3,356,-2.178,-1.239,9.016,0
196,35.444,-97.486,359.6,28.54,3,357,-2.299,-1.076,9.326,0
197,35.444,-97.486,359.5,28.562,3,356,-2.268,-1.226,9.529,0
198,35.444,-97.486,358.8,28.492,3,355,-2.469,-1.355,9.078,0
199,35.445,-97.486,358,28.38,3,355,-2.699,-1.672,9.678,0
200,35.445,-97.486,358.4,28.3,4,354,-2.447,-1.697,9.251,0
201,35.445,-97.486,356.5,28.49,4,354,-2.495,-1.642,8.985,0
202,35.445,-97.486,355.7,28.59,4,354,-2.343,-1.477,9.067,0
203,35.446,-97.486,354.1,29.34,3,354,-2.529,-1.562,8.834,0
204,35.446,-97.486,353.1,29.55,3,353,-2.505,-1.38,8.762,0
205,35.446,-97.486,352.3,29.65,3,353,-2.462,-1.639,8.992,0
206,35.447,-97.486,351.4,29.71,3,352,-2.017,-1.606,8.979,0
207,35.447,-97.486,350.1,29.73,3,352,-2.413,-1.408,9.085,0
208,35.447,-97.486,349,29.73,3,349,-2.401,-1.546,9.145,1
209,35.447,-97.487,348.2,29.76,3,346,-2.108,-1.469,9.052,1
210,35.448,-97.487,347.2,29.72,3,345,-2.112,-1.586,8.937,1
211,35.448,-97.487,345.9,29.68,3,344,-2.35,-1.719,8.99,1
212,35.448,-97.487,344.4,29.68,3,343,-2.283,-1.909,9.262,1
213,35.448,-97.487,343.4,30.08,3,341,-2.126,-1.52,9.506,1
214,35.449,-97.487,341.7,29.991,3,341,-2.558,-1.35,9.315,1
215,35.449,-97.487,341.1,29.93,3,339,-2.674,-1.398,9.082,1
216,35.449,-97.487,341.1,30.03,3,338,-2.556,-1.742,9.501,0
217,35.449,-97.487,340.9,30.321,3,337,-2.427,-1.764,9.101,0
218,35.45,-97.487,339.5,30.3,3,336,-2.615,-1.505,8.793,0
219,35.45,-97.487,339.6,30.79,4,336,-2.749,-1.773,9.584,0
221,35.45,-97.488,339.3,30.82,5,335,-2.702,-1.597,9.266,0
221,35.45,-97.488,339.3,30.82,5,335,-2.702,-1.597,9.266,0
222,35.45,-97.488,339.1,31.04,4,336,-2.244,-1.444,8.983,0
223,35.451,-97.488,339.3,30.821,4,336,-2.138,-1.454,9.43,0
224,35.451,-97.488,339.2,30.352,3,337,-1.915,-1.049,9.38,0
225,35.451,-97.488,339.4,29.801,3,337,-1.941,-0.653,9.666,0
226,35.452,-97.488,339.8,28.881,3,337,-1.982,-1.263,8.371,0
227,35.452,-97.488,340,28.081,3,337,-2.224,-1.219,8.486,0
228,35.452,-97.488,340.1,27.671,3,337,-2.221,-0.629,9.394,1
229,35.452,-97.489,340.3,27.161,3,337,-2.462,-1.05,9.269,1
230,35.452,-97.489,341.4,25.981,3,338,-2.908,-1.448,8.91,1
231,35.453,-97.489,341.8,25.651,3,339,-3.252,-1.54,8.309,1
232,35.453,-97.489,342.4,26.32,3,338,-3.344,-1.668,8.714,1
233,35.453,-97.489,342.3,26.73,3,339,-2.846,-1.519,8.965,1
234,35.454,-97.489,342.7,26.91,3,340,-2.491,-1.319,9.137,1
235,35.454,-97.489,342.7,26.91,3,340,-2.39,-1.372,8.894,1
236,35.454,-97.489,342.4,26.57,3,342,-2.026,-1.762,9.466,1
237,35.454,-97.489,341.3,26.12,3,341,-1.307,-0.728,9.524,1
238,35.454,-97.489,341,24.9,3,342,-1.211,-0.842,9.148,1
239,35.455,-97.49,340.7,24.1,3,343,-2.159,-1.233,8.992,1
240,35.455,-97.49,340.6,23.97,3,344,-2.436,-1.459,9.08,1
241,35.455,-97.49,340.8,24.161,3,344,-2.521,-1.763,9.134,1
242,35.455,-97.49,340.7,24.811,3,343,-2.649,-1.962,8.857,1
243,35.455,-97.49,340.7,25.581,3,342,-2.685,-2.009,8.873,1
244,35.456,-97.49,340.4,26.41,3,344,-2.717,-1.947,9.056,0
245,35.456,-97.49,340.5,27.1,3,344,-2.571,-2.088,8.881,0
246,35.456,-97.49,340.6,27.941,3,343,-2.589,-1.888,8.332,0
247,35.456,-97.49,340.6,28.681,3,343,-2.59,-2.307,9.389,0
248,35.457,-97.49,340.4,29.541,3,342,-2.657,-2.155,9.159,0
249,35.457,-97.491,340.3,30.3,3,341,-2.617,-1.75,8.482,0
250,35.457,-97.491,340.3,30.84,3,341,-2.669,-1.881,8.777,0
251,35.457,-97.491,340.1,31.1,3,341,-2.916,-1.902,8.657,0
252,35.458,-97.491,340.4,31.52,3,341,-3.483,-2.194,9.981,0
253,35.458,-97.491,341.1,32.18,4,341,-2.909,-2.012,8.243,0
254,35.458,-97.491,341.1,32.88,4,340,-2.766,-0.752,7.037,0
255,35.459,-97.491,341.2,33.27,4,340,-3.205,-1.782,8.853,0
256,35.459,-97.491,341.4,33.63,4,341,-2.626,-1.091,9.129,0
257,35.459,-97.491,341.7,33.61,4,340,-3.569,-1.183,8.516,0
258,35.459,-97.492,341.5,32.841,4,340,-1.757,-1.058,9.064,0
259,35.46,-97.492,342,32.58,4,340,-2.1,-1.089,9.08,0
260,35.46,-97.492,342.1,32.13,4,340,-1.957,-1.264,8.993,1
261,35.46,-97.492,341.5,31.52,4,339,-1.929,-1.504,9.555,1
262,35.46,-97.492,341.5,31.09,4,340,-2.343,-1.135,9.114,1
263,35.461,-97.492,341.5,30.7,4,340,-2.563,-0.931,8.728,1
264,35.461,-97.492,340.4,29.713,3,342,-1.688,-0.586,8.735,1
265,35.461,-97.492,340.1,28.84,3,341,-1.535,-1,9.085,1
266,35.461,-97.492,338.8,28.17,3,340,-0.727,-1.756,9.098,1
267,35.462,-97.493,335.2,27.581,3,340,-1.096,-2.058,9.19,1
268,35.462,-97.493,330.5,27.22,3,341,-1.424,-2.287,9.345,1
269,35.462,-97.493,326.5,27.12,3,340,-1.387,-2.171,8.473,1
270,35.462,-97.493,326.2,26.8,3,341,-1.319,-2.262,9.028,1
271,35.462,-97.493,319,26.67,3,341,-1.302,-2.396,8.798,1
272,35.463,-97.493,318.1,26.99,3,341,-1.23,-2.365,9.456,1
273,35.463,-97.494,311.3,26.75,3,341,-1.562,-2.044,9.213,1
274,35.463,-97.494,307.7,26.41,3,344,-1.626,-2.395,8.886,1
275,35.463,-97.494,303.5,26.67,3,343,-2.103,-2.582,8.722,1
276,35.463,-97.494,302.1,26.76,3,343,-2.028,-2.686,9.096,1
277,35.463,-97.495,296.7,27.85,3,344,-2.918,-2.042,8.832,1
278,35.463,-97.495,295.2,28.68,3,344,-2.992,-1.742,8.615,1
279,35.464,-97.495,295.5,29.62,3,344,-3.047,-2.006,8.946,1
280,35.464,-97.496,295.5,30.52,3,343,-2.798,-1.874,8.887,1
281,35.464,-97.496,295.5,31.1,3,343,-2.836,-1.992,9.261,1
282,35.464,-97.496,295.8,31.47,3,344,-2.454,-1.665,9.324,0
284,35.464,-97.497,296.2,31.61,3,344,-2.197,-1.504,8.726,0
284,35.464,-97.497,296.2,31.61,3,344,-2.197,-1.504,8.726,0
285,35.464,-97.497,296.3,31.35,3,344,-2.253,-1.292,8.762,0
286,35.464,-97.497,296.5,31.14,3,344,-2.631,-1.161,8.556,0
287,35.464,-97.497,297.2,31.001,3,344,-3.44,-1.054,8.841,0
288,35.465,-97.498,299.3,31.231,3,344,-3.708,-0.986,9.276,0
289,35.465,-97.498,300.3,31.4,3,344,-3.661,-1.069,8.932,0
290,35.465,-97.498,302,31.63,3,345,-3.672,-1.237,9.231,0
291,35.465,-97.499,307.2,32.36,3,344,-3.605,-1.29,9.095,0
292,35.465,-97.499,309.4,32.85,3,344,-3.817,-1.205,9.351,0
293,35.465,-97.499,310.8,33,3,344,-3.188,-0.576,9.343,0
294,35.466,-97.499,314.5,33.571,3,345,-3.083,-0.423,9.206,0
295,35.466,-97.5,318.9,32.7,3,346,-2.43,-0.302,8.453,0
296,35.466,-97.5,321.2,32.34,3,346,-3.09,-0.513,10.207,0
297,35.467,-97.5,323.3,31.99,3,346,-2.709,-1.554,10.849,0
298,35.467,-97.501,324.5,31.6,3,347,-2.221,-1.538,9.42,0
299,35.467,-97.501,324.6,31.471,3,348,-2.318,-1.448,8.919,0
300,35.467,-97.501,324.5,31.29,3,347,-2.178,-1.471,9.548,0
301,35.467,-97.501,324.5,31.06,3,348,-2.852,-1.864,9.456,0
302,35.468,-97.501,324.6,30.578,3,348,-2.542,-1.296,8.366,0
303,35.468,-97.502,324.8,30.402,3,349,-2.064,-1.596,9.753,0
304,35.468,-97.502,324.7,29.861,3,350,-2.328,-1.263,9.11,0
305,35.468,-97.502,324.8,29.251,3,349,-1.935,-1.574,9.391,0
306,35.469,-97.502,324.9,29.071,3,349,-2.814,-1.912,9.419,0
307,35.469,-97.502,324.7,29.22,3,350,-2.418,-2.12,9.188,0
308,35.469,-97.503,323.8,29.4,3,351,-2.277,-2.316,8.715,0
309,35.469,-97.503,322.8,29.71,3,350,-2.451,-2.281,8.634,0
310,35.469,-97.503,322.1,29.911,3,353,-2.369,-1.866,8.996,0
311,35.47,-97.503,321.9,30.091,3,355,-2.378,-1.827,9.224,0
312,35.47,-97.503,321.6,30.021,3,355,-1.959,-0.914,7.332,0
313,35.47,-97.504,321.5,29.701,3,356,-1.771,-1.619,8.567,0
314,35.47,-97.504,321,29.561,3,356,-2.184,-1.797,8.789,0
315,35.47,-97.504,320.6,29.75,3,355,-2.251,-1.815,9.165,0
316,35.471,-97.504,320.4,30.01,3,355,-2.54,-1.833,8.772,0
317,35.471,-97.504,320.4,30.18,3,356,-2.483,-1.542,9.111,0
318,35.471,-97.505,320.5,30.4,3,356,-2.039,-1.473,9.092,0
319,35.471,-97.505,320.4,30.29,3,356,-2.135,-1.44,8.788,0
320,35.472,-97.505,320.4,30.26,3,355,-2.222,-1.304,8.75,0
321,35.472,-97.505,320.5,30.09,3,356,-1.456,-1.623,9.995,0
322,35.472,-97.505,320.4,29.81,3,356,-2.443,-1.64,9.7,0
323,35.472,-97.506,320.2,29.57,3,356,-2.269,-1.56,9.652,0
324,35.472,-97.506,320.2,29.53,3,356,-2.406,-1.596,8.942,0
325,35.473,-97.506,320.3,29.781,3,356,-2.595,-1.771,8.323,0
326,35.473,-97.506,320.6,30.11,3,355,-2.294,-1.737,8.861,0
327,35.473,-97.506,320.3,30.54,3,356,-2.299,-1.513,8.601,0
328,35.473,-97.507,320.3,30.75,3,356,-2.237,-1.411,8.82,0
329,35.473,-97.507,320.4,31.01,3,357,-2.246,-1.399,9.111,0
330,35.474,-97.507,320.4,31.07,3,358,-2.167,-1.368,9.031,0
331,35.474,-97.507,320.6,31.24,3,358,-2.75,-1.115,9.401,1
332,35.474,-97.508,320.9,31.26,3,358,-3.029,-0.913,9.652,0
333,35.474,-97.508,323.3,31.451,3,356,-2.898,-0.72,9.09,0
334,35.474,-97.508,324.3,31.51,4,354,-3.051,-0.738,9.216,0
335,35.475,-97.508,327.4,30.612,4,354,-3.217,-0.793,9.15,0
336,35.475,-97.508,330,30.551,4,352,-2.848,-0.96,8.811,0
337,35.475,-97.508,332,30.46,4,352,-2.953,-0.946,8.916,0
338,35.475,-97.509,333.8,30.26,3,351,-2.788,-0.849,9.152,0
339,35.476,-97.509,335.6,29.99,3,351,-2.599,-0.841,8.643,0
340,35.476,-97.509,337.2,29.71,3,350,-2.674,-0.777,8.93,1
341,35.476,-97.509,339.1,29.481,3,349,-3.018,-0.792,9.432,1
342,35.476,-97.509,341.2,29.29,3,350,-3.084,-0.935,9.123,1
343,35.477,-97.509,343.7,29.461,3,349,-3.043,-1.075,8.925,1
344,35.477,-97.509,345.4,29.46,3,349,-3.1,-1.197,9.006,1
345,35.477,-97.509,347.7,29.801,3,348,-3.282,-1.292,9.103,1
347,35.478,-97.509,349.5,30.17,3,348,-3.327,-1.459,9.518,0
347,35.478,-97.509,349.5,30.17,3,348,-3.327,-1.459,9.518,0
348,35.478,-97.509,351.7,30.63,3,347,-3.126,-1.488,9.236,0
349,35.478,-97.509,353.4,31.48,3,347,-3.378,-1.272,8.888,0
350,35.478,-97.509,355.3,31.26,3,346,-2.955,-1.609,9.052,0
351,35.479,-97.51,356.3,31.17,4,346,-2.841,-2.059,9.21,0
352,35.479,-97.51,357,32.021,3,347,-2.681,-2.057,8.783,0
353,35.479,-97.51,356.9,32.591,3,347,-2.737,-2.134,8.764,0
354,35.48,-97.51,357,32.91,3,347,-2.677,-1.699,8.454,0
355,35.48,-97.51,356.5,33.68,3,347,-2.267,-1.696,8.715,1
356,35.48,-97.51,356.4,33.75,3,347,-2.236,-1.634,9.249,1
357,35.48,-97.51,356.1,33.7,3,347,-1.814,-1.593,9.188,1
358,35.481,-97.51,355,33.71,3,346,-1.905,-1.551,9.354,1
359,35.481,-97.51,352.4,33.2,3,346,-2.287,-1.329,9.194,1
360,35.482,-97.51,351.9,32.93,3,346,-2.067,-1.376,9.216,1
361,35.482,-97.51,351.1,32.79,3,345,-2.051,-1.557,9.105,1
362,35.482,-97.51,350.3,32.53,3,344,-1.995,-1.55,9.296,1
363,35.483,-97.51,350.2,32.83,3,344,-2.023,-1.745,9.112,1
364,35.483,-97.51,349.5,32.89,3,344,-2.447,-1.731,9.188,1
365,35.483,-97.51,347.9,32.002,3,345,-2.384,-1.504,9.157,1
366,35.483,-97.51,347.2,31.646,3,347,-2.478,-1.6,9.122,0
367,35.484,-97.51,346.9,31.654,3,347,-2.504,-1.657,9.115,0
368,35.484,-97.51,346.6,31.494,3,349,-2.414,-1.649,9.529,0
369,35.484,-97.51,347,31.334,3,350,-3.044,-1.508,9.036,0
370,35.484,-97.511,348,31.134,3,351,-2.851,-1.17,8.956,0
371,35.485,-97.511,349.2,30.594,3,351,-2.962,-1.035,8.584,0
372,35.485,-97.511,350.4,30.353,3,351,-2.76,-1.423,9.006,0
373,35.485,-97.511,351,30.034,3,352,-2.562,-1.269,8.803,1
374,35.486,-97.511,351.8,29.941,3,352,-3.055,-0.998,8.79,0
375,35.486,-97.511,353,29.346,3,354,-3.077,-1.205,9.538,0
376,35.486,-97.511,353.9,28.955,3,355,-2.377,-1.227,9.078,0
377,35.486,-97.511,354.6,28.336,3,356,-2.219,-1.092,9.04,0
378,35.487,-97.511,354.8,28.192,3,357,-2.518,-0.918,9.07,0
379,35.487,-97.511,355.7,28.021,3,357,-2.527,-1.153,8.672,0
380,35.487,-97.511,357.8,27.172,3,357,-2.585,-1.386,8.914,0
381,35.487,-97.511,358.5,26.901,3,358,-2.741,-1.545,8.523,0
382,35.488,-97.511,359.1,26.93,3,359,-2.563,-1.55,8.562,0
383,35.488,-97.511,359.5,27.22,3,359,-2.657,-1.66,8.733,0
384,35.488,-97.511,359.9,27.61,3,359,-2.777,-1.834,9.065,0
385,35.488,-97.511,359.9,28,3,360,-2.919,-1.737,8.926,0
386,35.489,-97.511,0.1,28.5,3,360,-3.188,-1.592,8.897,0
387,35.489,-97.511,0.2,28.94,3,360,-3.037,-1.665,9.006,0
388,35.489,-97.511,0,29.43,3,360,-2.577,-2.546,9.838,0
389,35.489,-97.511,358.6,29.86,3,360,-2.08,-2.124,8.527,0
390,35.49,-97.511,356.3,30.29,3,360,-1.982,-2.09,8.337,0
391,35.49,-97.511,355.5,30.4,3,360,-1.885,-2.126,8.062,0
392,35.49,-97.511,352.3,31.11,3,360,-2.238,-1.89,8.677,0
393,35.49,-97.511,350.8,31.24,3,359,-2.206,-2.16,9.571,0
394,35.491,-97.511,349,31.41,3,359,-1.638,-1.801,8.463,0
395,35.491,-97.511,348,31.48,3,358,-2.125,-2.213,9.297,0
396,35.491,-97.511,345.5,30.7,4,360,-2.124,-1.947,9.411,0
397,35.492,-97.511,343.4,31.49,3,361,-2.124,-1.526,8.617,0
398,35.492,-97.512,342,31.46,4,360,-1.93,-1.915,8.743,0
399,35.492,-97.512,340.1,31.38,4,358,-2.152,-1.933,8.852,0
400,35.492,-97.512,337.9,31.38,3,357,-1.586,-2.182,9.325,0
401,35.493,-97.512,335.7,31.26,3,357,-2.629,-1.503,9.029,0
402,35.493,-97.512,334.7,31.06,3,358,-2.177,-1.059,8.481,0
403,35.493,-97.512,334.4,30.84,3,356,-1.339,-0.311,9.041,0
404,35.493,-97.512,334.2,29.971,3,355,-1.573,-0.769,9.823,0
405,35.494,-97.513,334.5,28.591,3,354,-2.293,-1.154,9.204,0
406,35.494,-97.513,334.9,28.182,3,353,-2.552,-1.35,9.042,0
408,35.494,-97.513,335.4,28.123,3,351,-2.364,-1.064,8.974,0
408,35.494,-97.513,335.4,28.123,3,351,-2.364,-1.064,8.974,0
409,35.494,-97.513,336,28.063,3,350,-2.78,-0.839,8.934,1
410,35.494,-97.513,336.6,28,3,350,-2.634,-1.175,9.11,1
411,35.495,-97.513,337.6,27.92,4,350,-2.579,-1.176,9.284,1
412,35.495,-97.513,339.4,28.01,5,350,-2.768,-1.259,9.728,0
413,35.495,-97.513,342.7,28.366,4,349,-2.743,-0.944,9.271,0
414,35.495,-97.513,344.5,28.416,3,348,-2.61,-0.911,9.452,0
415,35.496,-97.513,345.8,28.241,3,347,-2.485,-0.962,9.497,0
416,35.496,-97.514,347.4,28.201,3,348,-2.47,-0.675,8.851,0
417,35.496,-97.514,348.9,28.121,3,347,-2.884,-1.273,10.467,0
418,35.496,-97.514,351.3,28.084,3,346,-2.514,-0.739,8.794,0
419,35.497,-97.514,355,27.892,3,344,-2.866,-0.602,8.992,0
420,35.497,-97.514,357,27.961,3,344,-3.143,-0.695,9.406,0
421,35.497,-97.514,359.1,28.124,3,343,-2.957,-1.015,8.788,0
422,35.498,-97.514,359.7,28.054,3,343,-2.276,-1.614,9.352,0
423,35.498,-97.514,359.3,27.984,3,342,-1.732,-1.696,9.851,0
424,35.498,-97.514,358.9,27.861,3,342,-1.841,-1.508,9.386,0
425,35.498,-97.514,358.6,27.76,3,342,-2.048,-1.393,9.488,0
426,35.499,-97.514,358.6,27.63,4,342,-2.255,-1.437,9.567,0
427,35.499,-97.514,358.2,27.44,3,342,-2.181,-1.337,9.609,0
428,35.499,-97.514,358.3,27.18,3,342,-1.971,-1.126,9.472,0
429,35.499,-97.514,358.3,26.56,3,341,-2.066,-1.329,9.421,0
430,35.5,-97.514,358.3,26.18,4,342,-2.159,-1.367,9.448,0
431,35.5,-97.514,358.2,25.86,3,342,-2.04,-1.38,9.1,1
432,35.5,-97.514,358.2,25.57,3,343,-2.147,-1.58,9.234,1
433,35.5,-97.514,358.2,25.25,3,343,-1.715,-1.009,9.57,1
434,35.501,-97.514,358.1,24.34,3,343,-1.452,-0.499,9.571,1
435,35.501,-97.514,358.1,22.83,3,343,-0.998,-0.144,9.736,1
436,35.501,-97.514,357.9,20.63,3,343,-0.688,0.48,9.778,1
437,35.501,-97.514,358.7,19.74,3,343,-0.493,0.664,9.948,0
438,35.501,-97.514,359.3,17.61,4,342,-1.953,-1.251,9.307,0
439,35.501,-97.514,0.5,15.26,6,343,-2.065,-1.459,9.118,1
440,35.502,-97.514,358.2,12.71,4,342,-2.595,-1.911,8.858,0
441,35.502,-97.514,358.2,12.81,4,342,-1.553,-0.602,9.555,1
442,35.502,-97.514,358.3,12.74,4,342,0.066,1.043,10.56,0
443,35.502,-97.514,356.8,11.53,4,342,-0.316,0.872,10.319,0
444,35.502,-97.514,358,7.1701,4,342,-1.474,-0.661,9.612,1
445,35.502,-97.514,358.2,4.7701,4,343,-1.094,-0.248,9.497,1
446,35.502,-97.514,358.1,3.82,4,343,-1.549,-0.687,9.559,1
447,35.502,-97.514,357.7,2.43,4,343,-1.616,-0.749,9.407,1
448,35.502,-97.514,357.7,2.43,4,343,-2.779,-2.067,8.821,1
449,35.502,-97.514,357.7,2.43,4,343,-3.052,-2.391,8.583,1
450,35.502,-97.514,358.2,1.0508,5,343,-2.639,-1.963,8.945,1
451,35.502,-97.514,357.9,1.78,4,344,-1.455,-0.684,9.336,1
452,35.502,-97.514,357.9,1.9,4,344,-2.36,-1.624,9.424,1
453,35.502,-97.514,357.9,1.67,5,344,-2.493,-1.8,8.886,1
454,35.502,-97.514,357.9,1.84,4,343,-2.381,-1.609,9.215,1
455,35.502,-97.514,357.8,2.0601,4,343,-2.341,-1.786,9.345,1
456,35.502,-97.514,357.8,2,5,343,-2.507,-1.71,8.754,1
457,35.502,-97.514,357.8,2.0801,4,344,-2.407,-1.787,9.149,1
458,35.502,-97.514,357.8,2.23,5,344,-2.224,-1.511,9.122,1
459,35.502,-97.514,357.8,2.28,5,344,-2.68,-2.038,8.47,1
460,35.502,-97.514,357.8,2.38,5,344,-2.461,-1.81,8.946,1
461,35.502,-97.514,357.9,2.81,5,345,-2.563,-1.92,8.994,1
462,35.502,-97.514,358.1,3.35,4,345,-2.94,-2.284,8.513,1
463,35.502,-97.514,358.5,4.0003,4,345,-2.621,-1.82,8.727,1
464,35.502,-97.514,358.9,4.9401,4,346,-2.62,-2.264,8.727,1
465,35.502,-97.514,359.2,5.6601,4,346,-2.326,-1.619,8.968,1
466,35.502,-97.514,359.2,6.15,4,346,-2.251,-1.558,9.368,1
467,35.502,-97.514,358.9,6.1,4,347,-2.226,-1.483,9.114,1
468,35.503,-97.514,358.7,5.97,4,347,-1.756,-0.916,9.253,1
469,35.503,-97.514,358.4,5.7,3,347,-2.196,-1.461,8.97,1
471,35.503,-97.514,358.3,5.04,4,347,-2.246,-1.444,9.043,1
471,35.503,-97.514,358.3,5.04,4,347,-2.246,-1.444,9.043,1
472,35.503,-97.514,358.2,4.83,4,348,-2.207,-1.519,8.957,1
473,35.503,-97.514,358.6,4.61,4,347,-2.445,-1.803,9.023,1
474,35.503,-97.514,358.9,4.45,3,347,-2.425,-1.557,9.108,1
475,35.503,-97.514,359.1,4.44,3,347,-2.254,-1.581,9.065,1
476,35.503,-97.514,359.1,4.4,3,347,-2.824,-2.334,8.88,1
477,35.503,-97.514,359.1,4.3,3,347,-1.998,-1.26,9.231,1
478,35.503,-97.514,359,4.64,3,347,-1.776,-1.028,9.482,1
479,35.503,-97.514,359,4.1917,3,348,-2.072,-1.497,9.145,1
480,35.503,-97.514,359,2.5712,3,349,-2.372,-1.706,9.119,1
481,35.503,-97.514,358.9,2.5324,3,349,-2.269,-1.776,8.606,0
482,35.503,-97.514,358.7,2.6007,3,349,-2.369,-1.693,8.977,1
483,35.503,-97.514,358.4,2.6101,3,349,-2.123,-1.448,9.179,1
484,35.503,-97.514,358.4,2.471,3,349,-2.397,-1.679,8.756,1
485,35.503,-97.514,358.1,2.43,3,349,-2.441,-1.665,8.91,1
486,35.503,-97.514,357.8,2.49,3,348,-2.39,-1.729,9.219,1
487,35.503,-97.514,357.7,2.5401,3,348,-2.366,-1.742,9.025,1
488,35.503,-97.514,357.6,2.61,3,348,-2.318,-1.609,8.932,1
489,35.503,-97.514,357.6,2.61,3,348,-2.373,-1.65,9.128,1
490,35.503,-97.514,357.5,2.66,3,348,-2.681,-1.946,8.864,1
491,35.503,-97.514,357.6,2.9101,3,348,-3.19,-2.708,8.553,1
492,35.503,-97.514,357.6,2.9101,3,348,-3.039,-2.417,8.777,1
493,35.503,-97.514,358,4.63,3,349,-2.86,-2.19,8.699,1
494,35.503,-97.514,358.3,5.1505,3,349,-2.365,-1.685,9.124,1
495,35.503,-97.514,358.7,5.1602,4,349,-2.532,-1.718,8.878,1
496,35.503,-97.514,357.6,5.3927,3,349,-2.36,-1.679,8.897,1
497,35.504,-97.514,358,5.6913,3,348,-2.395,-1.659,9.095,1
498,35.504,-97.514,358.3,5.6702,4,348,-2.296,-1.544,8.974,1
499,35.504,-97.514,358.4,5.6701,3,348,-1.825,-1.103,9.377,1
500,35.504,-97.514,358.4,5.32,3,348,-2.045,-1.339,9.381,1
501,35.504,-97.514,358.5,4.4902,3,348,-1.671,-0.894,9.373,0
502,35.504,-97.514,358.3,3.5001,4,348,-1.848,-1.24,9.222,1
503,35.504,-97.514,358.2,2.7303,4,348,-2.046,-1.457,9.05,1
504,35.504,-97.514,358.2,2.1802,4,348,-2.499,-1.887,8.994,1
505,35.504,-97.514,358,2.16,4,348,-2.386,-1.817,9.003,1
506,35.504,-97.514,357.9,2.2901,4,348,-2.34,-1.784,8.867,1
507,35.504,-97.514,357.9,2.36,5,349,-2.376,-1.687,9.298,1
508,35.504,-97.514,357.8,2.4101,5,349,-2.427,-1.75,8.955,1
509,35.504,-97.514,357.7,2.32,5,349,-2.305,-1.785,9.258,1
510,35.504,-97.514,357.7,2.37,4,348,-2.374,-1.807,9.128,1
511,35.504,-97.514,357.6,2.41,5,349,-2.409,-1.654,9.048,1
512,35.504,-97.514,357.6,2.4701,4,349,-2.011,-1.177,9.141,1
513,35.504,-97.514,357.6,2.22,5,350,-2.465,-1.738,8.479,1
514,35.504,-97.514,357.5,2.04,4,349,-2.561,-1.861,8.76,1
515,35.504,-97.514,357.5,2.33,4,350,-2.784,-2.211,8.81,0
516,35.504,-97.514,357.7,3.47,3,350,-2.497,-1.793,8.641,1
517,35.504,-97.514,357.7,4.5607,3,350,-2.402,-1.628,9.363,1
518,35.504,-97.514,357.6,4.8702,3,350,-2.606,-1.74,9.552,0
519,35.504,-97.514,357.8,4.8904,3,350,-2.624,-1.672,8.767,1
520,35.504,-97.514,357.9,5.2402,3,350,-2.554,-1.546,8.974,0
521,35.504,-97.514,358.2,5.3,3,351,-2.324,-1.415,9.15,1
522,35.504,-97.514,358.1,5.1402,3,351,-2.201,-1.235,8.97,1
523,35.504,-97.514,358.1,4.92,3,351,-2.32,-1.362,8.752,1
524,35.504,-97.514,358.1,4.57,3,352,-2.492,-1.371,9.313,1
525,35.504,-97.514,358,4.3803,3,352,-2.469,-1.266,9.153,1
526,35.504,-97.514,358.1,4.25,3,351,-2.541,-1.262,9.196,1
527,35.505,-97.514,358.2,4.07,3,352,-2.57,-1.254,9.034,1
528,35.505,-97.514,358.1,3.91,3,351,-2.903,-1.628,8.909,1
529,35.505,-97.514,358,3.9506,3,351,-2.652,-1.375,9.088,1
531,35.505,-97.514,358,4.3,3,352,-2.646,-1.242,9.126,1
531,35.505,-97.514,358,4.3,3,352,-2.646,-1.242,9.126,1
532,35.505,-97.514,357.9,4.3,3,352,-2.507,-1.254,9.055,1
533,35.505,-97.514,357.8,4.18,3,352,-3.038,-1.844,8.658,1
534,35.505,-97.514,357.6,4.01,3,351,-2.635,-1.395,9.11,1
535,35.505,-97.514,357.4,4.39,3,351,-2.64,-1.237,9.229,1
536,35.505,-97.514,357.2,4.52,3,352,-2.669,-1.138,9.059,1
537,35.505,-97.514,357.1,4.45,3,351,-2.521,-1.235,9.178,1
538,35.505,-97.514,357,4.33,3,352,-2.639,-1.108,9.188,1
539,35.505,-97.514,356.9,4.2,3,351,-2.795,-1.074,9.006,1
540,35.505,-97.514,357,4.07,3,351,-2.886,-1.39,8.893,1
541,35.505,-97.514,357.2,3.9001,3,350,-2.809,-1.189,8.972,0
542,35.505,-97.514,357.4,4.06,3,349,-2.714,-1.142,9.326,1
543,35.505,-97.514,357.4,3.78,3,349,-2.217,-0.415,9.465,0
544,35.505,-97.514,357.4,3.0903,3,349,-2.618,-0.78,9.021,1
545,35.505,-97.514,357.4,2.4601,3,349,-2.534,-0.779,9.213,1
546,35.505,-97.514,357.3,2.06,3,349,-2.656,-1.044,9.065,0
547,35.505,-97.514,357.1,1.7904,3,349,-2.889,-1.188,8.603,0
548,35.505,-97.514,356.8,1.66,3,349,-2.726,-1.16,8.83,0
549,35.505,-97.514,356.4,1.7,3,348,-2.868,-1.274,8.746,1
550,35.505,-97.514,356.2,1.83,3,348,-2.958,-1.398,9.099,1
551,35.505,-97.514,356.2,2.03,3,347,-2.941,-1.334,9.02,1
552,35.505,-97.514,356.1,2.31,3,347,-2.852,-1.232,8.808,1
553,35.505,-97.514,355.9,2.53,3,347,-2.815,-1.259,9.024,1
554,35.505,-97.514,355.6,2.59,3,346,-2.715,-0.918,9.198,1
555,35.505,-97.514,355.4,2.36,3,346,-2.707,-1.127,9.349,1
556,35.505,-97.514,355.2,2.1804,3,346,-2.841,-1.224,9.118,0
557,35.505,-97.514,355,2.12,3,346,-2.866,-1.136,8.877,1
558,35.505,-97.514,354.8,2.2301,3,346,-2.692,-1.1,9.349,1
559,35.505,-97.514,354.7,2.1904,3,346,-2.784,-1.199,8.939,0
560,35.505,-97.514,354.5,2.2102,3,345,-2.842,-1.142,9.132,0
561,35.505,-97.514,354.3,2.1704,3,345,-2.833,-1.226,8.778,0
562,35.505,-97.514,354,2.2404,3,344,-2.879,-1.274,8.836,1
563,35.506,-97.514,353.6,2.4201,3,343,-2.899,-1.236,9.093,0
564,35.506,-97.514,353.4,2.6001,3,342,-2.828,-1.176,9.052,1
565,35.506,-97.514,353.2,2.71,3,342,-2.8,-1.193,8.972,1
566,35.506,-97.514,353,2.8203,3,341,-2.877,-1.215,8.997,0
567,35.506,-97.514,352.8,2.8701,3,341,-2.798,-1.186,8.909,1
568,35.506,-97.514,352.7,2.9201,3,340,-2.81,-1.191,8.693,1
569,35.506,-97.514,352.6,2.94,3,340,-2.826,-1.147,9.077,1
570,35.506,-97.514,352.5,2.99,3,340,-2.783,-1.153,8.853,1
571,35.506,-97.514,352.3,3.0401,3,339,-2.512,-0.633,9.25,1
572,35.506,-97.514,352.1,2.6907,3,337,-2.749,-1.117,9.056,1
573,35.506,-97.514,351.9,2.2208,3,336,-2.736,-1.108,8.746,1
574,35.506,-97.514,351.8,2.0802,3,336,-2.82,-1.257,8.996,0
575,35.506,-97.514,351.9,2.08,3,337,-2.886,-1.274,9.189,1
576,35.506,-97.514,351.9,2.24,3,336,-2.764,-1.266,8.882,1
577,35.506,-97.514,351.9,2.39,3,335,-2.525,-0.978,9.19,1
578,35.506,-97.514,351.8,2.38,3,334,-2.663,-1.247,9.124,0
579,35.506,-97.514,351.8,2.2004,3,334,-2.395,-0.847,9.246,1
580,35.506,-97.514,351.7,2.0502,3,333,-2.743,-1.389,9.155,0
581,35.506,-97.514,351.7,1.8702,3,333,-2.879,-1.363,8.661,1
582,35.506,-97.514,351.7,2.0101,3,332,-2.807,-1.357,8.844,1
583,35.506,-97.514,351.6,2.3002,3,330,-2.068,-0.519,9.694,0
584,35.506,-97.514,351.8,2.21,3,329,-2.908,-1.456,9.025,0
585,35.506,-97.514,351.5,1.7203,3,329,-2.824,-1.483,9.005,0
586,35.506,-97.514,351.5,1.8,3,328,-2.891,-1.464,9.067,1
587,35.506,-97.514,351.4,1.98,3,329,-2.719,-1.424,9.105,1
588,35.506,-97.514,351.4,2.01,3,328,-2.703,-1.408,8.741,1
589,35.506,-97.514,351.1,2.42,3,328,-2.648,-1.304,9.216,1
590,35.506,-97.514,351.1,2.5103,3,328,-2.537,-1.17,9.295,1
591,35.506,-97.514,351.2,2.72,3,327,-2.694,-1.487,9.105,1
593,35.506,-97.514,351.1,2.6601,3,328,-2.659,-1.502,8.818,1
593,35.506,-97.514,351.1,2.6601,3,328,-2.659,-1.502,8.818,1
594,35.506,-97.514,351,2.4503,3,328,-2.671,-1.364,8.844,1
595,35.506,-97.514,351.3,2.5703,3,328,-2.613,-1.387,8.985,0
596,35.506,-97.514,351.6,2.65,3,327,-2.614,-1.427,9.045,0
597,35.506,-97.514,351.7,2.8702,3,327,-2.53,-1.335,8.954,1
598,35.506,-97.514,351.8,2.92,3,327,-2.464,-1.302,9.114,1
599,35.506,-97.514,352.1,2.98,3,327,-2.062,-0.897,9.069,1
600,35.506,-97.514,352,2.83,3,327,-2.142,-1.068,9.424,1
601,35.506,-97.514,351.9,2.3005,3,328,-2.075,-0.856,8.942,0
602,35.506,-97.514,351.7,1.751,3,328,-1.958,-0.868,9.053,0
603,35.506,-97.514,351.5,1.1311,3,329,-2.433,-1.364,9.282,1
604,35.506,-97.514,351.5,1.1311,3,329,-2.824,-1.848,8.614,1
605,35.506,-97.514,351.9,0.74007,3,326,-2.794,-1.816,9.342,1
606,35.506,-97.514,352,1.28,3,326,-2.738,-1.67,8.653,1
607,35.506,-97.514,351.7,1.72,3,327,-2.567,-1.742,9.098,1
608,35.506,-97.514,351.6,2.06,3,327,-2.666,-1.64,8.92,1
609,35.506,-97.514,351.5,2.36,3,326,-2.952,-2.12,8.988,1
610,35.507,-97.514,351.5,3.1423,3,326,-3.077,-2.226,8.765,1
611,35.507,-97.514,351.8,3.9932,3,327,-2.655,-1.703,8.927,1
612,35.507,-97.514,352,4.4414,3,327,-2.757,-1.835,8.737,1
613,35.507,-97.514,352.3,5.0008,3,326,-2.805,-1.989,8.894,1
614,35.507,-97.514,352.5,5.3402,3,326,-2.389,-1.652,8.912,1
615,35.507,-97.514,352.7,5.46,3,326,-2.324,-1.475,9.153,1
616,35.507,-97.514,352.4,5.73,3,326,-2.237,-1.467,8.786,1
617,35.507,-97.514,352.4,5.75,4,326,-2.226,-1.569,9.33,1
618,35.507,-97.514,352,5.6301,3,326,-2.266,-1.464,9.182,1
619,35.507,-97.514,351.9,5.49,3,326,-2.125,-1.451,9.322,1
620,35.507,-97.514,351.9,5.26,3,324,-1.933,-0.998,9.305,1
621,35.507,-97.514,351.9,4.59,3,325,-2.108,-1.393,9.181,1
622,35.507,-97.514,352,3.92,3,325,-2.235,-1.512,9.374,0
623,35.507,-97.514,352.1,3.68,3,325,-2.241,-1.512,9.158,1
624,35.507,-97.514,351.9,3.5201,3,324,-2.219,-1.472,8.998,1
625,35.507,-97.514,352,3.2801,3,324,-2.61,-1.951,8.786,1
626,35.507,-97.514,352.2,3.18,3,324,-2.852,-2.287,8.839,1
627,35.507,-97.514,352.3,3.59,3,324,-2.22,-1.618,8.962,1
628,35.507,-97.514,352.3,4.1704,3,324,-2.266,-1.541,9.199,1
629,35.507,-97.514,352.3,4.15,3,325,-2.35,-1.681,8.877,1
630,35.507,-97.514,352.4,4.03,3,325,-2.177,-1.727,8.971,1
631,35.507,-97.514,352.5,4.0201,3,325,-2.273,-1.478,9.041,1
632,35.507,-97.514,352.5,3.9201,3,325,-1.848,-1.146,9.283,1
633,35.507,-97.514,352.3,3.71,3,325,-1.714,-0.918,9.466,1
634,35.507,-97.514,352.1,2.9703,3,326,-1.785,-0.868,9.476,1
635,35.507,-97.514,352,1.9704,3,327,-2.226,-1.356,8.675,1
636,35.507,-97.514,352,1.9704,3,327,-1.884,-1.03,9.4,1
637,35.507,-97.514,351.8,0.59304,3,327,-2.413,-1.635,9.115,1
638,35.507,-97.514,351.8,0.59304,3,327,-2.333,-1.611,9.065,1
639,35.507,-97.514,351.8,0.59304,3,327,-2.356,-1.57,9.07,1
640,35.507,-97.514,351.8,0.59304,3,327,-2.647,-1.853,8.906,1
641,35.507,-97.514,351.8,0.59304,3,327,-2.586,-1.932,9.063,1
642,35.507,-97.514,351.8,0.59304,3,327,-2.587,-1.93,9.144,1
643,35.507,-97.514,351.7,0.81394,3,326,-2.611,-1.912,9.265,1
644,35.508,-97.514,351.6,1.1942,3,326,-2.519,-1.918,9.082,1
645,35.508,-97.514,351.6,1.6008,3,326,-3.182,-2.609,8.714,1
646,35.508,-97.514,351.4,1.9701,3,326,-2.48,-1.675,8.976,1
647,35.508,-97.514,351.1,2.8204,3,326,-2.682,-1.905,8.842,1
648,35.508,-97.514,351,3.0311,3,326,-2.849,-2.036,8.503,1
649,35.508,-97.514,350.7,3.56,3,324,-2.84,-1.955,8.89,1
650,35.508,-97.514,350.6,4.1702,3,324,-2.756,-1.966,8.815,1
651,35.508,-97.514,351.1,4.7707,3,325,-2.323,-1.623,8.994,1
653,35.508,-97.514,351.7,5.3102,3,325,-2.319,-1.552,9.334,0
653,35.508,-97.514,351.7,5.3102,3,325,-2.319,-1.552,9.334,0
654,35.508,-97.514,351.8,5.49,3,324,-2.145,-1.604,9.155,1
655,35.508,-97.514,351.8,5.42,3,324,-1.859,-1.132,9.525,1
656,35.508,-97.514,351.6,5.25,3,324,-1.572,-0.732,9.437,1
657,35.508,-97.514,351.7,4.62,3,325,-1.933,-1.204,9.29,0
658,35.508,-97.514,351.9,3.7703,3,324,-2.272,-1.545,8.262,1
659,35.508,-97.514,352,3.2402,3,325,-2.56,-1.563,9.395,0
660,35.508,-97.514,352.1,3.0603,3,324,-2.302,-1.464,9.054,1
661,35.508,-97.514,352.3,2.87,3,324,-2.554,-1.902,9.004,1
662,35.508,-97.514,352.4,2.8,3,325,-2.402,-1.555,9.08,1
663,35.508,-97.514,352.4,3.09,3,325,-2.359,-1.535,9.289,1
664,35.508,-97.514,352.5,3.0601,3,325,-1.792,-1.074,9.425,1
665,35.508,-97.514,352.6,2.68,3,325,-1.793,-0.896,9.207,1
666,35.508,-97.514,352.7,1.86,3,326,-1.562,-0.641,9.182,1
667,35.508,-97.514,352.7,1.86,3,326,-2.191,-1.561,9.584,1
668,35.508,-97.514,352.7,1.86,3,326,-2.299,-1.529,9.03,1
669,35.508,-97.514,352.7,1.86,3,326,-2.341,-1.51,8.972,1
670,35.508,-97.514,352.7,1.86,3,326,-2.254,-1.58,9.152,1
671,35.508,-97.514,352.7,1.86,3,326,-2.274,-1.638,9.204,1
672,35.508,-97.514,352.7,1.86,3,326,-2.638,-1.978,8.865,1
673,35.508,-97.514,352.7,1.86,3,326,-2.594,-1.946,8.943,1
674,35.508,-97.514,352.7,1.86,3,326,-2.493,-2.014,9.151,1
675,35.508,-97.514,352.8,1.3124,3,327,-2.557,-1.895,8.703,1
676,35.508,-97.514,352.7,1.9901,3,326,-2.779,-1.944,8.819,1
677,35.508,-97.514,352.7,2.491,3,326,-2.289,-1.602,9.035,1
678,35.508,-97.514,352.6,2.77,3,326,-2.346,-1.655,9.024,1
679,35.508,-97.514,352.4,2.85,3,326,-2.141,-1.667,9.214,1
680,35.508,-97.514,352.2,2.8802,3,327,-2.118,-1.569,9.152,1
681,35.508,-97.514,351.9,2.8602,3,327,-2.091,-1.502,9.496,1
682,35.508,-97.514,351.9,2.8401,3,327,-2.368,-1.432,8.974,0
683,35.508,-97.514,351.9,2.77,3,326,-2.355,-1.56,8.963,1
684,35.508,-97.515,351.8,2.8,3,326,-2.218,-1.586,9.196,1
685,35.508,-97.515,351.7,2.7802,3,327,-2.233,-1.57,9.112,1
686,35.508,-97.515,351.7,2.8201,3,326,-2.117,-1.615,9.077,1
687,35.509,-97.515,351.6,2.86,3,327,-2.216,-1.57,9.128,1
688,35.509,-97.515,351.6,2.91,3,328,-2.191,-1.536,9.028,1
689,35.509,-97.515,351.8,2.93,3,328,-2.454,-1.86,8.804,0
690,35.509,-97.515,352.2,2.9701,3,328,-2.926,-2.427,9.036,1
691,35.509,-97.515,352.4,3.4501,3,328,-2.257,-1.497,9.059,0
692,35.509,-97.515,352.5,3.7901,3,328,-2.297,-1.615,9.11,1
693,35.509,-97.515,352.6,3.9708,3,328,-2.154,-1.479,8.694,1
694,35.509,-97.515,352.7,4.11,3,328,-1.782,-1.407,9.362,0
695,35.509,-97.515,352.6,4,3,329,-1.503,-0.493,9.419,0
696,35.509,-97.515,352.4,3.2004,3,328,-2.179,-1.421,9.06,1
697,35.509,-97.515,352.3,2.4007,3,329,-2.168,-1.557,9.069,1
698,35.509,-97.515,351.9,2.3308,3,326,-2.365,-1.745,9.13,1
699,35.509,-97.515,351.7,2.3203,3,325,-2.275,-1.618,9.026,1
700,35.509,-97.515,351.6,2.32,3,325,-2.301,-1.601,9.076,1
701,35.509,-97.515,351.5,2.55,3,327,-2.324,-1.546,9.368,0
702,35.509,-97.515,351.5,2.64,3,327,-2.096,-1.54,9.05,0
703,35.509,-97.515,351.5,2.61,3,328,-2.25,-1.497,8.994,1
704,35.509,-97.515,351.4,2.7,3,328,-2.194,-1.567,9.05,1
705,35.509,-97.515,351.5,2.8702,3,328,-2.147,-1.536,9.154,1
706,35.509,-97.515,351.5,2.91,3,328,-2.276,-1.502,9.02,1
707,35.509,-97.515,351.5,2.94,3,329,-2.166,-1.443,9.025,0
708,35.509,-97.515,351.6,2.9601,3,328,-2.189,-1.505,8.772,1
709,35.509,-97.515,351.6,2.89,3,328,-2.264,-1.519,9.057,0
710,35.509,-97.515,351.6,2.76,3,328,-2.272,-1.486,9.064,0
711,35.509,-97.515,351.6,2.8502,3,328,-2.247,-1.573,8.99,0
713,35.509,-97.515,351.6,2.91,3,328,-2.291,-1.461,8.789,0
713,35.509,-97.515,351.6,2.91,3,328,-2.291,-1.461,8.789,0
714,35.509,-97.515,351.5,2.96,3,328,-2.291,-1.475,9.189,1
715,35.509,-97.515,351.4,3,3,328,-2.975,-2.278,8.819,1
716,35.509,-97.515,351.3,3.06,3,328,-2.302,-1.459,9.216,1
717,35.509,-97.515,351.3,3.4801,3,327,-2.995,-2.446,8.605,1
718,35.509,-97.515,351.3,3.6401,3,328,-2.382,-1.477,9.153,1
719,35.509,-97.515,351.3,4.18,3,328,-2.667,-1.99,8.779,1
720,35.509,-97.515,351.6,4.49,3,328,-2.863,-2.198,8.561,1
721,35.509,-97.515,351.9,5,3,327,-2.429,-1.553,8.931,1
722,35.51,-97.515,352,5.96,3,327,-2.539,-1.826,8.833,1
723,35.51,-97.515,352.2,6.7801,3,326,-2.273,-1.499,9.148,1
724,35.51,-97.515,352.2,6.98,3,327,-2.222,-1.487,8.905,1
725,35.51,-97.515,352.2,7.0901,3,326,-2.159,-1.386,9.419,1
726,35.51,-97.515,352.2,6.9201,3,327,-1.461,-0.442,9.607,0
727,35.51,-97.515,352.1,5.2538,3,327,-1.678,-0.897,9.303,1
728,35.51,-97.515,352,4.4022,3,327,-1.505,-0.496,9.639,1
729,35.51,-97.515,351.9,3.1926,3,326,-1.405,-0.505,9.232,1
730,35.51,-97.515,351.8,2.0225,3,327,-1.511,-0.554,9.582,0
731,35.51,-97.515,351.7,0.97417,3,326,-1.745,-0.833,9.622,1
732,35.51,-97.515,351.7,0.97417,3,326,-1.905,-1.049,9.17,1
733,35.51,-97.515,0,0.06,4,330,-2.207,-1.413,9.208,1
734,35.51,-97.515,0,0.06,4,330,-2.639,-1.927,8.854,1
735,35.51,-97.515,0,0.06,4,330,-2.545,-1.833,8.828,1
736,35.51,-97.515,351,1.42,4,329,-2.524,-1.74,8.687,1
737,35.51,-97.515,350.9,1.8902,3,329,-2.413,-1.73,9.293,1
738,35.51,-97.515,350.9,2.2511,3,329,-2.691,-1.971,8.647,1
739,35.51,-97.515,350.9,2.8109,3,329,-2.404,-1.63,8.669,0
740,35.51,-97.515,350.9,3.0713,3,329,-2.224,-1.317,9.041,1
741,35.51,-97.515,350.9,3.1313,3,328,-2.198,-1.339,8.95,1
742,35.51,-97.515,351,3.1419,3,328,-2.222,-1.359,8.889,1
743,35.51,-97.515,351.2,3.1619,3,327,-2.15,-1.42,9.02,1
744,35.51,-97.515,351.3,3.1919,3,326,-2.255,-1.426,9.08,0
745,35.51,-97.515,351.3,3.2219,3,326,-2.21,-1.445,9.026,0
746,35.51,-97.515,351.3,3.3018,3,326,-2.31,-1.438,9.154,1
747,35.51,-97.515,351,3.3521,3,326,-2.522,-1.782,9.08,0
748,35.51,-97.515,350.8,3.6914,3,326,-2.513,-1.643,8.956,1
749,35.51,-97.515,351.1,4.131,3,326,-2.505,-1.483,8.924,1
750,35.51,-97.515,351.2,4.4314,3,326,-2.37,-1.342,9.075,1
751,35.51,-97.515,351.4,4.5411,3,326,-2.39,-1.305,9.192,1
752,35.51,-97.515,351.6,4.5311,3,325,-2.24,-1.004,9.098,1
753,35.511,-97.515,351.8,4.1814,3,325,-2.447,-1.268,9.298,1
754,35.511,-97.515,351.9,4.141,3,325,-2.489,-1.225,9.027,0
755,35.511,-97.515,351.9,4.1408,3,325,-2.461,-1.22,9.153,1
756,35.511,-97.515,352,4.1306,3,324,-2.237,-0.966,9.482,1
757,35.511,-97.515,352,3.7409,3,324,-2.377,-1.089,9.058,1
758,35.511,-97.515,351.9,3.5307,3,324,-2.428,-1.167,9.269,1
759,35.511,-97.515,351.7,3.4709,3,323,-2.449,-1.151,8.868,0
760,35.511,-97.515,351.6,3.4412,3,324,-2.523,-1.112,9.136,1
761,35.511,-97.515,351.5,3.3907,3,323,-2.547,-1.192,9.251,1
762,35.511,-97.515,351.4,3.3507,3,323,-2.501,-1.187,9.031,1
763,35.511,-97.515,351.4,3.3007,3,323,-2.603,-1.063,8.957,1
764,35.511,-97.515,351.4,3.2904,3,323,-2.635,-1.072,9.093,1
765,35.511,-97.515,351.3,3.3205,3,323,-2.599,-1.103,9.107,0
766,35.511,-97.515,351.4,3.3405,3,323,-2.833,-1.349,8.995,1
767,35.511,-97.515,351.4,3.6209,3,323,-2.58,-1.03,9.517,1
768,35.511,-97.515,351.3,3.6509,3,323,-2.671,-0.976,8.733,0
769,35.511,-97.515,351.5,3.4309,3,323,-2.623,-1.052,9.089,1
770,35.511,-97.515,351.8,3.4007,3,323,-2.573,-1.005,9.018,1
771,35.511,-97.515,352,3.3605,3,322,-2.645,-0.999,9.013,1
772,35.511,-97.515,352.1,3.3007,3,322,-2.706,-1.003,8.736,1
773,35.511,-97.515,352.3,3.2905,3,322,-2.593,-1.061,9.152,1
775,35.511,-97.515,352.5,3.3105,3,322,-2.65,-1.085,9.016,1
775,35.511,-97.515,352.5,3.3105,3,322,-2.65,-1.085,9.016,1
776,35.511,-97.515,352.2,3.3107,3,322,-2.678,-1.079,9.015,1
777,35.511,-97.515,351.4,3.321,3,322,-2.728,-0.987,8.839,1
778,35.511,-97.515,351,3.341,3,322,-2.699,-0.95,8.861,1
779,35.511,-97.515,350.5,3.3707,3,322,-2.723,-0.966,9.338,1
780,35.511,-97.515,350.1,3.3407,3,322,-2.643,-0.955,9.101,1
781,35.511,-97.515,349.9,3.311,3,322,-2.83,-0.963,9.056,1
782,35.511,-97.515,349.7,3.2907,3,321,-2.73,-1.014,9.085,1
783,35.511,-97.515,349.6,3.311,3,321,-2.779,-1.024,9.282,1
784,35.511,-97.515,349.4,3.331,3,321,-2.713,-0.953,9.041,1
785,35.511,-97.515,349.1,3.3107,3,321,-2.706,-0.903,8.97,1
786,35.512,-97.515,348.7,3.1204,3,321,-2.396,-0.603,8.941,1
787,35.512,-97.515,348.3,2.6107,3,321,-2.375,-0.452,9.335,0
788,35.512,-97.515,348.1,1.8607,3,321,-2.561,-0.794,9.236,1
789,35.512,-97.515,348,1.3701,3,321,-2.672,-0.843,9.122,1
790,35.512,-97.515,347.9,1.31,3,321,-2.882,-1.091,9.141,1
791,35.512,-97.515,347.8,1.5201,3,321,-2.872,-1.119,8.838,1
792,35.512,-97.515,347.7,1.8501,3,321,-3.034,-1.218,8.946,1
793,35.512,-97.515,347.6,2.1904,3,321,-2.957,-1.198,9.189,1
794,35.512,-97.515,347.5,2.4503,3,321,-2.93,-1.125,9.224,1
795,35.512,-97.515,347.4,2.6202,3,322,-2.869,-1.065,8.87,1
796,35.512,-97.515,347.3,2.7302,3,322,-2.799,-1.074,8.971,1
797,35.512,-97.515,347.2,2.8403,3,322,-2.883,-0.982,9.054,1
798,35.512,-97.515,347.2,2.9104,3,322,-2.843,-1.035,9.093,1
799,35.512,-97.515,347.3,2.9504,3,322,-2.448,-0.608,9.225,1
800,35.512,-97.515,347.3,2.6,3,322,-2.628,-0.772,9.268,1
801,35.512,-97.515,347.2,2.4,3,322,-2.588,-0.785,9.312,1
802,35.512,-97.515,347,2.15,3,322,-2.695,-0.86,9.408,0
803,35.512,-97.515,346.8,1.6901,3,322,-2.438,-0.601,9.526,1
804,35.512,-97.515,346.9,1.211,3,321,-2.79,-1.07,9.305,1
805,35.512,-97.515,346.8,1.0907,3,321,-2.754,-0.84,8.846,1
806,35.512,-97.515,346.8,1.0907,3,321,-2.808,-0.909,9.225,1
807,35.512,-97.515,346.5,0.8,3,321,-3.123,-1.371,8.99,1
808,35.512,-97.515,346.4,1.32,3,321,-3.047,-1.362,8.958,1
809,35.512,-97.515,346.2,1.8301,3,321,-3.061,-1.286,8.933,1
810,35.512,-97.515,346,2.2502,3,321,-2.469,-0.597,9.382,1
811,35.512,-97.515,345.8,1.9101,3,321,-2.651,-0.772,9.302,1
812,35.512,-97.515,345.7,1.6,3,321,-2.506,-0.707,9.12,1
813,35.512,-97.515,345.7,1.2502,3,321,-2.63,-0.787,9.28,1
814,35.512,-97.515,345.6,1.18,3,321,-2.941,-1.373,8.941,1
815,35.512,-97.515,345.6,1.5903,3,320,-2.861,-1.277,9.318,0
816,35.512,-97.515,345.5,1.8207,3,320,-2.988,-1.236,8.865,1
817,35.512,-97.515,345.4,2.1701,3,321,-2.65,-0.855,8.987,1
818,35.512,-97.515,345.4,2.1201,3,321,-2.653,-0.965,9.25,0
819,35.512,-97.515,345.4,1.9502,3,321,-2.867,-1.209,8.659,1
820,35.512,-97.515,345.4,2.1204,3,321,-2.863,-1.282,9.089,1
821,35.512,-97.515,345.4,2.4002,3,321,-2.871,-1.216,9.21,1
822,35.512,-97.515,345.5,2.5805,3,321,-2.79,-1.177,8.861,1
823,35.512,-97.515,345.5,2.7303,3,321,-2.765,-1.15,9.09,0
824,35.512,-97.515,345.5,2.8004,3,321,-2.665,-1.052,9.126,1
825,35.512,-97.515,345.3,2.5902,3,321,-2.652,-1.176,9.192,1
826,35.512,-97.515,345.2,2.6402,3,321,-2.759,-1.187,9.315,1
827,35.512,-97.515,345,2.7202,3,320,-2.635,-1.183,8.99,1
828,35.512,-97.515,344.9,2.7703,3,320,-2.66,-1.166,8.762,1
829,35.512,-97.515,344.8,2.7804,3,320,-2.621,-1.231,9.264,1
830,35.512,-97.515,344.7,2.8402,3,320,-2.63,-1.235,9.11,1
831,35.512,-97.515,344.7,2.8902,3,320,-2.649,-1.259,9.061,0
832,35.512,-97.515,344.7,2.9301,3,320,-2.467,-1.253,9.08,1
833,35.512,-97.515,344.7,2.9402,3,320,-2.586,-1.243,8.91,1
835,35.512,-97.515,344.8,2.9502,3,320,-2.571,-1.234,9.074,1
835,35.512,-97.515,344.8,2.9502,3,320,-2.571,-1.234,9.074,1
836,35.512,-97.515,344.8,2.9701,3,321,-2.627,-1.354,8.755,1
837,35.512,-97.515,344.9,3.24,3,322,-2.987,-1.889,8.727,1
838,35.513,-97.515,344.8,3.6803,3,322,-2.642,-1.427,9.116,1
839,35.513,-97.515,344.7,4.4102,3,322,-2.427,-1.331,9.07,1
840,35.513,-97.515,344.7,4.4802,3,322,-2.496,-1.272,9.253,1
841,35.513,-97.515,344.8,4.48,3,323,-2.424,-1.307,9.185,1
842,35.513,-97.515,344.9,4.45,3,324,-2.014,-0.86,9.204,1
843,35.513,-97.515,345.1,3.9001,3,323,-2.074,-0.977,8.928,1
844,35.513,-97.515,345.2,3.3902,3,323,-2.241,-1.327,9.035,1
845,35.513,-97.515,345.2,3.1204,3,324,-2.254,-1.408,9.164,1
846,35.513,-97.515,345.3,2.8902,3,325,-2.337,-1.366,9.226,1
847,35.513,-97.515,345.3,2.8302,3,325,-2.428,-1.31,8.986,1
848,35.513,-97.515,345.3,2.8302,3,325,-2.37,-1.43,9.034,1
849,35.513,-97.515,345.3,2.8303,3,325,-2.29,-1.532,9.332,1
850,35.513,-97.515,345.3,2.8606,3,325,-2.387,-1.449,9.151,1
851,35.513,-97.516,345.3,3.0804,3,324,-2.546,-1.574,8.862,1
852,35.513,-97.516,345.3,3.1203,3,324,-2.339,-1.478,9.026,1
853,35.513,-97.516,345.2,3.1203,3,324,-2.381,-1.484,9.183,1
854,35.513,-97.516,345.2,3.2003,3,324,-2.493,-1.666,8.999,1
855,35.513,-97.516,345.1,3.3304,3,324,-2.354,-1.485,8.974,0
856,35.513,-97.516,345,3.5405,3,324,-3.158,-2.487,8.524,0
857,35.513,-97.516,344.9,4.7303,3,324,-2.63,-1.955,8.901,1
858,35.513,-97.516,345,5.1302,3,323,-2.417,-1.672,8.851,0
859,35.513,-97.516,345,5.4301,3,323,-2.312,-1.57,9.201,1
860,35.513,-97.516,345.1,5.4801,3,323,-2.367,-1.685,9.138,1
861,35.513,-97.516,345.1,5.5501,3,323,-2.323,-1.595,9.31,1
862,35.513,-97.516,345.1,5.5904,3,323,-2.379,-1.471,8.917,1
863,35.513,-97.516,345,5.5802,3,323,-2.26,-1.593,9.288,1
864,35.513,-97.516,344.9,5.5702,3,324,-2.269,-1.382,8.922,1
865,35.513,-97.516,344.9,5.6102,3,324,-2.697,-2.171,9.264,1
866,35.514,-97.516,345,6.3504,3,323,-2.699,-2.062,8.778,1
867,35.514,-97.516,344.9,6.9403,3,323,-2.349,-1.615,9.24,1
868,35.514,-97.516,344.8,7.0203,3,323,-2.611,-2.045,9.196,1
869,35.514,-97.516,344.8,7.4503,3,323,-2.267,-1.588,8.914,1
870,35.514,-97.516,344.8,7.6203,3,323,-2.723,-1.885,8.569,1
871,35.514,-97.516,344.9,8.0703,3,323,-2.322,-1.604,8.766,1
872,35.514,-97.516,344.9,8.1906,3,323,-2.374,-1.634,9.257,1
873,35.514,-97.516,344.9,8.3004,3,323,-2.245,-1.577,9.237,0
874,35.514,-97.516,345,8.3305,3,323,-2.346,-1.65,9.25,1
875,35.514,-97.516,345,8.3405,3,323,-2.237,-1.52,9.192,1
876,35.514,-97.516,345.1,8.3205,3,322,-1.495,-0.642,9.475,1
877,35.514,-97.516,345.1,7.4808,3,322,-0.673,0.305,10.032,0
878,35.514,-97.516,345.2,5.0304,3,322,-1.792,-0.999,9.361,0
879,35.514,-97.516,345.2,3.0404,3,322,-1.655,-0.816,9.504,1
880,35.514,-97.516,345.2,2.2805,3,322,-2.103,-1.277,9.116,1
881,35.514,-97.516,345.2,1.9304,3,322,-1.93,-1.16,9.731,1
882,35.514,-97.516,345.2,1.3803,3,322,-2.014,-1.235,8.941,1
883,35.514,-97.516,345.2,0.93022,3,322,-2.131,-1.382,9.07,1
884,35.514,-97.516,345.2,0.93022,3,322,-1.884,-1.073,9.327,1
885,35.514,-97.516,345.2,0.16,3,322,-2.49,-1.808,8.974,1
886,35.514,-97.516,345.2,0.16,3,322,-2.602,-1.939,9.008,1
887,35.514,-97.516,345.2,0.16,3,322,-2.882,-2.323,8.66,1
888,35.514,-97.516,345,1.53,3,322,-2.462,-1.885,8.843,1
889,35.514,-97.516,344.9,2.1,3,322,-2.489,-1.726,8.828,1
890,35.514,-97.516,344.7,2.44,3,322,-3.053,-2.437,8.604,1
891,35.515,-97.516,344.5,3.36,3,322,-2.375,-1.611,9.156,1
892,35.515,-97.516,344.5,3.7601,3,322,-2.229,-1.522,9.007,1
893,35.515,-97.516,344.4,3.77,3,322,-2.679,-2.152,8.506,1
894,35.515,-97.516,344.5,4.2801,3,322,-2.943,-2.346,8.827,1
895,35.515,-97.516,344.6,5.1,3,323,-3.009,-2.409,8.762,1
897,35.515,-97.516,344.8,6.21,3,323,-2.897,-2.33,8.781,1
897,35.515,-97.516,344.8,6.21,3,323,-2.897,-2.33,8.781,1
898,35.515,-97.516,345.3,7.28,3,323,-2.145,-1.613,9.046,1
899,35.515,-97.516,345.6,7.52,4,323,-2.128,-1.592,9.09,1
900,35.515,-97.516,345.7,7.52,4,323,-2.24,-1.628,8.86,1
901,35.515,-97.516,345.6,7.5201,4,322,-2.134,-1.648,9.117,0
902,35.515,-97.516,345.2,7.4701,3,322,-2.194,-1.604,9.299,1
903,35.515,-97.516,344.9,7.4201,3,322,-2.383,-1.483,9.124,1
904,35.515,-97.516,344.8,7.3902,3,322,-2.244,-1.54,8.916,1
905,35.515,-97.516,344.8,7.3401,3,322,-2.396,-1.681,8.846,1
906,35.515,-97.516,344.9,7.4702,3,322,-2.407,-1.84,8.684,1
907,35.515,-97.516,345.1,8.3401,3,322,-2.931,-2.091,9.001,1
908,35.516,-97.516,345.2,9.2703,3,321,-2.921,-2.533,8.461,1
909,35.516,-97.516,345.3,10.22,3,321,-2.772,-2.417,8.217,1
910,35.516,-97.516,345.3,10.56,3,321,-2.055,-1.315,9.078,1
911,35.516,-97.516,345.5,10.31,3,320,-2.075,-1.208,8.838,1
912,35.516,-97.516,345.5,9.9802,3,320,-1.878,-1.273,9.036,1
913,35.516,-97.516,345.5,9.6202,3,320,-2.323,-1.515,8.92,1
914,35.516,-97.517,345.4,9.6002,3,320,-2.432,-1.917,9.022,1
915,35.516,-97.517,345.1,10.13,3,320,-2.574,-2.26,8.516,0
916,35.516,-97.517,344.8,10.64,3,320,-2.037,-1.325,8.78,0
917,35.516,-97.517,344.5,10.41,3,320,-1.73,-0.878,9.18,1
918,35.516,-97.517,344.5,9.4406,3,320,-1.412,-0.315,9.91,0
919,35.516,-97.517,344.8,7.7805,3,320,-1.149,-0.422,9.757,1
920,35.517,-97.517,345,6.1707,3,319,-1.3,-0.308,9.657,0
921,35.517,-97.517,345.1,4.7707,3,322,-1.654,-0.767,9.597,1
922,35.517,-97.517,345.3,3.7105,3,322,-1.764,-0.953,9.594,1
923,35.517,-97.517,345.4,2.8802,3,322,-2.065,-1.243,9.381,1
924,35.517,-97.517,345.4,2.5102,3,322,-2.022,-1.361,9.441,1
925,35.517,-97.517,345.4,2.2402,3,322,-1.951,-1.217,9.466,1
926,35.517,-97.517,345.3,1.7503,3,322,-2.172,-1.305,9.14,1
927,35.517,-97.517,345.3,1.47,3,321,-2.204,-1.586,9.031,1
928,35.517,-97.517,345.3,1.45,3,321,-2.073,-1.21,9.123,1
929,35.517,-97.517,345.3,1.12,3,321,-2.054,-1.285,9.209,1
930,35.517,-97.517,345.3,1.12,3,321,-2.082,-1.396,9.227,1
931,35.517,-97.517,345.3,0.5,3,321,-2.143,-1.354,9.081,1
932,35.517,-97.517,345.3,0.5,3,321,-2.363,-1.633,8.931,1
933,35.517,-97.517,345.3,0.5,3,321,-2.091,-1.319,9.125,1
934,35.517,-97.517,345.3,0.5,3,321,-2.263,-1.533,9.038,1
935,35.517,-97.517,345.3,0.5,3,321,-2.627,-1.98,8.773,1
936,35.517,-97.517,345.3,0.67007,3,322,-2.559,-1.95,8.945,1
937,35.517,-97.517,345.3,1.21,3,321,-2.529,-1.856,9.071,1
938,35.517,-97.517,345.3,1.65,3,321,-2.478,-1.831,9.248,1
939,35.517,-97.517,345.3,2.0301,3,321,-2.531,-1.957,9.004,1
940,35.517,-97.517,345.2,2.5203,3,321,-3.124,-2.548,8.652,1
941,35.517,-97.517,345.2,3.7605,3,321,-2.871,-2.324,8.823,1
942,35.517,-97.517,345.2,4.8504,3,320,-2.816,-2.121,8.735,1
943,35.517,-97.517,345.1,5.6607,3,320,-2.279,-1.647,9.201,1
944,35.517,-97.517,345.2,5.8107,3,320,-2.174,-1.519,9.039,1
945,35.517,-97.517,345.4,5.8507,3,320,-2.192,-1.552,9.069,1
946,35.517,-97.517,345.7,5.8605,3,320,-2.287,-1.491,9.184,1
947,35.517,-97.517,346,5.8509,3,319,-2.147,-1.485,8.808,1
948,35.517,-97.517,346.2,5.8512,3,320,-2.228,-1.519,9.174,0
949,35.517,-97.517,345.9,5.8405,3,320,-2.681,-2.121,8.769,1
950,35.517,-97.517,345.5,6.2008,3,319,-2.293,-1.835,9.043,1
951,35.517,-97.517,345.2,6.8714,3,319,-2.192,-1.63,9.127,1
952,35.517,-97.517,345.1,6.9912,3,319,-2.163,-1.596,9.093,1
953,35.517,-97.517,345.1,7.0612,3,319,-2.184,-1.602,9.199,1
954,35.518,-97.517,345.2,7.091,3,319,-2.041,-1.795,9.246,1
956,35.518,-97.517,345.4,7.1314,3,319,-2.04,-1.611,9.162,1
956,35.518,-97.517,345.4,7.1314,3,319,-2.04,-1.611,9.162,1
957,35.518,-97.517,345.6,7.1414,3,319,-1.909,-1.683,9.083,1
958,35.518,-97.517,345.8,7.1623,3,318,-2.127,-1.625,9.246,1
959,35.518,-97.517,346.2,7.2116,3,318,-1.903,-1.722,8.686,0
960,35.518,-97.517,346.6,7.2514,3,318,-2.095,-1.732,9.12,1
961,35.518,-97.517,347,7.2602,3,318,-1.94,-1.747,9.09,1
962,35.518,-97.517,347.4,7.2601,3,318,-1.634,-1.205,8.87,1
963,35.518,-97.517,347.9,6.8401,3,318,-1.179,-0.724,9.493,1
964,35.518,-97.517,348.3,6.0102,3,318,-0.851,-0.668,9.602,1
965,35.518,-97.517,348.7,4.6205,3,318,-1.192,-0.864,9.47,1
966,35.518,-97.517,349.1,2.2402,3,318,-1.338,-1.094,9.234,1
967,35.518,-97.517,349.2,1.74,3,317,-2.032,-1.747,9.043,1
968,35.518,-97.517,349.3,1.9602,3,317,-2.114,-2.019,8.821,1
969,35.518,-97.517,349.5,2.2502,3,317,-2.034,-1.898,9.09,1
970,35.518,-97.517,349.6,2.2406,3,317,-1.87,-1.81,8.868,1
971,35.518,-97.517,349.8,2.3303,3,317,-2.057,-1.87,9.224,1
972,35.518,-97.517,350,2.4902,3,317,-1.996,-1.932,8.961,1
973,35.518,-97.517,350.2,2.7802,3,317,-2.659,-2.542,8.697,1
974,35.518,-97.517,350.7,3.3804,3,317,-2.072,-1.995,9.11,1
975,35.518,-97.517,351.3,3.6803,3,317,-2.261,-2.235,8.627,1
976,35.518,-97.517,351.7,4.0902,3,317,-1.991,-1.806,9.15,1
977,35.518,-97.517,352.1,4.1202,3,317,-1.927,-1.798,9.04,1
978,35.518,-97.517,352.5,4.12,3,317,-1.839,-1.831,9.266,1
979,35.519,-97.517,352.8,4.0704,3,317,-1.837,-1.711,9.31,1
980,35.519,-97.517,353,4.0002,3,317,-1.972,-1.73,9.412,1
981,35.519,-97.517,353.2,4.34,3,316,-1.901,-1.989,9.081,1
982,35.519,-97.517,353.5,4.7607,3,316,-2.501,-2.528,8.832,1
983,35.519,-97.517,354,5.4008,3,316,-2.614,-2.544,8.722,1
984,35.519,-97.517,354.4,6.1308,3,316,-2.162,-1.9,9.134,1
985,35.519,-97.517,354.9,6.361,3,316,-2.155,-1.778,8.762,1
986,35.519,-97.517,355.5,6.6409,3,316,-2.03,-1.77,8.976,1
987,35.519,-97.517,355.9,6.7305,3,316,-1.889,-1.762,8.329,1
988,35.519,-97.517,356,6.9607,3,316,-2.173,-1.936,8.605,1
989,35.519,-97.517,356.6,7.3208,3,316,-2.245,-1.938,8.953,0
990,35.519,-97.517,357.4,7.7413,3,316,-2.135,-1.633,8.932,1
991,35.519,-97.517,358,7.9309,3,316,-2.674,-2.416,9.179,0
992,35.519,-97.517,358.7,8.3802,3,315,-2.11,-1.812,9,1
993,35.519,-97.517,359.3,8.6207,3,316,-2.065,-1.71,8.987,1
994,35.519,-97.517,0,8.7713,3,315,-2.249,-2.25,9.18,1
995,35.519,-97.517,0.7,9.1812,3,315,-2.481,-2.246,8.792,1
996,35.52,-97.517,1.2,9.6013,3,314,-2.182,-1.741,8.571,1
997,35.52,-97.517,1.8,9.6813,3,314,-2.079,-1.949,9.116,1
998,35.52,-97.517,2.5,9.8818,3,314,-2.041,-1.699,9.237,1
999,35.52,-97.517,3.2,10.022,3,314,-2.189,-1.688,9.031,1
1000,35.52,-97.517,4,10.071,3,314,-2.044,-1.636,8.993,0
1001,35.52,-97.517,4.7,10.162,3,314,-2.104,-1.847,8.9,1
1002,35.52,-97.517,5.4,10.442,3,313,-2.104,-1.733,9.025,1
1003,35.52,-97.517,6.3,10.492,3,313,-2.059,-1.724,8.964,1
1004,35.52,-97.517,6.9,10.521,3,313,-2.182,-1.743,9.014,1
1005,35.52,-97.517,7.7,10.591,3,313,-2.129,-1.631,9.034,1
1006,35.52,-97.517,8.5,10.672,3,313,-2.159,-1.497,8.576,0
1007,35.521,-97.517,9.2,10.742,3,313,-1.126,-0.145,9.714,1
1008,35.521,-97.517,10.1,10.251,3,313,-1.175,-0.467,9.79,0
1009,35.521,-97.517,11.2,8.4102,3,314,-2.03,-1.58,8.904,1
1010,35.521,-97.517,12.1,8.291,3,314,-1.923,-1.699,8.872,1
1011,35.521,-97.517,12.8,8.2307,3,314,-2.032,-1.682,9.198,1
1012,35.521,-97.517,12.9,8.1004,3,314,-2.112,-1.73,9.174,1
1013,35.521,-97.517,13,8.0802,3,314,-2.11,-1.734,9.189,1
1014,35.521,-97.517,13.1,8.0301,3,314,-2.059,-1.553,8.902,1
1015,35.521,-97.517,13.3,8.11,3,315,-2.13,-1.607,9.077,1
1017,35.521,-97.517,13.5,8.06,3,315,-2.17,-1.592,9.213,1
1017,35.521,-97.517,13.5,8.06,3,315,-2.17,-1.592,9.213,1
1018,35.521,-97.517,13.6,8.01,3,315,-2.249,-1.662,9.246,1
1019,35.521,-97.517,13.8,7.97,3,315,-2.281,-1.754,9.419,1
1020,35.521,-97.517,14.1,7.99,3,315,-2.388,-1.822,9.017,1
1021,35.522,-97.517,14.4,8.16,3,315,-2.377,-1.813,8.88,1
1022,35.522,-97.517,14.7,8.39,3,315,-2.531,-1.861,9.051,1
1023,35.522,-97.517,15.1,8.61,3,315,-2.742,-2.107,8.703,0
1024,35.522,-97.517,15.6,9.0801,3,315,-2.696,-2.296,8.827,1
1025,35.522,-97.517,15.9,9.6103,3,315,-2.681,-2.035,8.651,0
1026,35.522,-97.517,16.2,9.9701,3,315,-2.899,-2.375,9.161,0
1027,35.522,-97.517,16.6,10.61,3,315,-2.504,-1.889,8.753,1
1028,35.522,-97.517,17.2,11.25,3,316,-2.316,-1.516,8.949,0
1029,35.522,-97.517,17.5,11.13,3,315,-2.467,-1.969,9.02,0
1030,35.522,-97.517,17.9,11.4,3,316,-2.528,-1.83,9.072,1
1031,35.523,-97.517,18.2,11.531,3,316,-2.29,-1.617,9.452,1
1032,35.523,-97.517,18.8,11.42,3,316,-2.349,-1.598,9.414,1
1033,35.523,-97.517,19.2,11.301,3,316,-2.427,-1.969,8.883,1
1034,35.523,-97.516,19.6,11.522,3,317,-2.676,-2.08,9.055,0
1035,35.523,-97.516,20.1,11.902,3,317,-2.239,-1.661,9.366,0
1036,35.523,-97.516,20.2,11.812,3,317,-2.421,-2.118,9.68,0
1037,35.523,-97.516,20.3,11.742,3,317,-2.427,-1.716,9.587,0
1038,35.523,-97.516,20.6,11.542,3,318,-2.434,-1.569,9.534,0
1039,35.523,-97.516,21.4,11.041,3,318,-1.917,-1.036,9.466,0
1040,35.523,-97.516,22.2,10.022,3,318,-1.463,-0.706,9.326,1
1041,35.523,-97.516,22.9,9.1824,3,318,-2.277,-1.56,9.056,1
1042,35.524,-97.516,23.5,8.831,3,318,-1.83,-1.176,9.053,0
1043,35.524,-97.516,23.8,7.9209,3,318,-1.546,-0.909,9.376,1
1044,35.524,-97.516,23.7,6.7506,3,319,-2.154,-1.565,9.114,1
1045,35.524,-97.516,23.6,6.4208,3,319,-2.234,-1.519,9.064,1
1046,35.524,-97.516,23.5,6.1508,3,319,-2.367,-1.788,8.924,1
1047,35.524,-97.516,23.4,5.6206,3,319,-1.344,-0.73,9.616,1
1048,35.524,-97.516,23.4,4.1806,3,319,-1.664,-1.119,9.263,1
1049,35.524,-97.516,23.4,3.1206,3,319,-1.54,-0.927,9.589,1
