time,lat,lng,bearing,spd,acc,alt,accx,accy,accz,stable,
0,35.218,-97.513,0,0,13.653,312,-0.935,2.269,9.454,1
1,35.218,-97.513,0,0,13.653,312,-0.946,2.251,9.37,1
2,35.218,-97.513,0,0,13.653,312,-0.923,2.251,9.237,1
3,35.218,-97.513,0,0,13.653,312,-0.934,2.275,9.442,1
4,35.218,-97.513,0,0,13.653,312,-0.918,2.254,9.216,1
5,35.218,-97.513,0,0,13.653,312,-0.936,2.264,9.243,1
6,35.218,-97.513,0,0,13.653,312,-0.926,2.249,9.265,1
7,35.218,-97.513,0,0,13.653,312,-0.946,2.267,9.305,1
8,35.218,-97.513,0,0,13.653,312,-0.93,2.24,9.306,1
9,35.218,-97.513,0,0,13.653,312,-0.933,2.236,9.266,1
10,35.218,-97.513,0,0,13.653,312,-0.938,2.267,9.448,1
11,35.218,-97.513,0,0,13.653,312,-0.927,2.255,9.477,1
12,35.218,-97.513,0,0,13.653,312,-0.947,2.261,9.419,1
13,35.218,-97.513,0,0,13.653,312,-0.94,2.257,9.255,1
14,35.218,-97.513,0,0,13.653,312,-0.93,2.271,9.452,1
15,35.218,-97.513,0,0,13.653,312,-0.931,2.258,9.44,1
16,35.218,-97.513,0,0,13.653,312,-0.929,2.168,9.3,1
17,35.218,-97.513,0,0,13.653,312,-0.928,2.266,9.32,1
18,35.218,-97.513,0,0,13.653,312,-0.939,2.263,9.387,1
19,35.218,-97.513,0,0,13.653,312,-0.949,2.285,9.379,1
20,35.218,-97.513,0,0,13.653,312,-0.943,2.277,9.403,1
21,35.218,-97.513,0,0,13.653,312,-0.937,2.257,9.305,1
22,35.218,-97.513,0,0,13.653,312,-0.941,2.261,9.396,1
23,35.218,-97.513,0,0,13.653,312,-0.951,2.275,9.398,1
24,35.218,-97.513,0,0,13.653,312,-0.95,2.26,9.298,1
25,35.218,-97.513,0,0,13.653,312,-0.928,2.254,9.289,1
26,35.218,-97.513,0,0,13.653,312,-0.934,2.263,9.382,1
27,35.218,-97.513,0,0,13.653,312,-0.944,2.267,9.382,1
28,35.218,-97.513,0,0,13.653,312,-0.94,2.269,9.382,1
29,35.218,-97.513,0,0,13.653,312,-0.944,2.254,9.334,1
30,35.218,-97.513,0,0,13.653,312,-0.939,2.25,9.313,1
31,35.218,-97.513,0,0,13.653,312,-0.927,2.258,9.37,1
32,35.218,-97.513,0,0,13.653,312,-0.946,2.275,9.344,1
33,35.218,-97.513,0,0,13.653,312,-0.948,2.252,9.351,1
34,35.218,-97.513,0,0,13.653,312,-0.942,2.255,9.298,1
35,35.218,-97.513,0,0,13.653,312,-0.935,2.255,9.353,1
36,35.218,-97.513,0,0,13.653,312,-0.925,2.25,9.298,1
37,35.218,-97.513,0,0,13.653,312,-0.946,2.249,9.352,1
38,35.218,-97.513,0,0,13.653,312,-0.945,2.27,9.354,1
39,35.218,-97.513,0,0,13.653,312,-0.942,2.256,9.305,1
40,35.218,-97.513,0,0,13.653,312,-0.943,2.265,9.378,1
41,35.218,-97.513,0,0,13.653,312,-0.939,2.266,9.331,1
42,35.218,-97.513,0,0,13.653,312,-0.952,2.261,9.38,1
43,35.218,-97.513,0,0,13.653,312,-0.934,2.265,9.345,1
44,35.218,-97.513,0,0,13.653,312,-0.931,2.267,9.371,1
45,35.218,-97.513,0,0,13.653,312,-0.926,2.262,9.331,1
46,35.218,-97.513,0,0,13.653,312,-0.937,2.269,9.346,1
47,35.218,-97.513,0,0,13.653,312,-0.944,3.017,9.148,1
48,35.218,-97.513,0,0,13.653,312,-1.25,5.088,8.37,1
49,35.218,-97.513,0,0,13.653,312,-0.629,4.007,8.778,0
51,35.218,-97.513,0,0,13.653,312,0.745,3.947,8.955,1
51,35.218,-97.513,0,0,13.653,312,0.745,3.947,8.955,1
51,35.218,-97.513,0,0,13.653,312,0.745,3.947,8.955,1
53,35.218,-97.513,83.6,4.35,13.653,311,0.321,3.718,9.036,0
54,35.218,-97.513,87.3,6.18,13.653,312,-0.46,3.652,8.607,1
55,35.218,-97.513,87.8,7.37,13.653,310,-0.932,2.775,8.485,0
56,35.218,-97.513,87.6,7.62,15.17,309,-0.832,2.627,9.361,0
57,35.218,-97.513,91.4,10.21,15.17,307,-0.706,2.232,9.288,1
58,35.218,-97.513,91.4,10.34,15.17,308,-0.948,2.087,9.36,0
59,35.218,-97.513,91.2,10.34,16.687,307,-1.052,2.046,9.364,1
60,35.218,-97.513,96.7,9.15,16.687,305,-0.782,1.706,9.626,1
61,35.218,-97.512,86.6,9.97,18.204,303,-0.793,1.639,9.655,1
62,35.218,-97.512,81.7,9.65,18.204,302,-0.737,0.741,9.777,1
63,35.218,-97.512,77.6,8.79,19.721,303,-0.849,0.32,9.891,0
64,35.218,-97.512,92.6,8.37,19.721,303,-0.729,0.364,10.176,0
65,35.218,-97.512,97.1,6.99,19.721,300,-0.784,0.92,9.785,0
66,35.218,-97.512,101.2,5.66,19.721,301,-0.774,1.293,9.62,0
67,35.218,-97.512,89.5,5.12,19.721,301,-0.798,2.35,9.366,1
68,35.218,-97.512,91,5.79,19.721,301,-0.789,2.29,9.413,1
69,35.218,-97.512,91,5.79,19.721,301,-0.789,2.685,9.153,1
70,35.218,-97.512,88.2,2.62,19.721,303,-0.742,4.399,8.687,1
71,35.218,-97.512,102.1,0.75,21.238,305,-0.924,4.213,8.882,1
72,35.218,-97.512,178.8,0.52,21.238,306,-0.715,3.515,8.637,1
73,35.218,-97.512,159.2,1.62,19.721,306,-0.855,3.663,9.012,0
74,35.218,-97.512,127,1.77,19.721,306,-0.794,3.35,8.802,1
75,35.218,-97.512,117,3.38,19.721,305,-0.907,3.513,8.978,0
76,35.218,-97.512,88.6,6.23,19.721,305,-0.746,2.762,9.283,1
77,35.218,-97.512,95.2,7.69,19.721,306,-0.822,3.197,9.749,0
78,35.218,-97.511,92.8,10.16,18.204,305,-0.955,2.977,9.132,1
79,35.218,-97.511,90.8,10.22,18.204,305,-0.539,2.961,8.746,0
80,35.218,-97.511,83.1,10.44,18.204,304,-0.83,2.849,9.095,1
81,35.218,-97.511,82.4,11.73,19.721,305,-0.767,2.302,9.154,0
82,35.218,-97.511,86.6,12.77,19.721,303,-0.918,2.093,9.369,0
83,35.218,-97.511,85.6,13.13,19.721,305,-0.609,2.006,8.992,0
85,35.218,-97.511,89,13.38,19.721,305,-0.804,2.071,9.478,0
85,35.218,-97.511,89,13.38,19.721,305,-0.804,2.071,9.478,0
86,35.218,-97.51,85.1,13.9,19.721,303,-1.189,2.072,9.323,0
87,35.218,-97.51,97.1,14.14,21.238,303,-1.131,2.078,9.555,0
88,35.218,-97.51,90.7,12.75,22.755,303,-0.814,2.426,8.972,0
89,35.218,-97.51,83.6,12.74,21.238,302,-0.886,2.491,9.049,0
90,35.218,-97.51,88.1,12.39,22.755,303,-1.211,2.595,9.351,0
91,35.218,-97.51,88.8,12.02,21.238,304,-0.857,2.705,9.775,0
92,35.218,-97.509,90.8,12.65,21.238,303,-0.745,2.51,8.958,0
93,35.218,-97.509,87.1,12.91,21.238,305,-0.734,2.318,9.138,0
94,35.218,-97.509,89.5,13.28,19.721,302,-0.848,2.228,9.865,0
95,35.218,-97.509,89.1,13.89,19.721,300,-0.595,1.835,8.898,0
96,35.218,-97.509,92.7,13.37,21.238,301,-0.908,2.03,9.284,0
97,35.218,-97.509,91.9,12.8,22.755,303,-0.994,2.341,10.099,0
98,35.218,-97.509,98.3,12.05,21.238,301,-0.765,2.235,9.97,0
99,35.218,-97.508,98.6,12.68,21.238,303,-0.358,2.413,9.665,0
100,35.218,-97.508,95.1,13.31,21.238,303,-0.982,2.416,9.263,0
101,35.218,-97.508,93.6,12.21,21.238,304,-0.864,2.423,9.247,0
102,35.218,-97.508,100.5,14.18,21.238,308,-0.873,2.337,9.83,0
103,35.218,-97.508,94.1,13.78,21.238,309,-0.672,2.127,8.978,0
104,35.218,-97.508,91.1,12.78,22.755,307,-0.824,2.137,9.19,0
105,35.218,-97.508,85,12.4,21.238,306,-1.072,2.107,9.499,0
106,35.218,-97.507,88.6,12.33,22.755,307,-0.935,2.215,9.619,0
107,35.218,-97.507,90.1,12.59,21.238,306,-0.818,2.269,9.003,0
108,35.218,-97.507,93.9,12.54,19.721,308,-0.879,2.486,9.314,0
109,35.218,-97.507,97.9,12.07,21.238,309,-0.823,3.052,9.981,0
110,35.218,-97.507,103.8,12.95,21.238,307,-0.526,2.83,9.168,0
111,35.218,-97.507,97.8,12.04,21.238,305,-0.764,2.665,9.453,0
112,35.218,-97.507,96.8,11.01,21.238,304,-0.562,2.542,9.28,1
113,35.218,-97.507,90,11.66,21.238,305,-1.135,2.879,9.445,0
114,35.218,-97.506,82.1,12,19.721,305,-1.299,2.498,9.607,0
115,35.218,-97.506,88.6,12.86,19.721,303,-0.876,2.103,8.314,0
116,35.218,-97.506,87.5,13.29,19.721,305,-1.08,2.527,9.072,0
117,35.218,-97.506,92.1,13.22,21.238,304,-1.25,2.768,9.587,0
118,35.218,-97.506,106.2,14.82,21.238,305,-0.839,2.745,9.137,0
119,35.218,-97.506,99.5,14.33,21.238,307,-0.974,2.475,9.084,0
120,35.218,-97.505,105.8,14.95,21.238,309,-1.274,2.415,9.292,0
121,35.218,-97.505,97.5,14.23,22.755,309,-0.865,2.078,9.124,0
122,35.218,-97.505,91.3,13.75,25.789,309,-0.854,2.333,9.46,0
123,35.218,-97.505,83.1,13.19,27.306,306,-1.007,2.249,9.515,0
124,35.218,-97.505,74.7,13.31,22.755,304,-0.97,2.494,9.331,0
125,35.218,-97.505,82.8,12.96,21.238,305,-1.001,2.251,9.145,0
126,35.218,-97.505,82.6,13.25,22.755,306,-0.891,2.337,8.871,0
127,35.218,-97.504,75.2,13.18,24.272,304,-0.915,2.452,9.165,0
128,35.218,-97.504,91.4,13.65,22.755,306,-1.167,2.623,9.819,0
129,35.218,-97.504,87.9,13.63,22.755,305,-0.825,2.393,9.363,0
130,35.218,-97.504,81.7,13.27,21.238,306,-0.963,2.476,9.872,0
131,35.218,-97.504,83.7,13.56,19.721,306,-0.779,2.225,8.732,0
132,35.218,-97.504,89.4,13.95,18.204,308,-0.931,2.265,9.24,0
133,35.218,-97.504,86.2,13.67,18.204,308,-0.992,2.429,9.573,0
134,35.218,-97.503,87.2,13.54,18.204,309,-0.822,2.281,8.991,0
135,35.218,-97.503,89.7,13.62,16.687,309,-0.988,2.664,9.388,0
136,35.218,-97.503,89.9,13.42,16.687,311,-1.153,2.738,9.092,0
137,35.218,-97.503,89.7,13.6,16.687,311,-1.357,2.883,9.235,0
138,35.218,-97.503,90.2,13.92,16.687,313,-1.139,2.691,9.199,0
139,35.218,-97.503,88.9,13.96,15.17,313,-1.185,2.872,9.247,0
141,35.218,-97.503,87.4,13.88,15.17,313,-0.922,2.821,9.345,0
141,35.218,-97.503,87.4,13.88,15.17,313,-0.922,2.821,9.345,0
142,35.218,-97.502,88.2,14.13,15.17,313,-0.604,2.714,8.774,0
143,35.218,-97.502,88,14.48,15.17,314,-1.04,2.814,9.444,0
144,35.218,-97.502,89,14.53,15.17,314,-0.878,2.726,8.96,0
145,35.218,-97.502,89.9,14.55,15.17,313,-0.859,2.496,7.875,0
146,35.218,-97.502,90.9,14.52,15.17,311,-0.88,2.798,8.988,0
147,35.218,-97.501,90.7,14.66,15.17,312,-0.644,2.229,9.631,0
148,35.218,-97.501,91.2,14.25,16.687,312,-0.923,1.952,8.921,0
149,35.218,-97.501,90.6,14.45,18.204,313,-0.725,1.944,8.988,0
150,35.218,-97.501,89.3,14.44,19.721,312,-0.691,1.941,9.099,0
151,35.218,-97.501,89.9,15.08,19.721,312,-0.855,2.617,9.297,0
152,35.218,-97.501,105.2,15.64,19.721,314,-0.799,2.266,9.36,0
153,35.218,-97.5,101.8,15.21,19.721,314,-0.708,2.378,9.526,0
154,35.218,-97.5,97.9,16.06,19.721,313,-0.913,2.401,9.899,0
155,35.218,-97.5,95.1,16.35,19.721,312,-0.674,1.997,9.243,0
156,35.218,-97.5,97.5,15.76,21.238,313,-1.064,2.23,9.742,0
157,35.218,-97.5,104.3,14.48,21.238,312,-0.684,2.321,9.349,0
158,35.218,-97.5,94.9,13.85,21.238,311,-0.899,2.147,8.948,0
159,35.218,-97.499,85.9,14.85,19.721,309,-1.015,3.035,9.14,0
160,35.218,-97.499,78.7,15.6,19.721,310,-0.932,3.017,8.261,0
161,35.218,-97.499,83.1,15.61,19.721,310,-0.849,2.798,9.232,0
162,35.218,-97.499,92.1,16.51,19.721,312,-0.869,2.552,9.161,0
163,35.218,-97.499,92.1,16.53,21.238,313,-0.705,2.407,9.461,0
164,35.218,-97.499,84.9,16.9,21.238,314,-0.621,2.032,9,0
165,35.218,-97.498,82.7,16.7,21.238,313,-0.885,2.07,9.276,0
166,35.218,-97.498,84.4,15.58,21.238,312,-0.752,2.083,9.13,0
167,35.218,-97.498,89.2,15.48,21.238,312,-0.597,2.227,9.741,0
168,35.218,-97.498,87.6,16.25,22.755,313,-0.831,2.372,9.633,0
169,35.218,-97.498,92.3,17.67,21.238,314,-0.846,2.483,9.778,0
170,35.218,-97.497,91.4,18.77,21.238,314,-0.92,2.461,9.77,0
171,35.218,-97.497,90,16.9,19.721,314,-1.09,2.073,9.614,0
172,35.218,-97.497,92.7,16.87,19.721,316,-0.715,2.078,9.368,0
173,35.218,-97.497,94,17.4,19.721,315,-0.648,2.16,9.148,0
174,35.218,-97.497,94,15.66,21.238,314,-0.744,2.245,9.511,0
175,35.218,-97.497,98.3,15.69,21.238,314,-1.007,2.27,10.161,0
176,35.218,-97.496,87.4,15,21.238,314,-0.576,0.893,9.676,0
177,35.218,-97.496,88.9,14.2,21.238,314,-0.729,2.044,9.351,0
178,35.218,-97.496,85.6,13.74,21.238,315,-0.892,0.118,9.866,0
179,35.218,-97.496,87.3,13.29,19.721,314,-0.895,0.228,10.313,0
180,35.218,-97.496,75.8,12.57,19.721,312,-0.987,1.376,9.643,1
181,35.218,-97.496,73.7,10.16,19.721,312,-1.022,1.381,9.419,0
182,35.218,-97.496,79.6,9.01,21.238,311,-0.877,1.406,9.499,0
183,35.218,-97.496,90.5,7.99,21.238,312,-0.903,1.102,9.717,0
184,35.218,-97.496,95.1,7.13,19.721,311,-1.015,0.746,9.843,0
185,35.218,-97.495,93.2,5.67,19.721,311,-0.918,0.736,9.916,0
186,35.218,-97.495,107.3,5.16,19.721,309,-0.94,1.119,9.686,1
187,35.218,-97.495,117.9,3.77,19.721,310,-0.935,2.33,9.336,1
188,35.218,-97.495,115,2.52,19.721,312,-0.962,2.373,9.397,1
189,35.218,-97.495,167.5,0.58,16.687,312,-0.979,2.393,9.355,1
190,35.218,-97.495,163,0.71,16.687,316,-0.98,2.389,9.263,1
191,35.218,-97.495,0,0,16.687,316,-0.966,2.373,9.217,1
192,35.218,-97.495,154.6,0.22,16.687,316,-0.961,2.397,9.358,1
193,35.218,-97.495,132,0.22,15.17,316,-0.969,2.724,9.228,1
194,35.218,-97.495,132,0.22,15.17,316,-0.961,3.214,9.065,1
195,35.218,-97.495,53.3,0.42,15.17,315,-0.997,1.637,9.655,1
196,35.218,-97.495,53.3,0.42,15.17,315,-0.982,2.754,9.253,1
197,35.218,-97.495,41.8,0.67,16.687,315,-0.956,3.421,9.005,1
198,35.218,-97.495,41.8,0.67,16.687,315,-0.955,3.812,8.822,1
199,35.218,-97.495,87.5,1.06,16.687,318,-0.845,3.71,8.659,1
201,35.218,-97.495,127.3,2.5,18.204,317,-1.005,3.458,8.931,1
201,35.218,-97.495,127.3,2.5,18.204,317,-1.005,3.458,8.931,1
202,35.218,-97.495,125,2.72,19.721,317,-0.786,3.607,8.878,0
203,35.218,-97.495,102.3,3.55,19.721,316,-1.122,3.514,9.138,1
204,35.218,-97.495,92.5,3.72,19.721,316,-1.216,3.514,8.878,0
205,35.218,-97.495,78,6.92,19.721,315,-1.076,2.775,9.371,0
206,35.218,-97.495,68.1,10.46,19.721,314,-0.967,3.073,9.049,1
207,35.218,-97.495,89.6,10.52,16.687,314,-0.979,3.061,8.94,0
208,35.218,-97.495,89.8,11.18,16.687,313,-1.063,2.238,9.332,0
209,35.218,-97.495,90.4,11.14,16.687,313,-0.952,2.875,9.223,1
210,35.218,-97.494,90.6,11.6,16.687,312,-0.96,3.037,9.496,0
211,35.218,-97.494,89.1,12.26,15.17,312,-0.649,2.848,8.125,0
212,35.218,-97.494,89.5,12.46,16.687,313,-0.591,3.47,9.673,0
213,35.218,-97.494,89.9,12.75,16.687,314,-0.929,3.364,9.211,0
214,35.218,-97.494,89.3,14.04,16.687,311,-0.886,3.203,9.113,1
215,35.218,-97.494,90.4,13.83,18.204,310,-0.915,3.291,9.268,0
216,35.218,-97.494,90.6,15.13,19.721,312,-0.772,3.014,9.386,0
217,35.218,-97.493,90.3,15.96,19.721,313,-0.631,2.344,9.377,0
218,35.218,-97.493,91.3,16.01,19.721,314,-1.122,2.306,9.774,0
219,35.218,-97.493,96.4,18.67,18.204,313,-1.016,2.225,10.174,0
220,35.218,-97.493,95.3,18.07,19.721,313,-0.785,2.387,9.742,0
221,35.218,-97.492,91.7,18.86,19.721,313,-1.085,2.341,9.452,1
222,35.218,-97.492,92,19.32,19.721,310,-0.669,2.399,9.33,1
223,35.218,-97.492,88.8,18.96,19.721,309,-0.662,2.322,9.821,0
224,35.218,-97.492,87.9,17.97,19.721,306,-0.504,2.079,9.108,0
225,35.218,-97.492,86.9,16.9,19.721,307,-0.919,1.849,9.044,0
226,35.218,-97.491,85.6,17.75,19.721,306,-0.897,1.719,9.364,0
227,35.218,-97.491,90.5,16.53,21.238,306,-0.848,1.697,9.457,0
228,35.218,-97.491,86,15.92,19.721,306,-0.861,1.654,9.424,0
229,35.218,-97.491,87.8,15.21,21.238,305,-0.745,1.421,9.482,1
230,35.218,-97.491,86.4,14.12,21.238,304,-0.896,1.214,9.523,1
231,35.218,-97.491,93.7,12.83,22.755,305,-1.022,1.257,9.741,1
232,35.218,-97.491,90.8,11.76,21.238,305,-0.889,1.01,9.676,1
233,35.218,-97.49,93.4,12.21,21.238,306,-0.637,1.125,9.869,1
234,35.218,-97.49,100.2,10.91,21.238,307,-0.759,0.604,9.815,0
235,35.218,-97.49,109.2,10.28,21.238,309,-0.803,0.775,9.862,0
236,35.218,-97.49,101.3,9.36,21.238,310,-0.735,1.058,9.717,0
237,35.218,-97.49,88.2,7.24,21.238,310,-0.711,1.384,9.62,1
238,35.218,-97.49,81.1,7.15,21.238,309,-0.701,1.655,9.551,1
239,35.218,-97.49,87.5,5.33,24.272,308,-0.705,1.812,9.499,1
240,35.218,-97.49,77.3,2.26,22.755,308,-0.696,1.893,9.448,1
241,35.218,-97.49,24.5,2.03,21.238,308,-0.708,2.343,9.387,1
242,35.218,-97.49,32.7,1.53,21.238,308,-0.731,2.333,9.297,1
243,35.218,-97.49,1.7,2.01,21.238,308,-0.709,2.363,9.346,1
244,35.218,-97.49,338.3,1.49,21.238,309,-0.692,2.353,9.409,1
245,35.218,-97.49,326,2.77,21.238,310,-0.714,2.356,9.293,1
246,35.218,-97.49,348.2,1.79,21.238,311,-0.704,2.353,9.276,1
247,35.218,-97.49,57.1,1.07,21.238,313,-0.716,2.361,9.334,1
248,35.218,-97.49,117.8,0.2,21.238,315,-0.704,2.368,9.381,1
249,35.218,-97.49,161.8,1.17,21.238,313,-0.712,2.37,9.331,1
250,35.218,-97.49,101.2,1.37,21.238,313,-0.691,2.347,9.219,1
251,35.218,-97.49,292.5,0.76,24.272,314,-0.702,2.348,9.212,1
252,35.218,-97.49,200.4,1.37,21.238,316,-0.706,2.336,9.379,1
253,35.218,-97.49,238,1.37,21.238,317,-0.711,2.367,9.421,1
254,35.218,-97.49,238,1.37,21.238,317,-0.705,2.33,9.29,1
256,35.218,-97.49,217.9,1.67,19.721,317,-0.691,2.341,9.413,1
256,35.218,-97.49,217.9,1.67,19.721,317,-0.691,2.341,9.413,1
257,35.218,-97.49,230.1,0.66,19.721,319,-0.705,2.361,9.303,1
258,35.218,-97.49,221.1,1.08,19.721,320,-0.703,2.352,9.424,1
259,35.218,-97.49,162.1,1.42,19.721,321,-0.71,2.346,9.371,1
260,35.218,-97.49,132.2,0.84,19.721,322,-0.707,2.362,9.433,1
261,35.218,-97.49,92.1,0.76,19.721,323,-0.711,2.341,9.384,1
262,35.218,-97.49,21.3,0.88,19.721,324,-0.71,2.376,9.421,1
263,35.218,-97.49,0,0,16.687,322,-0.7,2.358,9.21,1
264,35.218,-97.49,322,0.21,16.687,321,-0.698,2.373,9.256,1
265,35.218,-97.49,308.1,0.47,16.687,322,-0.689,2.352,9.219,1
266,35.218,-97.49,260.8,1.26,18.204,320,-0.706,2.371,9.416,1
267,35.218,-97.49,255,0.82,19.721,320,-0.709,2.357,9.416,1
268,35.218,-97.49,252.6,1.67,19.721,320,-0.703,2.342,9.283,1
269,35.218,-97.49,253.3,0.34,16.687,321,-0.706,2.335,9.201,1
270,35.218,-97.49,253.3,0.34,16.687,321,-0.703,2.356,9.442,1
271,35.218,-97.49,163.9,0.65,16.687,322,-0.704,2.333,9.264,1
272,35.218,-97.49,163.9,0.65,16.687,322,-0.704,2.369,9.419,1
273,35.218,-97.49,163.9,0.65,16.687,322,-0.701,2.343,9.205,1
274,35.218,-97.49,163.9,0.65,16.687,322,-0.692,2.356,9.439,1
275,35.218,-97.49,5.9,1.42,19.721,322,-0.719,2.374,9.329,1
276,35.218,-97.49,26.3,2.3,19.721,325,-0.71,2.338,9.254,1
277,35.218,-97.49,33.6,1.19,19.721,325,-0.703,2.337,9.302,1
278,35.218,-97.49,33.6,1.19,19.721,325,-0.698,2.334,9.202,1
279,35.218,-97.49,74.8,0.33,19.721,323,-0.702,2.343,9.358,1
280,35.218,-97.49,74.8,0.33,19.721,323,-0.698,2.339,9.21,1
281,35.218,-97.49,39.6,0.8,21.238,323,-0.708,2.361,9.44,1
282,35.218,-97.49,10.8,1.02,19.721,322,-0.695,2.339,9.259,1
283,35.218,-97.49,10.8,1.02,19.721,322,-0.708,2.371,9.432,1
284,35.218,-97.49,49.3,0.77,19.721,320,-0.702,2.335,9.256,1
285,35.218,-97.49,181.4,1.8,21.238,319,-0.719,2.367,9.405,1
286,35.218,-97.49,208.1,2.26,19.721,318,-0.704,2.371,9.408,1
287,35.218,-97.49,213.1,1.92,19.721,318,-0.717,2.358,9.295,1
288,35.218,-97.49,213.1,1.92,19.721,318,-0.702,2.332,9.311,1
289,35.218,-97.49,68.4,1.68,19.721,316,-0.721,2.377,9.384,1
290,35.218,-97.49,28.7,1.2,19.721,317,-0.699,2.337,9.218,1
291,35.218,-97.49,15.2,0.76,19.721,316,-0.7,2.362,9.351,1
292,35.218,-97.49,354.4,1.53,19.721,317,-0.7,2.363,9.379,1
293,35.218,-97.49,327.8,1.22,19.721,319,-0.709,2.362,9.437,1
294,35.218,-97.49,327.8,1.22,19.721,319,-0.716,2.363,9.292,1
295,35.218,-97.49,83.4,1.6,19.721,321,-0.702,2.328,9.248,1
296,35.218,-97.49,97.6,1.2,19.721,321,-0.703,2.354,9.423,1
297,35.218,-97.49,97.6,1.2,19.721,321,-0.698,2.347,9.215,1
298,35.218,-97.49,97.6,1.2,19.721,321,-0.714,2.346,9.245,1
299,35.218,-97.49,97.6,1.2,19.721,321,-0.703,2.352,9.21,1
300,35.218,-97.49,308.9,1.6,19.721,321,-0.699,2.351,9.407,1
301,35.218,-97.49,284.3,0.89,19.721,320,-0.711,2.357,9.291,1
302,35.218,-97.49,284.3,0.89,19.721,320,-0.712,2.369,9.427,1
303,35.218,-97.49,226.6,0.54,19.721,320,-0.699,2.337,9.218,1
304,35.218,-97.49,197.9,1.34,18.204,321,-0.705,2.349,9.397,1
305,35.218,-97.49,174.7,2.42,19.721,322,-0.707,2.346,9.308,1
306,35.218,-97.49,173.1,1.5,18.204,322,-0.707,2.349,9.437,1
307,35.218,-97.49,172.9,1.28,19.721,323,-0.707,2.704,9.196,1
309,35.218,-97.49,160.8,1.01,19.721,325,-0.776,4.832,8.507,1
309,35.218,-97.49,160.8,1.01,19.721,325,-0.776,4.832,8.507,1
310,35.218,-97.49,84.9,1.66,19.721,327,-0.742,4.264,8.621,1
311,35.218,-97.49,99.8,2.31,19.721,325,-0.766,4.023,8.919,1
312,35.218,-97.49,115,2.63,19.721,326,-0.714,4.04,8.872,1
313,35.218,-97.49,118.3,3.24,19.721,326,-0.735,3.813,8.825,1
314,35.218,-97.49,112.6,4.09,19.721,326,-0.729,3.614,8.131,0
315,35.218,-97.49,97.1,5.2,19.721,326,-0.932,3.368,8.833,0
316,35.218,-97.49,85.4,8.13,19.721,327,-0.961,3.383,8.642,0
317,35.218,-97.49,87.5,10.68,19.721,328,-0.95,3.374,8.923,1
318,35.218,-97.489,91,11.13,19.721,326,-0.892,3.393,8.92,1
319,35.218,-97.489,89.1,10.74,19.721,326,-0.852,3.374,8.863,1
320,35.218,-97.489,74.5,13.75,19.721,326,-0.831,2.277,9.369,0
321,35.218,-97.489,83.2,16.73,19.721,325,-0.82,2.58,9.51,0
322,35.218,-97.489,86,17.05,18.204,326,-0.953,2.816,9.595,0
323,35.218,-97.489,89.3,17.03,19.721,324,-0.777,2.819,9.275,0
324,35.218,-97.488,92.8,16.29,19.721,324,-0.94,2.851,9.289,0
325,35.218,-97.488,91.2,16.79,19.721,325,-0.908,2.401,9.488,0
326,35.218,-97.488,88.5,17.6,19.721,326,-0.952,2.158,9.152,1
327,35.218,-97.488,89,17.79,19.721,325,-0.836,2.185,9.706,0
328,35.218,-97.488,102.2,19.25,19.721,327,-0.87,2.174,9.713,0
329,35.218,-97.487,100.7,17.5,19.721,328,-0.888,2.203,9.465,0
330,35.218,-97.487,101.5,16.08,21.238,328,-0.891,1.953,9.317,0
331,35.218,-97.487,101.6,15.44,21.238,328,-0.829,1.456,9.727,0
332,35.218,-97.487,97.3,15.2,19.721,326,-0.893,0.8,9.895,0
333,35.218,-97.487,86.3,15.38,21.238,327,-0.848,0.779,9.71,0
334,35.218,-97.487,84.5,13.97,21.238,327,-0.902,0.701,9.806,0
335,35.218,-97.486,89,12.23,21.238,325,-0.876,1.183,9.645,0
336,35.218,-97.486,91.7,10.58,21.238,325,-0.905,1.441,9.561,0
337,35.218,-97.486,89.9,9.48,24.272,327,-0.903,1.649,9.488,0
338,35.218,-97.486,91.6,9.09,22.755,323,-0.817,1.587,9.631,0
339,35.218,-97.486,84.4,7.59,21.238,322,-0.888,1.818,9.407,1
340,35.218,-97.486,83.6,6.52,22.755,323,-0.932,1.888,9.629,1
341,35.218,-97.486,104.9,3.74,22.755,321,-0.818,2.066,9.386,1
342,35.218,-97.486,89.5,2.86,24.272,322,-0.828,2.22,9.292,1
343,35.218,-97.486,58.3,4.67,22.755,323,-0.839,2.011,9.483,1
344,35.218,-97.486,41,3.54,24.272,323,-0.868,2.044,9.503,1
345,35.218,-97.486,6.9,2.16,22.755,323,-0.852,2.125,9.478,1
346,35.218,-97.486,54.8,2.02,21.238,324,-0.84,2.514,9.251,1
347,35.218,-97.486,6.5,1.9,19.721,323,-0.841,2.521,9.335,1
348,35.218,-97.486,358.8,1.16,19.721,325,-0.851,2.507,9.366,1
349,35.218,-97.486,178.1,1.25,19.721,325,-0.849,2.474,9.204,1
350,35.218,-97.486,124,1.51,19.721,327,-0.847,2.475,9.218,1
351,35.218,-97.486,53.1,1.01,19.721,327,-0.815,2.482,9.21,1
352,35.218,-97.486,75.3,0.88,19.721,329,-0.852,2.496,9.349,1
353,35.218,-97.486,40.9,1.18,21.238,331,-0.839,2.6,9.329,1
354,35.218,-97.486,332.2,1.54,21.238,330,-0.845,3.717,8.912,1
355,35.218,-97.486,272.4,2.12,19.721,328,-0.881,4.691,8.531,1
356,35.218,-97.486,279.7,1.92,19.721,329,-0.909,4.194,8.822,1
358,35.218,-97.486,309.8,1.18,19.721,329,-0.87,4.299,8.945,0
358,35.218,-97.486,309.8,1.18,19.721,329,-0.87,4.299,8.945,0
359,35.218,-97.486,52.7,4.85,19.721,325,-0.877,4.105,8.961,1
360,35.218,-97.486,81.2,7.08,19.721,326,-0.996,3.805,8.934,1
361,35.218,-97.486,106,9.47,19.721,327,-0.922,3.619,8.939,1
362,35.218,-97.486,97.8,8.79,19.721,327,-0.961,3.239,8.849,0
363,35.218,-97.486,105.8,8.81,19.721,326,-0.824,3.392,8.921,1
364,35.218,-97.485,93.6,10.26,19.721,326,-1.045,3.439,9.097,0
365,35.218,-97.485,92,12.51,19.721,324,-0.729,2.549,8.89,1
366,35.218,-97.485,90.8,14.75,18.204,322,-0.847,2.246,9.239,1
367,35.218,-97.485,95.7,15.83,18.204,322,-1.087,2.279,9.663,0
368,35.218,-97.485,96.7,16.23,19.721,324,-0.918,2.012,8.99,1
369,35.218,-97.484,89.5,15.53,16.687,322,-0.802,2.136,9.472,1
370,35.218,-97.484,89.4,15.69,16.687,326,-0.662,2.065,9.419,1
371,35.218,-97.484,90.1,15.57,16.687,325,-1.03,2.1,9.319,0
372,35.218,-97.484,89.5,15.74,16.687,322,-0.85,2.08,9.332,1
373,35.218,-97.484,89.2,15.94,16.687,324,-0.852,2.043,9.34,1
374,35.218,-97.484,89.4,15.76,18.204,324,-0.826,1.274,9.623,0
375,35.218,-97.483,89.5,15.31,18.204,323,-0.89,1.736,9.455,1
376,35.218,-97.483,90.4,15.11,18.204,322,-0.967,2.416,9.116,0
377,35.218,-97.483,91.8,14.63,18.204,322,-0.754,2.703,9.318,0
378,35.218,-97.483,90.8,15.11,18.204,323,-0.769,2.648,9.371,1
379,35.218,-97.483,96.8,15.43,18.204,323,-0.741,2.163,9.356,1
380,35.218,-97.483,88,16.6,19.721,320,-0.817,2.179,9.572,0
381,35.218,-97.482,87.9,16.07,19.721,319,-0.769,2.086,9.219,0
382,35.218,-97.482,88.1,15.63,19.721,319,-0.696,2.202,9.406,0
383,35.218,-97.482,87.1,15.93,19.721,318,-0.923,2.21,9.635,0
384,35.218,-97.482,87.1,15.28,19.721,318,-1.084,2.461,9.336,0
385,35.218,-97.482,83.9,16.01,19.721,319,-0.648,2.552,9.364,0
386,35.218,-97.482,90.4,15.93,18.204,319,-0.654,2.921,9.33,0
387,35.218,-97.481,93.1,15.98,18.204,318,-1.155,2.743,8.971,0
388,35.218,-97.481,94.4,17.51,18.204,317,-1.035,2.286,9.491,0
389,35.218,-97.481,93.7,18.42,19.721,317,-0.716,2.276,9.545,0
390,35.218,-97.481,92.9,17.54,19.721,317,-0.709,2.141,9.613,0
391,35.218,-97.481,90.7,18.12,21.238,317,-0.685,2.086,9.183,0
392,35.218,-97.48,86.4,18.61,21.238,315,-0.769,1.952,9.339,0
393,35.218,-97.48,83.4,17.37,21.238,315,-0.503,2.244,9.549,0
394,35.218,-97.48,81.9,16.58,21.238,315,-0.808,2.228,9.196,0
395,35.218,-97.48,83.3,16.46,21.238,315,-0.88,1.963,8.716,0
396,35.218,-97.48,85.8,15.75,21.238,317,-1.066,1.962,9.774,0
397,35.218,-97.479,84.5,17.1,19.721,319,-0.659,1.792,9.192,0
398,35.218,-97.479,90.1,15.63,21.238,321,-0.824,1.655,9.246,0
399,35.218,-97.479,85.8,16.84,21.238,320,-0.835,1.752,9.723,0
400,35.219,-97.479,84.4,15.82,21.238,320,-0.5,1.529,8.977,0
401,35.219,-97.479,85.8,15.77,21.238,323,-0.72,1.158,9.287,0
402,35.218,-97.479,94.5,14.54,21.238,322,-0.718,2.106,9.533,0
403,35.219,-97.478,85.8,14.86,19.721,321,-0.745,2.549,9.464,0
404,35.219,-97.478,86.1,14.4,19.721,320,-0.736,2.778,9.259,0
405,35.218,-97.478,90.1,13.44,19.721,321,-0.797,2.335,9.587,0
406,35.218,-97.478,92.7,13.14,19.721,322,-0.71,2.219,9.742,0
407,35.218,-97.478,100.5,12.2,19.721,319,-0.842,1.626,9.527,1
408,35.218,-97.478,88.6,11.46,19.721,319,-0.641,0.957,9.92,0
410,35.218,-97.478,91.9,10.9,21.238,317,-0.865,0.002,9.939,0
410,35.218,-97.478,91.9,10.9,21.238,317,-0.865,0.002,9.939,0
411,35.218,-97.478,100.7,9.24,19.721,319,-0.882,1.312,10.256,0
412,35.218,-97.477,103.8,9.31,19.721,317,-0.841,1.323,9.735,1
413,35.218,-97.477,105.4,7.96,19.721,317,-0.797,1.058,9.746,1
414,35.218,-97.477,112.2,6.9,19.721,317,-0.824,1.238,9.72,0
415,35.218,-97.477,103.9,7.02,19.721,317,-0.77,1.603,9.458,1
416,35.218,-97.477,124.3,6.29,19.721,317,-0.863,2.057,9.413,1
417,35.218,-97.477,126.1,4.95,19.721,314,-0.826,1.252,9.551,1
418,35.218,-97.477,124.6,4.7,19.721,315,-0.817,1.409,9.587,1
419,35.218,-97.477,132.9,3.6,21.238,315,-0.81,2.106,9.437,1
420,35.218,-97.477,142,1.94,21.238,315,-0.799,2.26,9.445,1
421,35.218,-97.477,83.8,0.5,21.238,315,-0.818,2.269,9.363,1
422,35.218,-97.477,15.8,0.6,21.238,316,-0.806,2.284,9.365,1
423,35.218,-97.477,17.4,1.88,21.238,316,-0.798,2.262,9.389,1
424,35.218,-97.477,2.3,3.54,19.721,319,-0.801,2.252,9.29,1
425,35.218,-97.477,344.9,3.1,19.721,318,-0.794,2.262,9.437,1
426,35.218,-97.477,348.4,4.21,18.204,319,-0.816,2.26,9.294,1
427,35.218,-97.477,21.3,1.62,18.204,319,-0.787,2.242,9.263,1
428,35.218,-97.477,140.3,0.66,18.204,320,-0.796,2.261,9.44,1
429,35.218,-97.477,67.8,0.73,19.721,320,-0.823,2.255,9.364,1
430,35.218,-97.477,202.3,1.67,19.721,319,-0.803,2.265,9.438,1
431,35.218,-97.477,237.3,0.83,19.721,318,-0.801,2.244,9.236,1
432,35.218,-97.477,312.1,1.99,19.721,314,-0.812,2.273,9.366,1
433,35.218,-97.477,354.1,0.74,19.721,316,-0.814,2.244,9.314,1
434,35.218,-97.477,8.2,1.07,19.721,316,-0.812,2.23,9.289,1
435,35.218,-97.477,19.9,0.92,19.721,318,-0.798,2.263,9.475,1
436,35.218,-97.477,19.9,0.92,19.721,318,-0.795,2.265,9.256,1
437,35.218,-97.477,19.9,0.92,19.721,318,-0.817,2.267,9.417,1
438,35.218,-97.477,300.6,0.74,21.238,322,-0.844,4.386,8.752,1
439,35.218,-97.477,306.1,0.96,19.721,322,-0.827,4.606,8.618,1
440,35.218,-97.477,88.1,2.07,19.721,320,-0.709,2.418,9.468,1
441,35.218,-97.477,149.2,4.39,19.721,319,-0.646,3.125,9.142,1
442,35.218,-97.477,151.6,5.77,19.721,321,-0.659,3.412,8.956,1
443,35.218,-97.477,108.2,4.8,21.238,321,-0.832,3.047,8.763,0
444,35.218,-97.477,94.6,5.75,21.238,322,-0.646,3.03,9.011,1
445,35.218,-97.477,85.9,6.66,19.721,321,-0.833,2.928,9.522,0
446,35.218,-97.477,79.4,8.28,19.721,321,-1.042,2.97,9.078,0
447,35.218,-97.477,73.8,9.43,19.721,320,-1.05,3.017,9.141,0
448,35.218,-97.476,82.7,9.28,19.721,319,-0.834,3.126,9.111,0
449,35.218,-97.476,84.3,11.01,19.721,317,-0.914,3.046,8.852,0
450,35.218,-97.476,77.5,12.11,19.721,320,-0.428,2.229,8.918,0
451,35.218,-97.476,83.2,11.4,19.721,318,-0.832,2.801,10.014,0
452,35.218,-97.476,83.5,11.15,19.721,316,-0.939,2.185,9.518,0
453,35.218,-97.476,87.8,11.48,19.721,315,-0.695,2.085,9.035,0
454,35.218,-97.476,89.7,12.41,18.204,315,-0.743,2.574,9.161,0
455,35.218,-97.476,91.9,12.34,19.721,316,-0.899,2.194,9.407,1
456,35.218,-97.475,90.7,12.64,19.721,316,-0.607,1.827,9.811,1
457,35.218,-97.475,86.7,14.81,18.204,316,-1.021,2.123,10.072,0
458,35.218,-97.475,97.5,15.93,19.721,319,-0.614,2.129,9.357,0
459,35.218,-97.475,97.4,15.26,19.721,322,-0.714,2.64,8.96,0
460,35.218,-97.475,97.1,14.64,19.721,320,-1.021,0.261,9.567,0
461,35.218,-97.474,90.7,15.19,19.721,319,-0.677,1.789,9.579,0
462,35.218,-97.474,89.3,15.18,19.721,319,-0.806,1.993,9.423,0
463,35.218,-97.474,92.1,16.53,19.721,321,-0.903,2.079,9.437,0
464,35.218,-97.474,89.7,15.4,21.238,320,-0.647,0.991,9.314,0
466,35.218,-97.474,92.7,14.33,21.238,319,-0.951,1.534,9.814,0
466,35.218,-97.474,92.7,14.33,21.238,319,-0.951,1.534,9.814,0
467,35.218,-97.474,87.5,13.86,21.238,318,-0.55,0.728,9.614,0
468,35.218,-97.473,84.2,11.85,21.238,319,-0.704,2.012,9.249,0
469,35.218,-97.473,83.2,9.66,21.238,320,-0.662,-0.354,10.025,0
470,35.218,-97.473,78.9,9.39,21.238,318,-0.786,1.233,10.007,0
471,35.218,-97.473,76.9,8.36,21.238,318,-0.579,1.871,9.393,0
472,35.218,-97.473,82,6.45,24.272,319,-0.758,1.141,9.779,0
473,35.218,-97.473,82,6.45,24.272,319,-0.741,1.541,9.605,1
474,35.218,-97.473,79.9,2.13,21.238,317,-0.752,0.992,9.837,1
475,35.218,-97.473,43,2.04,21.238,318,-0.763,1.021,9.82,1
476,35.218,-97.473,36.5,2.12,19.721,319,-0.757,2.17,9.294,1
477,35.219,-97.473,16.9,2.98,21.238,318,-0.779,2.256,9.338,1
478,35.219,-97.473,7.9,3.17,19.721,318,-0.762,2.252,9.279,1
479,35.219,-97.473,7.9,3.17,19.721,318,-0.774,2.261,9.3,1
480,35.219,-97.473,80.6,1.04,19.721,319,-0.758,2.252,9.259,1
481,35.218,-97.473,190,0.99,19.721,317,-0.771,2.292,9.431,1
482,35.218,-97.473,174.5,3.75,21.238,317,-0.766,2.294,9.433,1
483,35.218,-97.473,149,2.62,21.238,314,-0.773,2.264,9.265,1
484,35.218,-97.473,100,1.46,21.238,313,-0.775,2.285,9.406,1
485,35.218,-97.473,134.8,1.79,21.238,314,-0.771,2.284,9.452,1
486,35.218,-97.473,144.2,1.97,21.238,312,-0.76,2.287,9.45,1
487,35.218,-97.473,183,2.82,21.238,311,-0.773,2.285,9.449,1
488,35.218,-97.473,211.2,2.79,21.238,311,-0.752,2.274,9.224,1
489,35.218,-97.473,217,2.1,19.721,309,-0.757,2.288,9.472,1
490,35.218,-97.473,215.4,1.57,21.238,309,-0.773,2.286,9.34,1
491,35.218,-97.473,199.2,1.45,21.238,312,-0.775,2.291,9.446,1
492,35.218,-97.473,205.3,0.5,21.238,313,-0.767,2.282,9.449,1
493,35.218,-97.473,258,0.88,21.238,309,-0.759,2.273,9.28,1
494,35.218,-97.473,310.3,1.02,19.721,308,-0.791,2.282,9.316,1
495,35.218,-97.473,328.7,1.99,19.721,309,-0.769,2.271,9.363,1
496,35.218,-97.473,340.5,3.17,19.721,309,-0.782,2.588,9.316,1
497,35.218,-97.473,356.7,1.92,18.204,308,-0.749,2.649,9.217,1
498,35.218,-97.473,3.1,0.21,16.687,307,-0.765,2.648,9.316,1
499,35.218,-97.473,3.1,0.21,16.687,307,-0.768,2.561,9.198,1
500,35.218,-97.473,78.5,0.67,15.17,309,-0.756,4.208,8.672,1
501,35.218,-97.473,85.9,1.81,15.17,310,-0.795,3.598,8.939,1
502,35.218,-97.473,87.5,2.61,15.17,309,-0.818,3.839,8.807,1
503,35.218,-97.473,88.1,3.26,15.17,309,-0.726,3.765,8.93,1
504,35.218,-97.473,95.7,4.14,16.687,307,-0.777,3.7,8.585,0
505,35.218,-97.473,101.1,4.94,16.687,308,-0.884,3.956,9.026,0
506,35.218,-97.473,96,5.98,16.687,307,-0.843,3.504,8.552,0
507,35.218,-97.473,99.6,7.6,16.687,308,-0.686,3.447,8.77,0
508,35.218,-97.473,91.1,9.27,16.687,308,-1.064,3.375,8.891,0
509,35.218,-97.473,86.7,10.25,18.204,307,-0.931,3.066,9.17,1
510,35.218,-97.472,94.3,12.93,16.687,310,-0.732,2.656,8.926,0
511,35.218,-97.472,93.2,13.95,16.687,309,-0.712,2.612,9.118,0
512,35.218,-97.472,94.2,13.9,16.687,310,-0.674,2.654,9.69,0
513,35.218,-97.472,94.9,15.95,18.204,311,-0.687,2.266,9.421,0
514,35.218,-97.472,86.3,16.35,18.204,313,-0.639,2.128,9.123,0
515,35.218,-97.471,86.5,16.95,19.721,312,-0.812,2.119,9.094,0
516,35.218,-97.471,79.9,15.88,19.721,311,-0.574,2.053,9.426,0
517,35.218,-97.471,81.9,15.58,18.204,312,-0.944,2.067,9.988,0
519,35.218,-97.471,86.4,14.21,18.204,313,-0.877,2.246,8.557,0
519,35.218,-97.471,86.4,14.21,18.204,313,-0.877,2.246,8.557,0
520,35.218,-97.471,89.3,14.37,16.687,316,-0.908,2.435,9.018,0
521,35.218,-97.47,89.6,14.31,16.687,316,-0.746,2.368,9.098,1
522,35.218,-97.47,90.4,14.34,16.687,317,-0.612,2.394,9.289,0
523,35.218,-97.47,89.7,14.45,16.687,317,-0.867,2.245,9.639,1
524,35.218,-97.47,90.8,14.1,16.687,317,-0.679,2.465,9.045,0
525,35.218,-97.47,91.1,13.89,15.17,317,-0.922,2.493,9.124,0
526,35.218,-97.47,89.8,14.35,15.17,318,-0.72,2.542,9.554,0
527,35.218,-97.47,90.1,14.64,16.687,316,-0.601,2.291,9.767,0
528,35.218,-97.469,90.6,14.63,16.687,316,-0.729,2.004,9.122,0
529,35.218,-97.469,90.2,14.59,16.687,316,-0.935,2.087,9.2,0
530,35.218,-97.469,88,14.78,16.687,316,-0.597,2.077,9.204,0
531,35.218,-97.469,87.9,14.45,18.204,314,-0.946,2.305,8.908,0
532,35.218,-97.469,89.6,14.26,16.687,315,-0.772,2.682,9.127,0
533,35.218,-97.469,89.8,14.25,16.687,316,-0.949,2.791,9.371,0
534,35.218,-97.468,90.2,14.49,16.687,316,-0.858,2.275,9.145,0
535,35.218,-97.468,90.7,14.89,16.687,316,-0.783,2.391,9.984,0
536,35.218,-97.468,94,14.05,18.204,315,-1.054,2.348,9.628,0
537,35.218,-97.468,91.4,14.7,16.687,318,-1.014,2.451,9.216,0
538,35.218,-97.468,91.8,14.39,16.687,317,-0.615,2.846,8.924,0
539,35.218,-97.468,93.4,14.01,18.204,316,-0.786,2.414,9.294,0
540,35.218,-97.467,94.2,14.38,18.204,315,-0.931,2.317,9.435,1
541,35.218,-97.467,94.1,15.29,19.721,317,-0.867,2.571,9.346,0
542,35.218,-97.467,96,16.36,19.721,315,-0.775,2.165,9.22,0
543,35.218,-97.467,94.1,16.34,19.721,313,-0.936,2.127,9.065,0
544,35.218,-97.467,90.2,17.16,19.721,313,-1.157,2.105,9.438,0
545,35.218,-97.467,87.3,16.59,19.721,311,-0.753,2.353,9.415,0
546,35.218,-97.466,85.7,17.11,18.204,312,-0.746,2.199,8.902,0
547,35.218,-97.466,90.1,15.32,16.687,312,-1.08,2.385,9.343,0
548,35.218,-97.466,90.4,15.53,15.17,311,-0.82,2.425,9.232,0
549,35.218,-97.466,90.3,15.5,16.687,312,-0.774,2.485,9.221,0
550,35.218,-97.466,90.2,15.73,15.17,312,-0.993,2.534,8.983,0
551,35.218,-97.466,90.2,15.83,15.17,310,-0.939,2.353,9.667,0
552,35.218,-97.465,89.6,15.58,16.687,310,-1.009,2.158,9.085,0
553,35.218,-97.465,88.3,14.82,16.687,309,-0.712,2.333,9.77,0
554,35.218,-97.465,91.2,14.34,18.204,310,-0.776,2.246,9.246,0
555,35.218,-97.465,92.6,15.24,16.687,312,-0.893,2.493,9.745,0
556,35.218,-97.465,94.1,14.68,16.687,313,-0.966,2.257,8.858,0
557,35.218,-97.465,93.9,15.57,18.204,312,-0.766,2.45,9.482,0
558,35.218,-97.464,92.3,15.21,18.204,313,-0.651,2.234,9.182,1
559,35.218,-97.464,91,16.08,16.687,312,-0.658,2.476,9.012,0
560,35.218,-97.464,90.9,16.01,16.687,312,-0.683,2.192,9.652,0
561,35.218,-97.464,90.2,15.92,16.687,313,-0.955,2.181,9.38,0
562,35.218,-97.464,89.4,16.07,16.687,312,-0.858,1.975,9.144,0
563,35.218,-97.463,90.6,16.01,16.687,312,-0.925,2.058,9.468,0
564,35.218,-97.463,88.7,16.71,16.687,310,-0.72,2.068,9.099,0
565,35.218,-97.463,91.5,16.44,18.204,311,-0.772,2.123,9.093,0
566,35.218,-97.463,88.7,15.69,16.687,312,-0.775,2.005,9.046,0
567,35.218,-97.463,89.1,15.34,15.17,312,-0.74,2.131,9.605,0
568,35.218,-97.463,89.7,14.96,15.17,313,-0.876,2.175,9.102,0
569,35.218,-97.462,89.7,14.78,15.17,314,-0.753,2.358,9.143,0
570,35.218,-97.462,89,14.56,16.687,312,-0.603,2.521,9.445,0
571,35.218,-97.462,91.2,14,18.204,312,-0.76,2.476,9.294,1
572,35.218,-97.462,85.4,14.98,19.721,311,-0.842,2.392,9.288,0
574,35.218,-97.462,91.1,15.21,16.687,311,-0.952,2.341,9.737,0
574,35.218,-97.462,91.1,15.21,16.687,311,-0.952,2.341,9.737,0
575,35.218,-97.461,90.7,15.22,15.17,313,-0.818,1.954,8.821,0
576,35.218,-97.461,90.7,15.46,16.687,314,-0.69,2.096,9.289,0
577,35.218,-97.461,92.3,14.96,18.204,315,-0.869,1.998,9.431,0
578,35.218,-97.461,94.6,16.14,18.204,314,-1.014,2.237,10.057,0
579,35.218,-97.461,91.4,15.25,19.721,315,-0.645,2.005,8.467,0
580,35.218,-97.461,92.5,14.69,19.721,317,-0.756,2.222,9.645,0
581,35.218,-97.46,90.7,14.34,19.721,316,-0.894,2.3,10.014,0
582,35.218,-97.46,90.1,14.17,16.687,316,-0.823,2.176,9.376,0
583,35.218,-97.46,90,13.97,16.687,317,-0.963,2.273,9.679,0
584,35.218,-97.46,88.8,13.89,16.687,317,-0.911,1.702,10.316,0
585,35.218,-97.46,89.8,13.54,16.687,318,-0.842,1.111,9.742,0
586,35.218,-97.46,90.7,13.13,16.687,317,-0.774,1.047,9.825,0
587,35.218,-97.46,92.9,12.07,18.204,318,-0.797,0.617,9.933,0
588,35.218,-97.46,91.7,9.34,16.687,319,-0.608,1.643,9.604,0
589,35.218,-97.459,89.6,8.28,15.17,319,-0.659,1.299,9.854,0
590,35.218,-97.459,88.8,7.57,16.687,318,-0.746,1.375,9.726,1
591,35.218,-97.459,91.3,5.69,15.17,318,-0.768,1.363,9.57,1
592,35.218,-97.459,91.1,4.77,15.17,318,-0.718,1.151,9.548,1
593,35.218,-97.459,93.3,3.62,15.17,317,-0.794,0.997,9.783,1
594,35.218,-97.459,94.2,2.18,15.17,318,-0.735,0.891,9.862,1
595,35.218,-97.459,93.7,0.5,15.17,319,-0.718,2.203,9.299,1
596,35.218,-97.459,93.7,0.5,15.17,319,-0.738,2.288,9.335,1
597,35.218,-97.459,93.7,0.5,15.17,319,-0.727,2.306,9.265,1
598,35.218,-97.459,93.7,0.5,15.17,319,-0.767,2.312,9.208,1
599,35.218,-97.459,93.6,0.51,15.17,318,-0.746,2.279,9.35,1
600,35.218,-97.459,93.6,0.51,15.17,318,-0.741,2.322,9.439,1
601,35.218,-97.459,0,0,15.17,319,-0.765,2.308,9.345,1
602,35.218,-97.459,0,0,15.17,319,-0.734,2.311,9.227,1
603,35.218,-97.459,0,0,15.17,319,-0.76,2.322,9.309,1
604,35.218,-97.459,0,0,15.17,319,-0.747,2.337,9.387,1
605,35.218,-97.459,0,0,15.17,319,-0.752,2.321,9.316,1
606,35.218,-97.459,0,0,15.17,319,-0.734,2.333,9.432,1
607,35.218,-97.459,0,0,15.17,319,-0.741,2.308,9.263,1
608,35.218,-97.459,0,0,15.17,319,-0.742,2.309,9.284,1
609,35.218,-97.459,0,0,15.17,319,-0.754,2.318,9.373,1
610,35.218,-97.459,0,0,15.17,319,-0.752,2.336,9.379,1
611,35.218,-97.459,0,0,15.17,319,-0.754,2.322,9.278,1
612,35.218,-97.459,0,0,15.17,319,-0.744,2.309,9.35,1
613,35.218,-97.459,0,0,15.17,319,-0.752,2.34,9.369,1
614,35.218,-97.459,0,0,13.653,319,-0.755,2.336,9.319,1
615,35.218,-97.459,0,0,13.653,319,-0.75,2.337,9.424,1
616,35.218,-97.459,0,0,13.653,319,-0.762,2.336,9.43,1
617,35.218,-97.459,0,0,13.653,319,-0.743,2.309,9.219,1
618,35.218,-97.459,0,0,13.653,319,-0.753,2.321,9.267,1
619,35.218,-97.459,0,0,13.653,319,-0.747,2.299,9.371,1
620,35.218,-97.459,0,0,13.653,319,-0.77,2.916,9.151,1
621,35.218,-97.459,0,0,13.653,319,-0.84,4.758,8.515,1
622,35.218,-97.459,0,0,13.653,319,-0.809,3.884,8.857,1
623,35.218,-97.459,0,0,13.653,319,-0.303,4.391,8.825,0
625,35.218,-97.459,0,0,13.653,319,-0.714,3.879,8.899,0
625,35.218,-97.459,0,0,13.653,319,-0.714,3.879,8.899,0
626,35.218,-97.459,93.6,5.61,15.17,318,-0.793,3.851,8.742,1
627,35.218,-97.459,83,8.6,16.687,320,-1.057,3.407,9.901,0
628,35.218,-97.459,89.1,9.39,16.687,322,-0.715,3.377,9.051,0
629,35.218,-97.459,89.1,12.53,15.17,321,-0.543,2.577,8.955,0
630,35.218,-97.458,90.1,13.33,15.17,324,-0.678,2.527,8.771,0
631,35.218,-97.458,91.2,13.65,13.653,321,-1.164,2.724,9.449,0
632,35.218,-97.458,92,13.97,13.653,321,-0.643,2.659,9.546,0
633,35.218,-97.458,91.2,14.23,13.653,322,-0.833,2.293,9.402,0
634,35.218,-97.458,89.6,14.76,15.17,322,-0.818,2.317,9.633,0
635,35.218,-97.458,90.3,14.6,13.653,323,-0.782,2.314,9.085,0
636,35.218,-97.457,90.7,14.46,15.17,324,-0.705,2.329,9.501,1
637,35.218,-97.457,91,14.32,13.653,324,-0.879,2.072,8.695,0
638,35.218,-97.457,90.9,14.44,15.17,323,-1.024,2.469,9.359,0
639,35.218,-97.457,90.7,14.59,15.17,322,-0.959,2.402,9.504,0
