time,lat,lng,bearing,spd,acc,alt,accx,accy,accz,stable,
0,35.218,-97.513,72.4,0.32,3,314,0.693,0.117,9.888,1
1,35.218,-97.513,72.4,0.32,3,314,0.715,0.149,9.676,1
2,35.218,-97.513,72.4,0.32,3,314,0.735,0.138,9.908,1
3,35.218,-97.513,72.4,0.32,3,314,0.663,0.138,9.659,1
4,35.218,-97.513,72.4,0.32,3,314,0.699,0.088,9.792,1
5,35.218,-97.513,72.4,0.32,3,314,0.73,0.131,9.919,1
6,35.218,-97.513,72.4,0.32,3,314,0.686,0.131,9.685,1
7,35.218,-97.513,72.4,0.32,3,314,0.737,0.116,9.857,1
8,35.218,-97.513,72.4,0.32,3,314,0.688,0.141,9.684,1
9,35.218,-97.513,72.4,0.32,3,314,0.701,0.114,9.847,1
10,35.218,-97.513,72.4,0.32,3,314,0.643,0.115,9.701,1
11,35.218,-97.513,72.4,0.32,3,314,0.718,0.13,9.733,1
12,35.218,-97.513,72.4,0.32,3,314,0.643,0.153,9.673,1
13,35.218,-97.513,72.4,0.32,3,314,0.737,0.157,9.726,1
14,35.218,-97.513,72.4,0.32,3,314,0.702,0.135,9.672,1
15,35.218,-97.513,72.4,0.32,3,314,0.745,0.079,9.883,1
16,35.218,-97.513,72.4,0.32,3,314,0.782,0.156,9.766,1
17,35.218,-97.513,72.4,0.32,3,314,0.702,0.074,9.761,1
18,35.218,-97.513,72.4,0.32,3,314,0.695,0.125,9.753,1
19,35.218,-97.513,72.4,0.32,3,314,0.708,0.138,9.752,1
20,35.218,-97.513,72.4,0.32,3,314,0.701,0.114,9.734,1
21,35.218,-97.513,72.4,0.32,3,314,0.702,0.125,9.75,1
22,35.218,-97.513,72.4,0.32,3,314,0.696,0.14,9.753,1
23,35.218,-97.513,72.4,0.32,3,314,0.693,0.131,9.791,1
24,35.218,-97.513,72.4,0.32,3,314,0.709,0.133,9.845,1
25,35.218,-97.513,72.4,0.32,3,314,0.7,0.096,9.789,1
26,35.218,-97.513,72.4,0.32,3,314,0.705,0.142,9.78,1
27,35.218,-97.513,72.4,0.32,3,314,0.687,0.124,9.823,1
28,35.218,-97.513,72.4,0.32,3,314,0.696,0.133,9.76,1
29,35.218,-97.513,72.4,0.32,3,314,0.711,0.124,9.789,1
30,35.218,-97.513,72.4,0.32,3,314,0.706,0.128,9.739,1
31,35.218,-97.513,72.4,0.32,3,314,0.717,0.1,9.834,1
32,35.218,-97.513,72.4,0.32,3,314,0.69,0.123,9.778,1
33,35.218,-97.513,72.4,0.32,3,314,0.701,0.124,9.82,1
34,35.218,-97.513,72.4,0.32,3,314,0.73,0.137,9.752,1
35,35.218,-97.513,72.4,0.32,3,314,0.703,0.134,9.741,1
36,35.218,-97.513,72.4,0.32,3,314,0.688,0.112,9.767,1
37,35.218,-97.513,72.4,0.32,3,314,0.716,0.125,9.802,1
38,35.218,-97.513,72.4,0.32,3,314,0.715,0.139,9.75,1
39,35.218,-97.513,72.4,0.32,3,314,0.722,0.119,9.808,1
40,35.218,-97.513,72.4,0.32,3,314,0.742,0.127,9.751,1
41,35.218,-97.513,72.4,0.32,3,314,0.706,0.13,9.783,1
42,35.218,-97.513,72.4,0.32,3,314,0.705,0.146,9.752,1
43,35.218,-97.513,72.4,0.32,3,314,0.717,0.12,9.84,1
44,35.218,-97.513,72.4,0.32,3,314,0.699,0.126,9.727,1
45,35.218,-97.513,72.4,0.32,3,314,0.718,0.108,9.735,1
46,35.218,-97.513,72.4,0.32,3,314,0.751,0.185,9.807,1
47,35.218,-97.513,72.4,0.32,3,314,0.319,-0.01,9.781,1
49,35.218,-97.513,72.4,0.32,3,314,-1.781,-0.964,9.755,0
49,35.218,-97.513,72.4,0.32,3,314,-1.781,-0.964,9.755,0
49,35.218,-97.513,72.4,0.32,3,314,-1.781,-0.964,9.755,0
51,35.218,-97.513,66.4,1.54,3,316,-0.847,0.528,9.791,0
52,35.218,-97.513,65.5,3.8901,3,316,-0.844,1.326,9.918,0
53,35.218,-97.513,75.7,5.4802,3,316,-0.818,0.44,9.917,0
54,35.218,-97.513,90.2,7.0301,3,316,-0.76,-0.005,9.425,1
55,35.218,-97.513,90.4,8.4707,3,315,0.436,-0.111,9.85,0
56,35.218,-97.513,91.2,9.8905,3,315,0.822,0.422,9.652,0
57,35.218,-97.513,90.8,10.42,3,315,0.712,0.488,9.69,0
58,35.218,-97.513,91.2,10.37,3,314,1.109,0.266,10.1,0
59,35.218,-97.513,91.3,10.3,3,313,1.144,0.238,9.54,0
60,35.218,-97.512,90.3,9.95,3,313,1.464,0.579,9.873,0
61,35.218,-97.512,89.8,9.59,3,313,1.71,0.862,9.906,0
62,35.218,-97.512,89.9,8.9501,3,312,2.497,0.822,9.814,0
63,35.218,-97.512,90.1,7.91,3,312,2.952,0.905,10.05,0
65,35.218,-97.512,90.7,6.3,3,312,2.62,0.702,9.789,0
65,35.218,-97.512,90.7,6.3,3,312,2.62,0.702,9.789,0
66,35.218,-97.512,91.1,2.3,3,312,2.115,0.732,9.531,0
67,35.218,-97.512,91.1,0.82,3,313,1.522,0.508,9.843,0
68,35.218,-97.512,91.1,0.82,3,313,0.705,0.274,9.766,1
69,35.218,-97.512,91.1,0.82,3,313,0.706,0.279,9.769,1
70,35.218,-97.512,91.1,0.82,3,313,0.093,0.089,9.764,1
71,35.218,-97.512,91.1,0.82,3,313,-1.546,-0.397,9.794,0
72,35.218,-97.512,92.5,2.86,3,313,-0.891,-0.267,9.645,0
73,35.218,-97.512,91.3,4.7701,3,313,-0.033,-0.025,10.248,0
74,35.218,-97.512,91.5,6.09,3,313,-0.442,-0.176,9.82,0
75,35.218,-97.512,91.1,7.3802,3,313,-0.328,-0.219,9.971,0
76,35.218,-97.512,90.5,8.67,3,313,-0.455,0.073,10.222,0
77,35.218,-97.512,89.7,9.86,3,313,0.118,0.022,9.807,0
78,35.218,-97.511,90,10.54,3,313,0.089,0.092,9.739,0
79,35.218,-97.511,89.9,11.26,3,313,-0.003,0.153,9.484,0
80,35.218,-97.511,89.4,12.02,3,313,-0.13,0.314,9.977,0
81,35.218,-97.511,90,12.77,3,313,0.168,0.186,10.545,0
82,35.218,-97.511,90,13.35,3,312,0.8,0.409,9.603,0
83,35.218,-97.511,89.9,13.41,3,312,0.848,0.524,9.97,0
84,35.218,-97.511,90,13.29,3,312,0.922,0.383,10.179,0
85,35.218,-97.511,90.1,13.08,3,312,0.77,0.386,9.742,0
86,35.218,-97.51,90.2,12.85,3,312,0.922,0.285,9.421,0
87,35.218,-97.51,90,12.65,3,312,0.863,0.494,9.676,0
88,35.218,-97.51,89.9,12.45,3,312,0.497,0.149,10.36,0
89,35.218,-97.51,89.8,12.45,3,311,0.43,0.165,10.002,0
90,35.218,-97.51,90.1,12.74,3,311,0.466,-0.107,9.858,0
91,35.218,-97.51,89.8,13.05,3,311,0.397,0.201,9.119,0
92,35.218,-97.51,89.7,13.34,3,311,0.541,0.139,8.932,0
93,35.218,-97.509,89.6,13.67,3,311,0.854,0.227,9.768,0
94,35.218,-97.509,89.9,13.84,3,311,0.846,0.54,9.588,0
95,35.218,-97.509,89.4,13.73,3,310,1.106,0.423,9.845,0
96,35.218,-97.509,89.7,13.52,3,310,0.938,0.595,9.587,0
97,35.218,-97.509,89.8,13.29,3,310,0.879,0.323,10.053,0
98,35.218,-97.509,89.7,13.04,3,310,0.982,0.811,10.102,0
99,35.218,-97.508,89.9,12.77,3,310,0.611,0.435,9.867,0
100,35.218,-97.508,90.6,12.61,3,311,0.765,-0.059,9.963,0
101,35.218,-97.508,90.9,12.61,3,311,0.75,0.127,10.728,0
102,35.218,-97.508,90.7,12.66,3,311,0.722,0.387,9.43,0
103,35.218,-97.508,90,12.64,3,311,0.987,0.43,10.719,0
104,35.218,-97.508,90.4,12.45,3,311,1.12,0.233,9.419,0
105,35.218,-97.508,90.7,12.29,3,311,0.701,0.224,9.868,0
106,35.218,-97.508,90.1,12.1,3,310,0.766,0.196,9.802,0
107,35.218,-97.507,90,11.88,3,310,0.595,0.249,10.357,0
108,35.218,-97.507,89.6,11.84,3,311,0.275,0.203,9.249,0
109,35.218,-97.507,89.5,11.84,3,311,0.244,0.047,9.828,0
110,35.218,-97.507,89.6,12.12,3,311,0.273,0.226,9.33,0
111,35.218,-97.507,90,12.53,3,311,0.083,0.486,9.85,0
112,35.218,-97.507,90.8,12.79,3,311,0.559,0.079,10.313,0
113,35.218,-97.507,91.6,12.98,3,311,0.436,-0.396,9.87,0
114,35.218,-97.506,92,13.14,3,311,0.754,0.163,9.871,0
115,35.218,-97.506,91.1,13.22,3,311,0.914,0.398,9.637,0
116,35.218,-97.506,90.6,13.14,3,311,0.451,0.142,10.177,0
117,35.218,-97.506,90.8,13.08,3,311,0.387,-0.174,9.88,0
118,35.218,-97.506,90.8,13.251,3,311,0.376,0.106,10.496,0
119,35.218,-97.506,90.8,13.56,3,311,0.638,-0.031,9.797,0
120,35.218,-97.506,90.6,13.84,3,311,0.771,0.023,9.082,0
121,35.218,-97.505,90.4,13.931,3,311,0.7,0.314,9.818,0
122,35.218,-97.505,89.7,13.79,3,311,0.745,0.283,10.102,0
124,35.218,-97.505,89.9,13.55,3,311,0.78,0.265,9.587,0
124,35.218,-97.505,89.9,13.55,3,311,0.78,0.265,9.587,0
125,35.218,-97.505,90.3,13.27,3,311,0.731,0.083,10.273,0
126,35.218,-97.505,90.3,13.23,3,312,0.723,-0.132,9.892,0
127,35.218,-97.505,89.7,13.24,3,312,0.645,0.272,10.199,0
128,35.218,-97.504,89.6,13.28,3,312,0.525,-0.039,9.666,0
129,35.218,-97.504,89.6,13.48,3,312,0.413,0.287,8.907,0
130,35.218,-97.504,89.5,13.72,3,312,0.832,0.005,10.254,0
131,35.218,-97.504,89.5,13.85,3,312,0.562,0.295,9.426,0
132,35.218,-97.504,89.6,13.86,3,312,0.801,0.13,9.76,0
133,35.218,-97.504,89.8,13.81,3,312,0.727,0.086,9.985,0
134,35.218,-97.503,89.8,13.701,3,312,0.675,-0.02,9.883,0
135,35.218,-97.503,89.8,13.581,3,312,0.611,0.171,10.065,0
136,35.218,-97.503,90.2,13.501,3,313,0.09,0.111,9.145,0
137,35.218,-97.503,90.6,13.594,3,313,0.453,-0.34,10.671,0
138,35.218,-97.503,90.3,13.732,3,314,0.661,0.038,9.314,0
139,35.218,-97.503,89.6,13.762,3,314,0.332,-0.257,10.519,0
140,35.218,-97.503,88.9,13.897,3,315,0.182,0.057,9.221,0
141,35.218,-97.502,89,13.895,3,316,0.158,0.386,8.697,0
142,35.218,-97.502,89.2,13.998,3,317,0.259,0.243,9.753,0
143,35.218,-97.502,89.4,14.013,3,317,-0.024,-0.073,8.768,0
144,35.218,-97.502,89.6,14.083,3,317,0.344,0.099,9.543,0
145,35.218,-97.502,89.6,14.242,3,318,0.206,-0.108,9.894,0
146,35.218,-97.502,89.4,14.53,3,318,0.19,0.162,10.656,0
147,35.218,-97.501,89.3,15,3,319,0.686,0.274,9.582,0
148,35.218,-97.501,89.6,15.1,3,319,0.91,0.284,9.968,0
149,35.218,-97.501,89.6,14.93,3,319,1.144,0.559,10.181,0
150,35.218,-97.501,89.7,14.7,3,319,0.72,0.36,10.312,0
151,35.218,-97.501,89.8,14.53,3,319,0.278,0.182,9.732,0
152,35.218,-97.501,90,14.75,3,319,0.751,0.375,10.178,0
153,35.218,-97.5,90.2,14.97,3,319,0.345,0.418,9.131,0
154,35.218,-97.5,90.2,15.02,3,318,0.576,0.334,9.536,0
155,35.218,-97.5,90.7,15.09,3,318,0.855,0.078,10.121,0
156,35.218,-97.5,90.6,15.07,3,318,0.86,0.329,10.153,0
157,35.218,-97.5,90.6,15.02,3,318,1.035,0.436,9.586,0
158,35.218,-97.5,90.7,14.92,3,318,0.144,0.24,9.123,0
159,35.218,-97.5,91,14.87,3,318,-0.346,-0.16,9.538,0
160,35.218,-97.499,90.8,15.44,3,318,-0.135,-0.26,10.704,0
161,35.218,-97.499,90.3,16.32,3,318,0.235,-0.217,10.123,0
162,35.218,-97.499,90.1,17.01,3,319,0.42,0.032,11.172,0
163,35.218,-97.499,90.2,17.36,3,319,0.725,0.371,9.832,0
164,35.218,-97.499,90.2,17.55,3,319,0.995,0.296,10.373,0
165,35.218,-97.498,90.4,17.4,3,319,1.069,0.431,10.193,0
166,35.218,-97.498,90.2,17.21,3,319,1.034,0.504,10.118,0
167,35.218,-97.498,90.1,16.89,3,319,0.933,0.359,10.114,0
168,35.218,-97.498,90,16.64,3,319,0.66,0.314,9.862,0
169,35.218,-97.498,90.4,16.48,3,319,0.758,0.635,10.306,0
170,35.218,-97.497,90.1,16.51,3,319,0.759,0.326,9.749,0
171,35.218,-97.497,90.4,16.42,3,319,1.014,0.022,10.081,0
172,35.218,-97.497,90.4,16.23,3,319,0.868,0.546,8.873,0
173,35.218,-97.497,90.3,15.96,3,319,0.934,0.25,9.711,0
174,35.218,-97.497,90.5,15.62,3,320,0.953,0.411,10.041,0
175,35.218,-97.497,90.5,15.301,3,320,1.736,0.381,9.25,0
176,35.218,-97.496,90.3,14.971,3,321,1.738,0.699,9.694,0
177,35.218,-97.496,90.1,14.05,3,321,1.356,0.675,10.108,0
178,35.218,-97.496,90.4,13.05,3,321,3.004,0.89,9.784,0
179,35.218,-97.496,91.1,12.12,3,321,2.111,0.479,9.866,0
181,35.218,-97.496,91.5,9.97,3,321,1.636,0.384,9.779,0
181,35.218,-97.496,91.5,9.97,3,321,1.636,0.384,9.779,0
182,35.218,-97.496,91.8,7.33,3,320,1.714,0.45,9.307,0
183,35.218,-97.496,91.3,6.37,3,320,1.701,0.314,9.545,0
184,35.218,-97.496,91.1,5.38,3,320,2.497,0.455,9.723,0
185,35.218,-97.496,90.7,3.89,3,320,2.02,0.401,9.782,0
186,35.218,-97.496,90.3,2.41,3,320,2.204,0.579,9.798,0
187,35.218,-97.496,90.3,2.41,3,320,0.949,0.126,10.046,0
188,35.218,-97.496,90.3,2.41,3,320,0.624,0.056,9.772,1
189,35.218,-97.496,90.3,2.41,3,320,0.633,0.069,9.756,1
190,35.218,-97.496,90.3,2.41,3,320,0.648,0.072,9.844,1
191,35.218,-97.496,90.3,2.41,3,320,0.635,0.04,9.805,1
192,35.218,-97.496,90.3,2.41,3,320,0.63,0.072,9.69,1
193,35.218,-97.496,90.3,2.41,3,320,0.63,0.076,9.865,1
194,35.218,-97.496,90.3,2.41,3,320,0.295,-0.04,9.779,0
195,35.218,-97.496,90.3,2.41,3,320,-0.813,-0.421,9.819,1
196,35.218,-97.496,90.3,1.02,3,321,1.746,0.424,9.803,0
197,35.218,-97.496,90.3,1.02,3,321,0.256,-0.049,9.725,1
198,35.218,-97.496,90.3,1.02,3,321,-0.969,-0.442,9.843,1
199,35.218,-97.496,89.3,1.51,3,321,-0.614,-0.334,9.901,0
200,35.218,-97.495,89.5,3.07,3,321,-0.561,-0.348,9.514,0
201,35.218,-97.495,89.4,4.51,3,321,-0.436,-0.338,9.535,0
202,35.218,-97.495,89.4,5.68,3,321,-0.499,-0.237,9.729,0
203,35.218,-97.495,89.7,6.85,3,321,-0.434,-0.391,9.686,0
204,35.218,-97.495,89.9,7.98,3,321,-0.274,-0.336,10.235,0
205,35.218,-97.495,90.2,9.11,3,321,0.135,-0.114,9.421,0
206,35.218,-97.495,90.1,9.84,3,321,0.006,-0.063,9.907,0
207,35.218,-97.495,90.4,10.53,3,321,0.056,-0.105,9.597,0
208,35.218,-97.495,90.5,11.21,3,321,0.454,-0.063,9.655,0
209,35.218,-97.495,90,11.35,3,321,-0.001,-0.329,10.232,0
210,35.218,-97.494,89.8,11.72,3,321,-0.039,0.06,9.552,0
211,35.218,-97.494,89.4,12.281,3,321,-0.06,0.049,10.387,0
212,35.218,-97.494,89.1,12.95,3,321,-0.31,-0.021,9.18,0
213,35.218,-97.494,89.7,13.86,3,321,-0.261,0.055,9.286,0
214,35.218,-97.494,89.8,14.87,3,321,-0.234,-0.17,10.584,0
215,35.218,-97.494,90.1,15.77,3,321,-0.125,-0.394,9.958,0
216,35.218,-97.494,90.2,16.65,3,321,0.497,0.317,9.727,0
217,35.218,-97.493,90.4,17.34,3,321,0.611,0.451,9.703,0
218,35.218,-97.493,91.2,17.42,3,321,0.816,-0.169,9.494,0
219,35.218,-97.493,91.2,17.27,3,321,0.731,0.163,9.71,0
220,35.218,-97.493,90.6,17.07,3,322,0.65,0.243,9.379,0
221,35.218,-97.493,90.6,16.97,3,322,0.736,0.059,9.729,0
222,35.218,-97.492,90.4,16.93,3,322,0.513,0.35,9.595,0
223,35.218,-97.492,90.2,16.9,3,322,0.669,0.439,10.004,0
224,35.218,-97.492,90.5,16.88,3,322,0.894,0.418,9.94,0
225,35.218,-97.492,90.8,16.68,3,322,1.26,0.259,10.582,0
226,35.218,-97.492,90.8,16.36,3,322,1.526,0.47,10.3,0
227,35.218,-97.491,90.5,15.8,3,323,1.338,0.401,10.131,0
228,35.218,-97.491,90.6,15.08,3,323,1.303,0.37,9.803,1
229,35.218,-97.491,90.5,14.35,3,323,1.752,0.661,9.92,0
230,35.218,-97.491,90.3,13.47,3,324,1.834,0.515,9.941,0
231,35.218,-97.491,90.2,12.46,3,323,1.943,0.435,9.805,0
232,35.218,-97.491,89.9,11.3,3,324,2.08,0.748,9.761,0
233,35.218,-97.491,89.6,10.08,3,324,1.911,0.718,9.749,0
234,35.218,-97.491,89.7,8.6701,3,324,2.347,0.835,9.947,0
235,35.218,-97.49,90.4,7.26,3,324,2.404,0.831,9.744,0
236,35.218,-97.49,90.4,5.57,3,324,1.682,0.614,9.795,0
237,35.218,-97.49,90.5,3.83,3,324,1.663,0.673,9.751,0
238,35.218,-97.49,90.2,2.61,3,324,1.335,0.571,9.925,0
239,35.218,-97.49,90.2,1.64,3,324,1.085,0.491,9.881,1
240,35.218,-97.49,90.2,1.64,3,324,1.288,0.553,9.89,1
241,35.218,-97.49,90.2,0.36,3,324,0.563,0.352,9.766,1
242,35.218,-97.49,90.2,0.36,3,324,0.61,0.341,9.893,1
244,35.218,-97.49,90.2,0.36,3,324,0.576,0.359,9.8,1
244,35.218,-97.49,90.2,0.36,3,324,0.576,0.359,9.8,1
245,35.218,-97.49,0,0,3,325,0.565,0.36,9.717,1
246,35.218,-97.49,0,0,3,325,0.596,0.373,9.842,1
247,35.218,-97.49,0,0,3,325,0.613,0.347,9.876,1
248,35.218,-97.49,0,0,3,325,0.586,0.352,9.836,1
249,35.218,-97.49,0,0,3,325,0.606,0.361,9.837,1
250,35.218,-97.49,0,0,3,325,0.546,0.349,9.782,1
251,35.218,-97.49,0,0,3,325,0.57,0.376,9.712,1
252,35.218,-97.49,0,0,3,325,0.58,0.359,9.743,1
253,35.218,-97.49,0,0,3,325,0.573,0.341,9.873,1
254,35.218,-97.49,0,0,3,325,0.58,0.347,9.911,1
255,35.218,-97.49,0,0,3,325,0.559,0.359,9.718,1
256,35.218,-97.49,0,0,3,325,0.616,0.341,9.897,1
257,35.218,-97.49,0,0,3,325,0.564,0.368,9.833,1
258,35.218,-97.49,0,0,3,325,0.592,0.342,9.907,1
259,35.218,-97.49,0,0,3,325,0.611,0.35,9.938,0
260,35.218,-97.49,0,0,3,325,0.533,0.335,9.718,1
261,35.218,-97.49,0,0,3,325,0.618,0.35,9.839,1
262,35.218,-97.49,0,0,3,325,0.582,0.368,9.739,1
263,35.218,-97.49,0,0,3,325,0.593,0.36,9.797,1
264,35.218,-97.49,0,0,3,325,0.594,0.336,9.951,1
265,35.218,-97.49,0,0,3,325,0.585,0.337,9.874,1
266,35.218,-97.49,0,0,3,325,0.557,0.35,9.804,1
267,35.218,-97.49,0,0,3,325,0.572,0.362,9.736,1
268,35.218,-97.49,0,0,3,325,0.603,0.352,9.949,1
269,35.218,-97.49,0,0,3,325,0.573,0.368,9.725,1
270,35.218,-97.49,0,0,3,325,0.598,0.338,9.933,1
271,35.218,-97.49,0,0,3,325,0.565,0.348,9.814,1
272,35.218,-97.49,0,0,3,325,0.595,0.353,9.785,1
273,35.218,-97.49,0,0,3,325,0.584,0.354,9.865,1
274,35.218,-97.49,0,0,3,325,0.539,0.344,9.693,1
275,35.218,-97.49,0,0,3,325,0.599,0.359,9.852,1
276,35.218,-97.49,0,0,3,325,0.564,0.345,9.858,1
277,35.218,-97.49,0,0,3,325,0.586,0.348,9.856,1
278,35.218,-97.49,0,0,3,325,0.601,0.359,9.911,1
279,35.218,-97.49,0,0,3,325,0.553,0.356,9.75,1
280,35.218,-97.49,0,0,3,325,0.568,0.375,9.726,1
281,35.218,-97.49,0,0,3,325,0.579,0.324,9.946,1
282,35.218,-97.49,0,0,3,325,0.602,0.351,9.891,1
283,35.218,-97.49,0,0,3,325,0.58,0.37,9.722,1
284,35.218,-97.49,0,0,3,325,0.578,0.34,9.919,1
285,35.218,-97.49,0,0,3,325,0.567,0.366,9.71,1
286,35.218,-97.49,0,0,3,325,0.595,0.355,9.916,1
287,35.218,-97.49,0,0,3,325,0.553,0.361,9.709,1
288,35.218,-97.49,0,0,3,325,0.609,0.357,9.821,1
289,35.218,-97.49,0,0,3,325,0.581,0.344,9.843,1
290,35.218,-97.49,0,0,3,325,0.606,0.368,9.757,1
291,35.218,-97.49,0,0,3,325,0.599,0.352,9.856,1
292,35.218,-97.49,0,0,3,325,0.574,0.355,9.71,1
293,35.218,-97.49,0,0,3,325,0.6,0.349,9.833,1
294,35.218,-97.49,0,0,3,325,0.553,0.354,9.749,1
295,35.218,-97.49,0,0,3,325,0.584,0.349,9.718,1
296,35.218,-97.49,0,0,3,325,0.599,0.344,9.938,1
297,35.218,-97.49,0,0,3,325,0.579,0.344,9.787,1
298,35.218,-97.49,0,0,3,325,0.597,0.348,9.902,1
299,35.218,-97.49,0,0,3,325,0.57,0.361,9.726,1
300,35.218,-97.49,0,0,3,325,0.583,0.33,9.867,1
301,35.218,-97.49,0,0,3,325,0.591,0.353,9.798,1
302,35.218,-97.49,0,0,3,325,0.568,0.318,9.951,1
303,35.218,-97.49,0,0,3,325,0.58,0.361,9.71,1
304,35.218,-97.49,0,0,3,325,0.604,0.342,9.935,1
305,35.218,-97.49,0,0,3,325,0.607,0.356,9.941,1
306,35.218,-97.49,0,0,3,325,0.585,0.332,9.878,1
307,35.218,-97.49,0,0,3,325,0.272,0.264,9.756,0
309,35.218,-97.49,0,0,3,325,-1.914,-0.333,9.88,0
309,35.218,-97.49,0,0,3,325,-1.914,-0.333,9.88,0
310,35.218,-97.49,89.7,2.5901,3,325,-0.973,-0.117,9.906,0
311,35.218,-97.49,89.7,4.58,3,326,-1.113,-0.104,9.592,0
312,35.218,-97.49,89.5,6.16,3,326,-1.041,-0.004,9.747,0
313,35.218,-97.49,89.5,7.7201,3,326,-0.721,0.031,9.679,0
314,35.218,-97.49,89.6,9.22,3,326,-0.936,-0.042,9.156,0
315,35.218,-97.49,89.9,10.72,3,326,-0.43,-0.023,9.849,1
316,35.218,-97.49,90,11.81,3,326,-0.383,-0.149,9.551,0
317,35.218,-97.49,89.9,12.93,3,326,-0.304,-0.132,9.908,0
318,35.218,-97.489,89.8,14.02,3,326,-0.343,-0.205,9.687,0
319,35.218,-97.489,89.8,15.12,3,326,-0.424,-0.056,10.018,0
320,35.218,-97.489,89.8,16.22,3,326,0.709,0.216,9.907,0
321,35.218,-97.489,89.9,16.74,3,327,0.532,0.248,9.969,0
322,35.218,-97.489,90.2,16.711,3,327,0.291,0.012,10.295,0
323,35.218,-97.489,90.1,16.871,3,327,0.06,0.081,9.769,0
324,35.218,-97.488,90,17.142,3,328,0.221,0.078,9.937,0
325,35.218,-97.488,89.9,17.393,3,328,0.841,0.109,9.878,0
326,35.218,-97.488,89.9,17.202,3,329,0.868,0.209,9.436,0
327,35.218,-97.488,89.6,16.853,3,329,0.856,0.371,10.146,0
328,35.218,-97.488,89.6,16.473,3,329,0.942,0.302,10.165,0
329,35.218,-97.487,89.6,16.013,3,330,0.95,0.302,10.212,0
330,35.218,-97.487,89.7,15.552,3,331,1.235,0.261,9.459,0
331,35.218,-97.487,89.5,15.002,3,331,1.621,0.547,9.775,0
332,35.218,-97.487,89.6,14.062,3,332,2.158,0.555,10.023,0
333,35.218,-97.487,89.7,12.762,3,332,2.293,0.758,10.012,0
334,35.218,-97.487,89.9,11.081,3,332,2.43,0.713,9.956,0
335,35.218,-97.487,90.3,9.2111,3,332,1.965,0.521,9.857,0
336,35.218,-97.486,90.3,7.451,3,332,1.5,0.434,9.711,0
337,35.218,-97.486,90.2,6.0505,3,332,1.441,0.315,9.787,0
338,35.218,-97.486,89.7,4.9705,3,332,1.481,0.524,9.911,0
339,35.218,-97.486,90.1,4.0904,3,333,1.31,0.401,9.93,0
340,35.218,-97.486,89.8,3.2003,3,333,1.295,0.386,9.946,0
341,35.218,-97.486,90,2.5103,3,333,1.019,0.39,9.844,0
342,35.218,-97.486,90,1.9602,3,333,0.773,0.223,9.752,0
343,35.218,-97.486,90.1,1.61,3,333,1.063,0.335,9.867,0
344,35.218,-97.486,90.8,1.29,3,333,1.084,0.308,9.863,1
345,35.218,-97.486,90.8,1.29,3,333,0.927,0.311,9.772,1
346,35.218,-97.486,90.8,1.29,3,333,0.498,0.166,9.924,1
347,35.218,-97.486,90.8,1.29,3,333,0.487,0.185,9.725,1
348,35.218,-97.486,90.8,1.29,3,333,0.535,0.177,9.893,1
349,35.218,-97.486,90.8,1.29,3,333,0.558,0.192,9.784,1
350,35.218,-97.486,0,0,3,334,0.53,0.169,9.88,1
351,35.218,-97.486,0,0,3,334,0.505,0.173,9.877,1
352,35.218,-97.486,0,0,3,334,0.489,0.196,9.774,1
353,35.218,-97.486,0,0,3,334,0.395,0.139,9.75,1
354,35.218,-97.486,0,0,3,334,-0.53,-0.186,9.854,1
355,35.218,-97.486,0,0,3,334,-1.63,-0.424,9.842,0
356,35.218,-97.486,0,0,3,334,-1.197,-0.346,9.831,0
357,35.218,-97.486,90.7,3.181,3,335,-1.063,-0.396,9.988,0
358,35.218,-97.486,90.1,5.1305,3,334,-1.027,-0.46,9.691,0
359,35.218,-97.486,90.3,6.8704,3,335,-0.811,-0.239,9.864,0
360,35.218,-97.486,90.2,8.5602,3,335,-0.716,-0.225,9.489,1
362,35.218,-97.486,89.6,10.11,3,335,-0.327,0.069,9.499,0
362,35.218,-97.486,89.6,10.11,3,335,-0.327,0.069,9.499,0
363,35.218,-97.486,89.7,12.56,3,335,-0.352,-0.108,9.925,0
364,35.218,-97.485,89.8,13.68,3,335,-0.167,-0.225,9.663,0
365,35.218,-97.485,89.4,14.78,3,336,0.283,0.269,9.383,0
366,35.218,-97.485,89.6,15.511,3,335,0.66,0.307,9.985,0
367,35.218,-97.485,89.9,15.63,3,335,1.004,0.164,10.226,0
368,35.218,-97.485,89.7,15.661,3,334,1.001,0.255,9.66,0
369,35.218,-97.485,89.2,15.682,3,334,0.979,0.359,9.759,0
370,35.218,-97.484,89.4,15.732,3,333,1.045,0.512,9.754,0
371,35.218,-97.484,89.9,15.803,3,333,0.993,0.133,9.946,0
372,35.218,-97.484,89.7,15.873,3,332,0.986,0.32,9.669,0
373,35.218,-97.484,89.4,15.953,3,331,0.948,0.182,9.668,0
374,35.218,-97.484,89.2,15.973,3,331,1.824,0.762,9.405,0
375,35.218,-97.483,89.3,15.452,3,330,1.279,0.431,9.563,0
376,35.218,-97.483,89.3,14.852,3,330,0.994,0.249,9.939,0
377,35.218,-97.483,88.9,14.922,3,329,0.344,0.212,9.791,0
378,35.218,-97.483,88.7,15.462,3,329,0.319,0.205,10.037,0
379,35.218,-97.483,88.9,16.092,3,328,0.914,0.38,10.11,0
380,35.218,-97.483,89.2,16.321,3,328,0.856,0.349,9.999,0
381,35.218,-97.482,89.4,16.381,3,328,0.874,0.293,9.515,0
382,35.218,-97.482,89.4,16.31,3,328,0.904,0.328,10.295,0
383,35.218,-97.482,89.8,16.22,3,327,0.903,0.268,9.826,0
384,35.218,-97.482,90,16.11,3,327,0.562,0.11,10.007,0
385,35.218,-97.482,90,16.11,3,327,0.394,0.376,9.781,0
386,35.218,-97.482,90.3,16.35,3,327,0.253,0.399,8.474,0
387,35.218,-97.481,91,16.72,3,327,0.291,-0.115,9.097,0
388,35.218,-97.481,90.9,17.23,3,327,0.784,0.062,9.287,0
389,35.218,-97.481,90,17.56,3,327,0.927,0.441,10.106,0
390,35.218,-97.481,89.7,17.49,3,327,0.839,0.475,9.64,0
391,35.218,-97.481,89.7,17.34,3,327,0.959,0.528,9.763,0
392,35.218,-97.48,89.9,17.13,3,327,0.911,0.534,8.525,0
393,35.218,-97.48,90,16.95,3,327,0.924,0.479,10.593,0
394,35.218,-97.48,90.2,16.73,3,327,0.604,0.495,8.906,0
395,35.218,-97.48,90.5,16.56,3,327,0.932,0.311,9.861,0
396,35.218,-97.48,90.2,16.47,3,327,1.086,0.058,8.49,0
397,35.218,-97.48,89.8,16.24,3,327,1.035,0.556,9.902,0
398,35.218,-97.479,89.5,15.77,3,327,1.356,0.605,9.022,0
399,35.218,-97.479,89.6,15.25,3,326,1.351,0.372,10.336,0
400,35.218,-97.479,89.5,14.59,3,326,1.284,0.601,9.565,0
401,35.218,-97.479,89.6,14.08,3,327,1.973,0.588,10.011,0
402,35.218,-97.479,89.9,13.33,3,326,1.029,0.278,9.212,0
403,35.218,-97.479,89.7,12.52,3,327,0.541,0.191,9.854,0
404,35.218,-97.478,89.7,12.26,3,326,0.272,0.315,9.298,0
405,35.218,-97.478,89.7,12.44,3,327,0.76,0.205,9.278,0
406,35.218,-97.478,90.1,12.79,3,327,0.935,0.319,9.87,0
407,35.218,-97.478,89.9,12.79,3,327,1.382,0.422,9.69,0
408,35.218,-97.478,89.6,12.6,3,327,2.262,0.883,10.022,0
409,35.218,-97.478,89.6,11.99,3,327,3.103,1.101,9.737,0
410,35.218,-97.478,90,10.58,3,327,2.108,0.73,9.652,0
411,35.218,-97.478,90.3,8.4201,3,327,1.662,0.681,9.933,0
412,35.218,-97.477,90.2,6.7601,3,327,2.05,0.642,9.899,0
413,35.218,-97.477,89.9,5.73,3,327,1.875,0.613,9.824,0
414,35.218,-97.477,89.8,4.54,3,326,1.45,0.627,9.897,0
415,35.218,-97.477,90.1,3.3001,3,327,0.931,0.288,9.827,0
416,35.218,-97.477,90.4,2.6901,3,326,1.775,0.638,9.735,0
417,35.218,-97.477,90.4,2.3501,3,327,1.827,0.583,9.793,0
418,35.218,-97.477,90.4,1.57,3,327,1.477,0.493,9.75,0
419,35.218,-97.477,90.4,1.57,3,327,0.719,0.235,9.755,1
420,35.218,-97.477,90.4,1.57,3,327,0.776,0.264,9.775,1
421,35.218,-97.477,90.4,1.57,3,327,0.752,0.253,9.807,1
422,35.218,-97.477,90.4,1.57,3,327,0.768,0.262,9.727,1
423,35.218,-97.477,90.4,1.57,3,327,0.751,0.268,9.937,1
425,35.218,-97.477,90.4,1.57,3,327,0.757,0.239,9.738,1
425,35.218,-97.477,90.4,1.57,3,327,0.757,0.239,9.738,1
426,35.218,-97.477,0,0,3,327,0.734,0.251,9.908,1
427,35.218,-97.477,0,0,3,327,0.745,0.257,9.78,1
428,35.218,-97.477,0,0,3,327,0.765,0.255,9.915,1
429,35.218,-97.477,0,0,3,327,0.717,0.271,9.694,1
430,35.218,-97.477,0,0,3,327,0.737,0.277,9.692,1
431,35.218,-97.477,0,0,3,327,0.722,0.253,9.806,1
432,35.218,-97.477,0,0,3,327,0.751,0.261,9.763,1
433,35.218,-97.477,0,0,3,327,0.766,0.267,9.835,1
434,35.218,-97.477,0,0,3,327,0.774,0.271,9.923,1
435,35.218,-97.477,0,0,3,327,0.725,0.263,9.681,1
436,35.218,-97.477,0,0,3,327,0.768,0.27,9.832,1
437,35.218,-97.477,0,0,3,327,0.755,0.284,9.705,1
438,35.218,-97.477,0,0,3,327,-0.172,-0.066,9.818,1
439,35.218,-97.477,0,0,3,327,-1.762,-0.518,9.81,0
440,35.218,-97.477,90.2,2.9401,3,327,-0.081,0.015,9.573,0
441,35.218,-97.477,90.3,4.73,3,327,-0.138,-0.104,9.605,0
442,35.218,-97.477,90.1,5.2702,3,327,-0.296,-0.021,9.882,0
443,35.218,-97.477,90,6.33,3,327,-0.188,0.084,9.983,0
444,35.218,-97.477,89.9,7.4,3,327,-0.104,0.286,10.177,0
445,35.218,-97.477,90.4,8.3902,3,326,0.063,0.374,9.785,0
446,35.218,-97.477,90.7,9.1601,3,326,-0.018,0.107,9.897,0
447,35.218,-97.477,90.6,9.9602,3,326,0.067,-0.001,10.057,0
448,35.218,-97.477,89.9,10.74,3,325,0.176,0.034,10.417,0
449,35.218,-97.476,89.5,11.58,3,325,-0.178,-0.075,10.166,0
450,35.218,-97.476,89.3,12.55,3,325,0.616,0.278,9.878,0
451,35.218,-97.476,89,13.221,3,325,0.225,0.274,10.033,0
452,35.218,-97.476,89.7,13.611,3,325,0.816,0.404,9.872,0
453,35.218,-97.476,89.8,14.061,3,324,0.962,0.275,10.06,0
454,35.218,-97.476,89.8,14.14,3,324,0.998,0.334,10.29,0
455,35.218,-97.475,89.9,14.121,3,323,0.74,0.013,9.752,0
456,35.218,-97.475,89.9,14.601,3,323,1.23,0.613,9.881,0
457,35.218,-97.475,89.6,14.761,3,322,1.39,0.708,10.057,0
458,35.218,-97.475,89.8,14.371,3,322,1.024,0.568,9.696,0
459,35.218,-97.475,89.7,14.161,3,321,0.33,0.308,9.98,0
460,35.218,-97.475,90.2,14.391,3,321,2.449,0.466,10.032,0
461,35.218,-97.475,90,14.901,3,321,1.892,0.732,9.803,0
462,35.218,-97.474,89.4,13.611,3,320,0.87,0.389,9.929,0
463,35.218,-97.474,89.7,12.71,3,320,0.874,0.171,9.849,0
464,35.218,-97.474,89.7,12.6,3,320,1.873,0.484,10.027,0
465,35.218,-97.474,89.6,12.36,3,320,1.509,0.434,9.714,0
466,35.218,-97.474,89.7,11.37,3,321,2.219,0.553,9.906,0
467,35.218,-97.474,89.7,10.46,3,321,1.028,0.63,9.787,0
468,35.218,-97.474,89.5,9.17,3,321,3.436,1.143,10.136,0
469,35.218,-97.474,89.7,8.57,3,321,1.729,0.7,9.84,0
470,35.218,-97.473,89.9,6.87,3,321,1.118,0.571,9.686,0
471,35.218,-97.473,90.1,5.09,3,321,1.913,0.519,9.607,0
472,35.218,-97.473,90.6,4.48,3,321,1.519,0.56,9.759,0
473,35.218,-97.473,90.1,3.4,3,321,1.924,0.554,9.852,0
474,35.218,-97.473,90.5,2.51,3,321,2.114,0.746,9.836,0
475,35.218,-97.473,90.5,1.6,3,321,0.493,0.161,9.86,0
476,35.218,-97.473,90.5,1.6,3,321,0.611,0.248,9.708,1
477,35.218,-97.473,90.5,1.6,3,321,0.665,0.223,9.867,1
479,35.218,-97.473,90.5,1.6,3,321,0.653,0.245,9.831,1
479,35.218,-97.473,90.5,1.6,3,321,0.653,0.245,9.831,1
480,35.218,-97.473,0,0,3,321,0.635,0.256,9.729,1
481,35.218,-97.473,0,0,3,321,0.623,0.261,9.675,1
482,35.218,-97.473,0,0,3,321,0.633,0.246,9.715,1
483,35.218,-97.473,0,0,3,321,0.658,0.256,9.751,1
484,35.218,-97.473,0,0,3,321,0.669,0.241,9.808,1
485,35.218,-97.473,0,0,3,321,0.694,0.238,9.924,1
486,35.218,-97.473,0,0,3,321,0.631,0.247,9.683,1
487,35.218,-97.473,0,0,3,321,0.613,0.234,9.763,1
488,35.218,-97.473,0,0,3,321,0.665,0.221,9.925,1
489,35.218,-97.473,0,0,3,321,0.658,0.233,9.857,0
490,35.218,-97.473,0,0,3,321,0.692,0.251,9.934,1
491,35.218,-97.473,0,0,3,321,0.641,0.244,9.666,1
492,35.218,-97.473,0,0,3,321,0.68,0.23,9.898,1
493,35.218,-97.473,0,0,3,321,0.639,0.24,9.67,1
494,35.218,-97.473,0,0,3,321,0.657,0.237,9.892,1
495,35.218,-97.473,0,0,3,321,0.65,0.219,9.839,1
496,35.218,-97.473,0,0,3,321,0.682,0.247,9.85,1
497,35.218,-97.473,0,0,3,321,0.302,0.151,9.793,1
498,35.218,-97.473,0,0,3,321,0.286,0.097,9.851,1
499,35.218,-97.473,0,0,3,321,0.299,0.088,9.75,0
500,35.218,-97.473,89.5,1,3,322,-1.378,-0.371,9.711,0
501,35.218,-97.473,89.1,2.0301,3,322,0.269,0.133,9.726,1
502,35.218,-97.473,89.7,3.26,3,322,-0.763,-0.197,9.911,0
503,35.218,-97.473,89.5,4.5,3,322,-0.781,-0.085,9.658,0
504,35.218,-97.473,89.4,5.94,3,322,-0.706,0.035,10.017,0
505,35.218,-97.473,90,7.45,3,322,-0.915,-0.126,9.488,0
506,35.218,-97.473,90,8.98,3,322,-0.912,-0.233,9.81,0
507,35.218,-97.473,90.3,10.59,3,322,-0.399,-0.247,10.747,0
508,35.218,-97.473,89.6,11.84,3,322,-0.364,-0.266,9.862,0
509,35.218,-97.473,89,12.99,3,323,-0.253,-0.195,9.24,0
510,35.218,-97.472,88.4,14,3,323,-0.124,0.164,9.93,0
511,35.218,-97.472,88.2,14.76,3,323,0.387,0.076,10.301,0
512,35.218,-97.472,88.4,15.16,3,323,0.507,0.414,9.552,0
513,35.218,-97.472,88.5,15.371,3,324,0.596,0.376,9.345,0
514,35.218,-97.472,88.9,15.421,3,324,0.627,0.108,10.254,0
515,35.218,-97.472,89.1,15.251,3,325,0.864,0.308,9.953,0
516,35.218,-97.471,89.2,15,3,325,1.094,0.612,9.489,0
517,35.218,-97.471,89.3,14.711,3,325,1.162,0.089,10.337,0
518,35.218,-97.471,89.9,14.41,3,325,0.582,-0.238,8.954,0
519,35.218,-97.471,89.8,14.23,3,324,0.243,0.521,8.714,0
520,35.218,-97.471,89.6,14.18,3,324,0.677,-0.031,9.553,0
521,35.218,-97.471,89.5,14.27,3,324,0.626,0.457,10.762,0
522,35.218,-97.47,89.5,14.24,3,325,0.795,-0.017,10.01,0
523,35.218,-97.47,90,14.27,3,325,0.675,0.047,10.309,0
524,35.218,-97.47,89.8,14.2,3,325,0.407,0.185,10.243,0
525,35.218,-97.47,90,14.25,3,325,0.316,0.296,9.732,0
526,35.218,-97.47,89.7,14.45,3,325,0.766,0.304,10.105,0
527,35.218,-97.47,89.7,14.71,3,325,0.928,-0.067,10.187,0
528,35.218,-97.469,90,14.68,3,325,0.864,0.257,9.902,0
529,35.218,-97.469,90.1,14.56,3,325,0.799,0.449,9.354,0
530,35.218,-97.469,90.2,14.36,3,326,0.751,0.091,9.357,0
531,35.218,-97.469,90.4,14.15,3,325,0.593,0.28,10.164,0
532,35.218,-97.469,90.3,14.17,3,325,0.311,-0.03,9.507,0
533,35.218,-97.469,90.4,14.41,3,326,0.767,-0.199,10.097,0
535,35.218,-97.469,90.2,14.79,3,325,0.939,0.176,9.929,0
535,35.218,-97.469,90.2,14.79,3,325,0.939,0.176,9.929,0
536,35.218,-97.468,90,14.87,3,326,0.811,0.454,9.835,0
537,35.218,-97.468,90.4,14.77,3,326,0.612,-0.019,9.908,0
538,35.218,-97.468,89.9,14.84,3,326,0.449,0.465,11.596,0
539,35.218,-97.468,90,15.19,3,326,0.347,0.177,9.526,0
540,35.218,-97.468,90.2,15.53,3,326,0.872,0.305,9.249,0
541,35.218,-97.467,90.2,15.54,3,326,0.495,0.217,10.137,0
542,35.218,-97.467,90.1,15.69,3,326,0.715,0.198,9.678,0
543,35.218,-97.467,90.2,15.78,3,326,0.995,0.347,9.989,0
544,35.218,-97.467,90.5,15.67,3,326,0.736,0.519,8.664,0
545,35.218,-97.467,90.3,15.53,3,326,0.78,0.17,9.751,0
546,35.218,-97.466,90.1,15.41,3,326,0.828,0.162,10.363,0
547,35.218,-97.466,90.3,15.4,3,326,0.686,0.187,9.19,0
548,35.218,-97.466,90.3,15.44,3,326,0.465,0.486,9.53,0
549,35.218,-97.466,90,15.53,3,326,0.485,0.486,9.896,0
550,35.218,-97.466,90.2,15.7,3,326,0.414,0.227,9.394,0
551,35.218,-97.466,90.3,15.97,3,326,0.774,0.393,10.226,0
552,35.218,-97.465,90.1,16.13,3,326,0.837,0.379,9.751,0
553,35.218,-97.465,90.3,16.02,3,327,0.732,0.435,9.772,0
554,35.218,-97.465,89.9,15.91,3,327,0.642,0.456,9.933,0
555,35.218,-97.465,90.3,15.85,3,327,0.75,-0.033,9.699,0
556,35.218,-97.465,89.9,15.91,3,327,0.509,0.312,10.96,0
557,35.218,-97.465,89.6,15.98,3,327,0.507,0.295,9.475,0
558,35.218,-97.464,89.7,16.05,3,327,0.664,0.27,10.211,0
559,35.218,-97.464,90.1,16.1,3,327,0.505,0.268,9.174,0
560,35.218,-97.464,90.6,16.16,3,327,0.957,0.267,10.074,0
561,35.218,-97.464,90.7,16.19,3,328,1.078,0.082,10.304,0
562,35.218,-97.464,91,16.11,3,328,1.196,0.233,10.558,0
563,35.218,-97.464,90.2,15.94,3,328,0.842,0.559,10.335,0
564,35.218,-97.463,89.8,15.75,3,328,0.813,0.252,10.628,0
565,35.218,-97.463,90.4,15.421,3,329,0.77,0.225,9.672,0
566,35.218,-97.463,90.2,15.36,3,329,0.856,0.14,9.953,0
567,35.218,-97.463,90.1,15.15,3,328,0.894,0.2,9.619,0
568,35.218,-97.463,89.9,14.95,3,328,0.908,0.058,9.859,0
569,35.218,-97.463,89.6,14.8,3,328,0.603,0.128,9.06,0
570,35.218,-97.462,89.5,14.76,3,328,0.416,0.311,9.522,0
571,35.218,-97.462,89.9,14.86,3,328,0.49,0.287,9.612,0
572,35.218,-97.462,90.6,15.03,3,328,0.387,0.438,9.647,0
573,35.218,-97.462,90.5,15.23,3,328,0.783,0.384,9.661,0
574,35.218,-97.462,90.4,15.39,3,328,0.81,0.12,11.167,0
575,35.218,-97.462,90.1,15.37,3,328,0.89,0.188,9.715,0
576,35.218,-97.461,90.1,15.15,3,328,0.959,0.407,10.139,0
577,35.218,-97.461,90,15.07,3,328,0.796,0.41,8.982,0
578,35.218,-97.461,90.3,14.93,3,328,1.002,0.084,10.867,0
579,35.218,-97.461,89.7,14.78,3,327,0.796,0.335,9.467,0
580,35.218,-97.461,90.1,14.58,3,327,0.796,0.342,9.345,0
581,35.218,-97.461,90.2,14.5,3,327,0.8,0.518,9.773,0
582,35.218,-97.46,89.9,14.051,3,327,0.875,0.286,9.684,0
583,35.218,-97.46,89.7,14.1,3,327,1.092,0.469,9.445,0
584,35.218,-97.46,90,13.93,3,327,1.893,0.707,10.029,0
585,35.218,-97.46,89.8,13.42,3,327,1.79,0.644,10.044,0
586,35.218,-97.46,89.8,12.2,3,327,2.281,0.93,9.656,0
587,35.218,-97.46,89.9,10.85,3,327,2.377,0.627,9.741,0
588,35.218,-97.46,90.2,9.22,3,327,1.588,0.833,9.584,0
589,35.218,-97.459,90.3,7.79,3,328,1.709,0.529,9.759,0
591,35.218,-97.459,90.5,6.76,3,328,1.741,0.565,9.977,0
591,35.218,-97.459,90.5,6.76,3,328,1.741,0.565,9.977,0
592,35.218,-97.459,90.5,4.75,3,327,1.672,0.643,9.821,0
593,35.218,-97.459,90.8,3.65,3,327,2.118,0.817,9.69,0
594,35.218,-97.459,91.2,2.0812,3,327,2.31,0.829,9.836,0
595,35.218,-97.459,91.2,2.0812,3,327,0.887,0.413,9.512,0
596,35.218,-97.459,91.2,2.0812,3,327,0.706,0.269,9.872,1
597,35.218,-97.459,0,0,3,328,0.595,0.315,9.716,1
598,35.218,-97.459,0,0,3,328,0.634,0.277,9.843,1
599,35.218,-97.459,0,0,3,328,0.643,0.268,9.891,1
600,35.218,-97.459,0,0,3,328,0.623,0.302,9.725,1
601,35.218,-97.459,0,0,3,328,0.623,0.283,9.793,1
602,35.218,-97.459,0,0,3,328,0.631,0.289,9.909,1
603,35.218,-97.459,0,0,3,328,0.59,0.287,9.752,1
604,35.218,-97.459,0,0,3,328,0.622,0.302,9.747,1
605,35.218,-97.459,0,0,3,328,0.609,0.27,9.869,1
606,35.218,-97.459,0,0,3,328,0.631,0.277,9.879,1
607,35.218,-97.459,0,0,3,328,0.591,0.285,9.724,1
608,35.218,-97.459,0,0,3,328,0.632,0.285,9.932,1
609,35.218,-97.459,0,0,3,328,0.566,0.295,9.704,1
610,35.218,-97.459,0,0,3,328,0.633,0.284,9.761,1
611,35.218,-97.459,0,0,3,328,0.622,0.273,9.923,1
612,35.218,-97.459,0,0,3,328,0.607,0.301,9.733,1
613,35.218,-97.459,0,0,3,328,0.608,0.286,9.862,1
614,35.218,-97.459,0,0,3,328,0.577,0.3,9.705,1
615,35.218,-97.459,0,0,3,328,0.634,0.29,9.759,1
616,35.218,-97.459,0,0,3,328,0.589,0.251,9.902,1
617,35.218,-97.459,0,0,3,328,0.646,0.303,9.764,1
618,35.218,-97.459,0,0,3,328,0.629,0.285,9.898,1
619,35.218,-97.459,0,0,3,328,0.62,0.281,9.932,1
620,35.218,-97.459,0,0,3,328,0.215,0.151,9.774,1
621,35.218,-97.459,0,0,3,328,-1.805,-0.49,9.844,0
622,35.218,-97.459,0,0,3,328,-1.319,-0.346,9.897,0
623,35.218,-97.459,90,3.3101,3,328,-1.035,-0.018,9.784,0
624,35.218,-97.459,90.1,5.21,3,328,-1.103,0.108,9.164,0
625,35.218,-97.459,90.4,7.09,3,328,-0.917,-0.177,9.761,0
626,35.218,-97.459,90.3,8.8,3,329,-0.884,0.13,9.081,0
627,35.218,-97.459,89.9,10.41,3,329,-0.329,0.008,10.463,0
628,35.218,-97.459,89.7,11.69,3,328,-0.39,0.311,9.813,0
629,35.218,-97.459,90.1,12.75,3,328,0.534,-0.022,10.586,0
630,35.218,-97.458,90.7,13.34,3,328,0.317,0.195,9.429,0
631,35.218,-97.458,91,13.72,3,328,0.371,-0.148,9.485,0
632,35.218,-97.458,90.7,14.1,3,328,0.666,0.379,9.463,0
633,35.218,-97.458,90.9,14.43,3,328,0.84,0.137,10.02,0
634,35.218,-97.458,90.8,14.46,3,328,0.569,0.444,9.602,0
635,35.218,-97.458,90.5,14.43,3,329,0.579,0.278,9.883,0
636,35.218,-97.457,90.6,14.39,3,329,0.796,0.062,9.814,0
637,35.218,-97.457,90.8,14.46,3,329,0.712,0.204,9.933,0
638,35.218,-97.457,90.8,14.53,3,329,0.676,0.396,10.213,0
639,35.218,-97.457,90.8,14.63,3,329,0.504,0.129,9.601,0
