time,lat,lng,bearing,spd,acc,alt,accx,accy,accz,stable,
0,35.21,-97.439,90.9,1.2704,3,319,-2.751,-0.797,9.315,1
1,35.21,-97.439,90.9,1.2704,3,319,-3.879,-1.842,8.804,1
2,35.21,-97.439,86.4,1.8697,3,319,-2.815,-2.476,8.64,0
3,35.21,-97.439,73.4,3.4242,3,319,-2.563,-1.947,8.668,0
4,35.21,-97.439,48,4.6827,3,318,-1.946,-2.898,8.407,0
5,35.21,-97.439,26.8,6.0621,3,319,-3.26,-1.755,8.667,1
6,35.21,-97.439,11.5,7.1806,3,319,-3.037,-1.887,9.025,1
7,35.21,-97.439,3.7,8.3803,3,319,-3.136,-0.938,8.76,0
8,35.21,-97.439,359.2,9.4214,4,319,-3.147,-1.021,8.76,0
10,35.21,-97.439,359,10.28,4,318,-2.588,-0.294,8.812,0
11,35.21,-97.439,358.9,10.971,4,318,-2.048,-0.165,9.441,1
12,35.21,-97.439,358.6,10.521,4,318,-2.579,-0.418,8.29,0
13,35.21,-97.439,359.3,10.4,4,318,-2.176,-0.114,9.436,0
14,35.21,-97.439,359.5,10.09,4,318,-2.435,-0.431,8.833,1
15,35.211,-97.439,359.3,9.71,4,318,-2.448,-0.432,9.248,1
16,35.211,-97.439,359.9,9.1905,9,318,-0.839,0.342,9.329,0
17,35.211,-97.439,0.1,7.8106,9,318,-1.755,0.15,9.077,0
18,35.211,-97.439,359.8,6.8212,9,318,-1.236,0.574,9.171,0
19,35.211,-97.439,359.6,5.2014,9,318,-1.536,0.153,9.607,1
20,35.211,-97.439,359.5,4.1035,9,318,-1.547,0.13,9.479,0
21,35.211,-97.439,359.7,2.9121,9,318,-1.738,-0.037,9.391,0
22,35.211,-97.439,359.9,1.9026,9,318,-2.685,-0.602,9.314,1
23,35.211,-97.439,359.8,1.8327,9,317,-2.47,-0.304,9.339,1
24,35.211,-97.439,359.5,1.7441,9,317,-2.891,-0.279,9.178,1
25,35.211,-97.439,359.4,1.9712,9,317,-2.695,-0.435,9.107,0
26,35.211,-97.439,359,2.7703,9,318,-3.25,-2.727,8.502,1
27,35.211,-97.439,346.2,4.9529,9,319,-2.003,-4.303,9.475,0
28,35.211,-97.439,320,6.2642,9,318,-2.003,-3.688,8.719,1
29,35.211,-97.439,292,7.62,3,318,-2.835,-1.998,8.646,0
30,35.211,-97.439,276.4,8.75,3,319,-3.382,-1.76,8.775,1
31,35.211,-97.439,270.3,10.24,3,319,-3.471,-1.231,8.949,1
32,35.211,-97.439,268.7,11.63,3,319,-3.708,-0.687,8.714,0
33,35.211,-97.439,269.8,12.72,3,319,-2.405,-0.002,9.158,1
34,35.211,-97.44,270.4,12.821,3,319,-2.505,0.165,9.147,0
35,35.211,-97.44,270.6,12.44,3,320,-2.848,-0.766,9.248,0
36,35.211,-97.44,271,12.25,3,319,-2.538,0.093,9.486,0
37,35.211,-97.44,271.8,11.95,3,320,-2.101,-0.142,9.506,0
38,35.211,-97.44,271.8,11.5,3,320,-2.167,-0.144,8.87,0
39,35.211,-97.44,271.7,11.03,3,320,-2.326,-0.096,9.591,0
40,35.211,-97.44,271.8,10.59,3,319,-2.117,-0.139,9.354,0
41,35.211,-97.44,271.9,10.11,3,319,-1.661,0.233,9.394,0
42,35.211,-97.441,271.9,8.95,3,319,-1.53,-0.041,9.203,0
43,35.211,-97.441,271,7.87,3,319,-1.733,0.03,9.522,0
44,35.211,-97.441,269.9,6.59,3,319,-1.616,0.13,9.326,0
45,35.211,-97.441,270,5.5601,3,319,-1.901,0.259,9.356,0
47,35.211,-97.441,270.1,4.4203,3,319,-1.715,0.094,9.244,0
48,35.211,-97.441,270,3.3902,3,320,-1.61,0.106,9.774,0
49,35.211,-97.441,269.9,2.2804,3,320,-2.095,-0.182,9.327,1
50,35.211,-97.441,269.8,1.3401,3,320,-1.97,0.053,9.292,1
51,35.211,-97.441,269.7,0.79006,3,320,-2.549,-0.406,9.355,1
52,35.211,-97.441,269.7,0.79006,3,320,-2.646,-0.39,9.148,1
53,35.211,-97.441,269.7,0.79006,3,320,-2.623,-0.389,9.258,1
54,35.211,-97.441,269.7,0.79006,3,320,-2.585,-0.425,9.21,1
55,35.211,-97.441,269.7,0.79006,3,320,-2.527,-0.435,9.259,1
56,35.211,-97.441,269.7,0.79006,3,320,-2.571,-0.452,9.348,1
57,35.211,-97.441,269.7,0.79006,3,320,-2.556,-0.44,9.187,1
58,35.211,-97.441,0,0.04,5,319,-2.556,-0.471,9.301,1
59,35.211,-97.441,0,0.04,5,319,-2.596,-0.433,9.247,1
60,35.211,-97.441,0,0.04,5,319,-2.543,-0.454,9.293,1
61,35.211,-97.441,0,0.04,5,319,-2.555,-0.455,9.322,1
62,35.211,-97.441,0,0.04,5,319,-2.577,-0.433,9.256,1
63,35.211,-97.441,0,0.04,5,319,-2.544,-0.457,9.271,1
64,35.211,-97.441,0,0.04,5,319,-2.561,-0.446,9.243,1
65,35.211,-97.441,0,0.04,5,319,-2.588,-0.437,9.301,1
66,35.211,-97.441,0,0.04,5,319,-2.609,-0.425,9.297,1
67,35.211,-97.441,0,0.04,5,319,-2.618,-0.418,9.209,1
68,35.211,-97.441,0,0.04,5,319,-2.587,-0.43,9.232,1
69,35.211,-97.441,0,0.04,5,319,-2.922,-0.671,9.002,1
70,35.211,-97.441,0,0.04,5,319,-3.982,-1.346,8.795,1
71,35.211,-97.441,269.2,1.8513,3,321,-3.941,-1.321,8.867,1
72,35.211,-97.441,268.6,3.4007,3,321,-3.816,-1.276,8.873,1
73,35.211,-97.441,268.4,4.811,3,321,-3.866,-0.971,8.897,0
74,35.211,-97.441,268.5,6.1303,3,321,-3.444,-0.866,8.547,0
75,35.211,-97.441,268.9,7.2306,3,321,-3.504,-0.799,8.846,0
76,35.211,-97.441,269.5,8.1107,3,321,-3.395,-0.907,9.063,0
77,35.211,-97.441,270,9.0408,3,322,-3.407,-0.945,8.432,0
78,35.211,-97.442,270.3,9.9504,3,322,-2.971,-0.935,8.661,0
79,35.211,-97.442,270.5,10.771,3,322,-2.792,-0.95,8.777,0
80,35.211,-97.442,269.7,11.49,3,322,-2.929,-0.791,8.744,0
81,35.211,-97.442,269.1,12,3,322,-2.498,-0.45,8.724,0
82,35.211,-97.442,268.5,12.11,3,323,-2.964,-0.657,9.176,0
83,35.211,-97.442,268.7,12.4,3,322,-2.712,-0.496,8.662,0
84,35.211,-97.442,269.5,12.49,3,323,-3.024,-0.516,9.138,0
85,35.211,-97.442,270,12.81,3,323,-2.886,-0.38,9.183,0
86,35.211,-97.443,269.9,12.82,3,323,-2.826,-0.589,9.166,0
87,35.211,-97.443,269.9,13.05,3,323,-2.191,-0.757,9.756,0
88,35.211,-97.443,269.9,13.01,3,323,-1.569,0.159,9.716,0
90,35.211,-97.443,270,11.88,3,323,-1.205,0.518,9.251,0
91,35.211,-97.443,269.9,10.12,3,323,-1.413,-0.082,9.544,0
92,35.211,-97.443,269.9,8.55,9,323,-1.968,0.089,9.542,0
93,35.211,-97.443,269.8,7.52,9,322,-1.437,0.291,9.525,0
94,35.211,-97.443,269.7,6.1,9,322,-2.497,-0.36,9.227,1
95,35.211,-97.443,269.7,5.27,9,322,-2.053,-0.102,9.521,1
96,35.211,-97.443,269.7,4.83,9,322,-2.591,-0.327,9.187,1
97,35.211,-97.444,269.8,4.3106,9,322,-3.19,-0.597,8.969,1
98,35.211,-97.444,271.3,6.271,9,323,-4.678,-2.28,8.694,0
99,35.211,-97.444,277.1,8.3937,9,323,-4.84,-2.146,8.258,0
100,35.211,-97.444,276.6,10.773,9,323,-4.522,-4.176,9.511,0
101,35.211,-97.444,278.3,12.552,9,323,-3.68,-2.156,8.196,1
102,35.211,-97.444,277.5,13.9,9,323,-3.164,-1.974,8.961,0
103,35.211,-97.444,276.2,14.44,9,323,-3.106,-1.898,8.719,1
104,35.211,-97.444,273.7,15.16,9,322,-2.934,-1.646,8.998,1
105,35.211,-97.445,272.7,15.66,9,322,-2.416,-1.184,7.124,1
106,35.211,-97.445,271.9,16.231,9,321,-2.998,-1.44,8.691,0
107,35.211,-97.445,271.2,16.73,9,322,-2.928,-1.401,8.833,1
108,35.211,-97.445,270.9,17.22,9,321,-3.466,-1.506,8.322,0
109,35.211,-97.445,270.6,17.56,9,321,-2.354,-0.933,8.963,1
110,35.211,-97.446,270.4,17.31,9,321,-2.024,-1.104,9.177,0
111,35.211,-97.446,270.2,16.97,9,321,-2.067,-1.128,9.293,0
112,35.211,-97.446,269.8,16.571,9,321,-2.383,-0.891,9.007,0
113,35.211,-97.446,269.4,16.26,9,320,-2.462,-0.936,9.575,1
114,35.211,-97.446,269,15.92,9,321,-2.423,-0.744,8.724,0
115,35.211,-97.446,269,15.58,9,321,-2.528,-0.828,9.219,0
116,35.211,-97.447,268.7,15.25,9,321,-2.428,-0.919,9.564,0
117,35.211,-97.447,268.6,14.89,9,320,-2.464,-0.859,9.498,0
118,35.211,-97.447,268.6,13.92,9,320,-0.565,0.782,9.717,0
119,35.211,-97.447,268.6,11.38,9,320,-1.705,-0.596,9.52,0
120,35.211,-97.447,268.4,10.02,9,321,-2.081,-0.595,9.545,0
121,35.211,-97.447,268.2,9.12,9,320,-1.646,-0.562,9.671,0
122,35.211,-97.447,268.1,8.09,9,320,-1.892,-0.613,9.311,1
123,35.211,-97.447,267.9,7.25,9,319,-2.019,-0.809,9.35,1
124,35.211,-97.448,267.7,6.55,9,319,-1.563,-0.483,9.145,0
125,35.211,-97.448,267.9,5.42,9,319,-1.53,-0.328,9.78,1
126,35.211,-97.448,267.7,4.41,9,319,-1.605,-0.124,9.658,1
127,35.211,-97.448,267.4,3.2604,9,319,-1.918,-0.465,9.225,1
128,35.211,-97.448,267,1.9521,9,320,-1.585,-0.109,9.471,1
129,35.211,-97.448,266.7,0.7433,9,320,-2.512,-1.103,9.014,1
130,35.211,-97.448,266.7,0.7433,9,320,-2.532,-1.102,9.145,1
131,35.211,-97.448,266.7,0.7433,9,320,-2.547,-1.144,9.258,1
132,35.211,-97.448,266.7,0.7433,9,320,-2.533,-1.119,8.993,1
134,35.211,-97.448,266.7,0.7433,9,320,-2.587,-1.102,9.126,1
135,35.211,-97.448,266.7,0.7433,9,320,-2.573,-1.134,9.144,1
136,35.211,-97.448,266.7,0.7433,9,320,-2.561,-1.121,9.095,1
137,35.211,-97.448,266.7,0.7433,9,320,-2.545,-1.132,9.057,1
138,35.211,-97.448,266.7,0.7433,9,320,-2.576,-1.136,9.179,1
139,35.211,-97.448,266.7,0.7433,9,320,-2.551,-1.129,9.072,1
140,35.211,-97.448,266.7,0.7433,9,320,-2.582,-1.116,9.141,1
141,35.211,-97.448,266.7,0.7433,9,320,-2.552,-1.135,9.075,1
142,35.211,-97.448,266.7,0.7433,9,320,-2.573,-1.121,9.162,1
143,35.211,-97.448,266.7,0.7433,9,320,-2.551,-1.132,9.2,1
144,35.211,-97.448,266.7,0.7433,9,320,-2.56,-1.132,9.138,1
145,35.211,-97.448,266.7,0.7433,9,320,-2.57,-1.129,9.093,1
146,35.211,-97.448,266.7,0.7433,9,320,-2.583,-1.127,9.141,1
147,35.211,-97.448,266.7,0.7433,9,320,-2.54,-1.13,9.052,1
148,35.211,-97.448,266.7,0.7433,9,320,-2.526,-1.122,9.021,1
149,35.211,-97.448,266.7,0.7433,9,320,-2.577,-1.116,9.033,1
150,35.211,-97.448,266.7,0.7433,9,320,-2.547,-1.13,9.056,1
151,35.211,-97.448,266.7,0.7433,9,320,-2.563,-1.128,9.071,1
152,35.211,-97.448,266.7,0.7433,9,320,-2.561,-1.14,9.068,1
153,35.211,-97.448,266.7,0.7433,9,320,-2.548,-1.13,9.09,1
154,35.211,-97.448,266.7,0.7433,9,320,-2.901,-1.491,8.818,1
155,35.211,-97.448,266.7,0.7433,9,320,-4.622,-3.208,8.116,0
156,35.211,-97.448,264.5,3.7702,9,319,-4.039,-2.832,7.942,0
157,35.211,-97.448,264.5,6.2301,9,319,-3.915,-2.368,8.462,0
158,35.211,-97.448,264.1,8.0902,9,320,-3.419,-2.27,8.328,1
159,35.211,-97.448,264.4,9.5503,9,320,-3.358,-2.187,8.077,1
160,35.211,-97.448,264.6,10.881,9,320,-2.734,-1.574,8.978,1
161,35.211,-97.448,264.5,11.882,9,321,-2.825,-1.565,8.745,1
162,35.211,-97.448,267.3,12.583,9,320,-3.088,-1.504,8.773,0
163,35.211,-97.449,267.7,13.093,9,321,-3.185,-1.504,9.188,0
164,35.211,-97.449,268.4,13.841,9,321,-3.257,-1.226,9.022,0
165,35.211,-97.449,269.1,14.491,9,320,-2.558,-1.809,8.388,0
166,35.211,-97.449,269.5,15.04,9,320,-2.931,-1.522,9.115,0
167,35.211,-97.449,269.7,15.591,9,320,-2.73,-1.101,9.048,1
168,35.211,-97.449,270.1,15.831,9,321,-2.527,-1.249,9.635,0
169,35.211,-97.45,270.1,15.901,9,320,-2.381,-1.43,8.985,0
170,35.211,-97.45,269.9,16.19,9,320,-2.693,-1.343,8.989,0
171,35.211,-97.45,269.8,16.45,9,320,-2.064,-0.887,8.57,0
172,35.211,-97.45,269.8,16.25,9,320,-2.452,-0.852,9.537,1
173,35.211,-97.45,269.8,15.89,9,320,-2.414,-1.164,8.871,0
174,35.211,-97.45,269.7,15.81,9,320,-2.499,-1.41,9.43,0
175,35.211,-97.451,270,15.87,9,320,-2.359,-1.047,9.001,0
176,35.211,-97.451,270.1,15.82,9,320,-2.499,-0.697,8.124,0
178,35.211,-97.451,270.2,15.561,9,320,-2.422,-1.486,8.626,0
179,35.211,-97.451,269.9,15.59,9,320,-2.683,-1.168,8.645,1
180,35.211,-97.451,269.9,15.71,9,320,-2.373,-1.463,8.618,0
181,35.211,-97.451,269.9,15.89,9,320,-2.235,-0.904,8.851,1
182,35.211,-97.452,269.7,15.85,9,319,-2.396,-1.254,8.676,1
183,35.211,-97.452,270.1,15.77,9,320,-2.418,-1.252,8.766,1
184,35.211,-97.452,270.2,16.011,9,319,-2.139,-1.095,9.349,1
185,35.211,-97.452,270.4,15.821,9,319,-2.331,-1.408,9.214,1
186,35.211,-97.452,270.3,16.013,9,318,-2.153,-1.538,8.358,0
187,35.211,-97.453,270.4,16.274,9,318,-2.281,-1.201,9.655,0
188,35.211,-97.453,270.6,16.123,9,317,-2.216,-1.035,9.086,1
189,35.211,-97.453,270.6,15.951,9,317,-2.075,-1.162,9.531,0
190,35.211,-97.453,270.6,15.74,9,315,-2.221,-1.161,9.488,0
191,35.211,-97.453,270.5,15.603,9,314,-1.921,-1.059,8.959,0
192,35.211,-97.454,270.5,15.471,9,314,-1.823,-1.01,9.65,0
193,35.211,-97.454,270.5,14.357,9,314,-1.369,-0.088,9.459,0
194,35.211,-97.454,270.6,13.575,9,313,-2.244,-0.961,9.327,0
195,35.211,-97.454,270.7,13.338,9,313,-1.77,-1.044,9.889,0
196,35.211,-97.454,270.5,12.868,9,313,-1.819,-0.914,9.748,0
197,35.211,-97.454,270.4,12.354,9,313,-1.944,-1.24,9.227,1
198,35.211,-97.454,270.2,12.314,9,313,-2.037,-1.179,8.664,1
199,35.211,-97.455,269.9,12.302,9,312,-2.189,-1.358,8.828,0
200,35.211,-97.455,270.2,12.151,9,312,-2.443,-1.326,10.253,0
201,35.211,-97.455,270.3,11.84,9,313,-2.616,-1.371,8.789,0
202,35.211,-97.455,270.3,11.95,9,313,-2.604,-1.262,9.144,0
203,35.211,-97.455,270.5,11.88,9,313,-2.272,-1.145,9.482,1
204,35.211,-97.455,270.7,11.552,9,315,-2.665,-1.32,8.931,0
205,35.211,-97.455,270.9,11.373,9,315,-2.485,-1.644,8.915,0
206,35.211,-97.455,270.5,11.413,9,315,-2.833,-1.856,8.813,1
207,35.211,-97.456,270,11.615,9,315,-2.277,-1.464,9.181,0
208,35.211,-97.456,269.9,11.365,9,315,-2.725,-1.578,9.007,1
209,35.211,-97.456,269.8,11.353,9,314,-2.436,-1.294,9.003,0
210,35.211,-97.456,269.9,11.063,9,314,-2.576,-1.719,8.705,0
211,35.211,-97.456,270.1,11.073,9,315,-2.03,-1.136,8.782,1
212,35.211,-97.456,270.3,10.85,9,315,-2.791,-1.555,9.129,1
213,35.211,-97.456,270.5,10.89,9,315,-2.893,-1.815,8.963,0
214,35.211,-97.456,270.2,11.14,9,315,-2.738,-1.579,9.068,1
215,35.211,-97.457,270.3,11.58,9,315,-2.824,-1.55,8.195,0
216,35.211,-97.457,270.5,12.19,9,314,-2.982,-1.64,9.122,1
217,35.211,-97.457,270.3,12.68,9,315,-2.806,-1.712,8.513,1
218,35.211,-97.457,270.4,13.23,9,315,-2.649,-1.349,8.662,1
219,35.211,-97.457,270.5,13.94,9,315,-2.279,-0.944,9.04,0
220,35.211,-97.457,270.4,13.75,9,315,-2.26,-1.332,9.325,0
221,35.211,-97.457,270.3,13.77,9,315,-2.266,-0.958,9.348,0
222,35.211,-97.458,270.2,13.44,9,316,-2.437,-0.868,8.978,0
223,35.211,-97.458,270.5,13.03,9,316,-2.31,-1.112,9.142,0
224,35.211,-97.458,270.7,12.87,9,316,-2.632,-1.515,8.731,1
225,35.211,-97.458,270.2,12.67,9,317,-1.933,-1.192,9.116,0
227,35.211,-97.458,268.8,12.49,9,317,-1.934,-0.815,9.35,1
228,35.211,-97.458,267.3,11.61,9,317,-1.91,-0.038,9.501,0
229,35.211,-97.458,267.3,10.66,9,317,-1.472,0.378,9.733,0
230,35.211,-97.459,269.3,8.81,9,316,-1.966,-0.586,9.515,1
231,35.211,-97.459,270.5,7.8305,9,317,-1.685,-0.106,9.571,0
232,35.211,-97.459,270.9,6.6807,9,317,-1.822,-0.329,9.64,1
233,35.211,-97.459,270.9,5.2008,9,317,-1.584,-0.088,9.841,0
234,35.211,-97.459,270.7,3.8,9,317,-1.85,-0.307,9.495,1
235,35.211,-97.459,270.6,2.31,9,317,-2.135,-0.549,9.248,1
236,35.211,-97.459,270.5,1.31,9,317,-2.4,-0.878,9.257,1
237,35.211,-97.459,270.6,0.99045,9,318,-4.294,-2.798,8.181,1
238,35.211,-97.459,269.7,3.4201,9,318,-2.995,-3.365,8.956,0
239,35.211,-97.459,253.9,5.1614,9,317,-0.917,-4.327,8.853,0
240,35.211,-97.459,227.1,6.3501,9,318,-0.946,-4.187,8.759,0
241,35.211,-97.459,204.9,7.8703,3,319,-1.648,-3.807,8.657,0
242,35.211,-97.459,191.4,9.1004,3,319,-2.381,-3.406,8.77,0
243,35.211,-97.459,182.7,10.44,3,318,-2.764,-2.933,8.992,0
244,35.211,-97.459,179.3,11.66,3,319,-3.094,-2.155,8.882,0
245,35.211,-97.459,177,12.811,3,318,-3.282,-2.342,9.486,0
246,35.211,-97.459,177.4,13.95,3,318,-3.244,-1.511,8.779,0
247,35.21,-97.459,179.1,14.6,3,318,-2.643,-0.723,8.837,0
248,35.21,-97.459,180.8,14.76,3,317,-2.586,-1.416,9.275,0
249,35.21,-97.459,181.2,14.85,3,317,-2.659,-1.35,8.697,0
250,35.21,-97.459,180.7,14.68,3,317,-2.881,-1.567,9.549,0
251,35.21,-97.459,180.6,14.97,3,317,-2.943,-1.498,9.563,0
252,35.21,-97.459,180.7,15.161,3,316,-2.278,-0.918,9.144,0
253,35.21,-97.459,180.6,14.81,3,316,-2.54,-1.412,9.261,0
254,35.21,-97.459,180.3,14.71,3,316,-2.421,-1.143,8.005,0
255,35.209,-97.459,180.3,14.76,3,316,-2.449,-1.406,9.209,1
256,35.209,-97.459,180.3,14.76,3,315,-2.519,-1.452,9.173,0
257,35.209,-97.459,180.3,14.81,3,315,-2.352,-1.109,8.711,0
258,35.209,-97.459,180,14.83,4,315,-2.624,-1.385,9.366,0
259,35.209,-97.459,179.7,14.84,4,316,-2.669,-1.347,9.704,0
260,35.209,-97.459,179.6,14.85,4,315,-2.396,-1.235,8.859,1
261,35.209,-97.459,179.6,14.85,4,316,-2.296,-1.396,9.205,0
262,35.208,-97.459,179.6,14.83,4,316,-2.122,-1.349,8.983,0
263,35.208,-97.459,179.8,14.75,3,316,-2.775,-1.387,8.953,1
264,35.208,-97.459,180,14.68,4,316,-2.51,-1.262,9.454,0
265,35.208,-97.459,180.1,14.61,4,315,-2.1,-1.283,9.056,0
266,35.208,-97.459,179.9,14.31,4,316,-2.063,-1.273,8.821,0
267,35.208,-97.459,179.6,14.291,4,316,-2.577,-1.51,9.277,1
268,35.208,-97.459,179.3,14.341,5,316,-2.593,-1.039,9.377,0
269,35.208,-97.459,179.5,14.001,5,316,-2.51,-1.393,9.21,0
270,35.207,-97.459,179.7,13.991,5,316,-2.576,-1.229,9.743,0
271,35.207,-97.459,179.5,14.231,5,316,-2.615,-1.429,8.958,0
272,35.207,-97.459,179.4,14.21,4,316,-2.725,-1.55,9.534,0
273,35.207,-97.459,179.5,14.581,4,316,-2.543,-1.49,8.946,1
274,35.207,-97.459,179.5,14.921,4,317,-2.21,-0.94,9.316,0
275,35.207,-97.459,179.3,14.794,5,318,-2.723,-1.378,8.565,1
276,35.207,-97.459,179.4,14.515,4,319,-2.23,-1.197,9.32,1
277,35.206,-97.459,179.4,14.329,4,320,-2.376,-0.914,9.023,0
278,35.206,-97.459,179.5,13.821,4,321,-2.209,-0.974,9.083,0
280,35.206,-97.459,179.7,13.546,4,321,-2.543,-1.258,8.634,0
281,35.206,-97.459,179.7,13.133,4,320,-2.338,-1.307,8.953,1
282,35.206,-97.459,179.5,13.231,4,321,-2.293,-1.244,9.434,1
283,35.206,-97.459,179.4,13.362,4,319,-2.404,-1.129,9.555,0
284,35.206,-97.459,179.3,13.431,4,320,-2.196,-0.927,8.932,1
285,35.206,-97.459,179.4,13.317,4,319,-2.417,-1.098,9.031,0
286,35.206,-97.459,179.4,13.436,4,319,-2.197,-1.09,8.674,0
287,35.205,-97.459,179.6,13.467,4,319,-2.414,-0.853,9.566,0
288,35.205,-97.459,179.6,13.336,4,318,-2.284,-0.821,9.636,0
289,35.205,-97.459,179.7,13.175,4,318,-2.292,-0.431,9.413,0
290,35.205,-97.459,180.2,11.856,4,316,-2.018,-0.199,9.516,0
291,35.205,-97.459,182.2,10.963,4,316,-2.329,-0.271,10.288,0
292,35.205,-97.459,183.9,9.9722,4,316,-1.992,-0.143,9.769,0
293,35.205,-97.459,184.7,8.7021,4,315,-1.428,0.205,9.162,0
294,35.205,-97.459,184.9,7.58,4,316,-1.217,-0.635,9.374,0
295,35.205,-97.459,184.2,6.3304,4,315,-1.224,-0.607,9.533,0
296,35.204,-97.459,183.2,5.15,4,315,-1.513,-1.14,9.597,0
297,35.204,-97.459,182.5,4.2401,4,315,-2.031,-0.851,8.779,0
298,35.204,-97.459,182,3.16,4,316,-1.592,-0.177,9.258,1
299,35.204,-97.459,181.7,1.88,4,316,-1.639,-0.579,9.25,0
300,35.204,-97.459,181.5,0.9,4,315,-1.887,-0.635,9.495,1
301,35.204,-97.459,181.5,0.9,4,315,-2.455,-1.263,9.139,1
302,35.204,-97.459,181.5,0.9,4,315,-2.44,-1.263,9.036,1
303,35.204,-97.459,181.5,0.9,4,315,-2.492,-1.269,9.216,1
304,35.204,-97.459,181.5,0.9,4,315,-2.428,-1.277,8.965,1
305,35.204,-97.459,181.5,0.9,4,315,-2.5,-1.272,9.18,1
306,35.204,-97.459,181.5,0.9,4,315,-2.456,-1.275,9.031,1
307,35.204,-97.459,181.5,0.9,4,315,-2.495,-1.278,9.037,1
308,35.204,-97.459,0,0.04,10,317,-2.469,-1.277,9.038,1
309,35.204,-97.459,0,0.04,10,317,-2.467,-1.273,9.125,1
310,35.204,-97.459,0,0.04,10,317,-2.452,-1.268,9.081,1
311,35.204,-97.459,0,0.04,10,317,-2.476,-1.26,9.115,1
312,35.204,-97.459,0,0.04,10,317,-2.463,-1.269,9.02,1
313,35.204,-97.459,0,0.04,10,317,-2.467,-1.266,8.977,1
314,35.204,-97.459,0,0.04,10,317,-2.477,-1.259,8.975,1
315,35.204,-97.459,0,0.04,10,317,-2.476,-1.267,9.091,1
316,35.204,-97.459,0,0.03,9,319,-2.445,-1.247,9.027,1
317,35.204,-97.459,0,0.03,9,319,-2.478,-1.276,9.008,1
318,35.204,-97.459,0,0.03,9,319,-2.463,-1.264,9.01,1
319,35.204,-97.459,0,0.03,9,319,-2.449,-1.279,9.143,1
320,35.204,-97.459,0,0.03,9,319,-2.474,-1.282,9.217,1
321,35.204,-97.459,0,0.03,9,319,-2.478,-1.282,9.221,1
322,35.204,-97.459,0,0.03,9,319,-2.466,-1.28,9.217,1
323,35.204,-97.459,0,0.03,9,319,-2.456,-1.279,8.987,1
324,35.204,-97.459,0,0.03,9,320,-2.477,-1.267,9.232,1
325,35.204,-97.459,0,0.03,9,320,-2.469,-1.28,9.205,1
326,35.204,-97.459,0,0.03,9,320,-2.479,-1.263,8.979,1
327,35.204,-97.459,0,0.03,9,320,-2.435,-1.273,8.98,1
328,35.204,-97.459,0,0.03,9,320,-2.476,-1.281,9.147,1
329,35.204,-97.459,0,0.03,9,320,-2.483,-1.282,9.185,1
330,35.204,-97.459,0,0.03,9,320,-2.456,-1.275,9.173,1
331,35.204,-97.459,0,0.03,9,320,-2.487,-1.28,9.141,1
332,35.204,-97.459,0,0.03,9,321,-2.452,-1.286,9.123,1
333,35.204,-97.459,0,0.03,9,321,-2.457,-1.27,9.073,1
334,35.204,-97.459,0,0.03,9,321,-2.479,-1.272,8.976,1
336,35.204,-97.459,0,0.03,9,321,-2.658,-1.474,9.008,1
337,35.204,-97.459,0,0.03,9,321,-2.528,-1.341,8.884,1
338,35.204,-97.459,0,0.03,9,321,-2.527,-1.329,9.174,1
339,35.204,-97.459,181.2,0.5009,9,321,-2.811,-1.729,8.883,1
340,35.204,-97.459,181.2,0.5009,9,321,-2.826,-1.563,9.051,1
341,35.204,-97.459,181,1.4003,9,320,-3.812,-2.413,8.452,1
342,35.204,-97.459,180.8,2.4201,9,320,-3.075,-2.376,8.539,0
343,35.204,-97.459,181.2,3.54,9,320,-3.128,-2.065,8.42,0
344,35.204,-97.459,181.1,4.78,9,320,-3.353,-2.421,8.674,0
345,35.204,-97.459,180.6,5.6606,9,320,-2.289,-1.511,9.127,1
346,35.204,-97.459,179.4,6.68,9,320,-4.15,0.326,9.25,0
347,35.204,-97.459,202.1,6.8801,9,320,-4.252,1.135,9.097,0
348,35.204,-97.459,233.3,7.63,9,320,-6.038,1.501,8.755,0
349,35.204,-97.459,264.3,9.17,9,320,-5.169,-2.089,8.487,0
350,35.204,-97.459,273.3,10.3,9,320,-3.726,-2.782,8.292,0
351,35.204,-97.459,272.1,12.13,9,319,-3.521,-2.641,8.636,1
352,35.204,-97.46,270.8,13.78,9,319,-3.3,-2.019,8.893,1
353,35.204,-97.46,270.9,14.83,9,319,-2.882,-2.031,8.758,0
354,35.204,-97.46,271,15.52,9,319,-2.589,-1.712,8.611,0
355,35.204,-97.46,270.9,15.84,9,318,-2.545,-1.749,8.991,0
356,35.204,-97.46,270.6,15.96,9,318,-2.582,-1.578,9.123,1
357,35.204,-97.46,270.4,16.22,9,319,-2.42,-1.296,9.097,1
358,35.204,-97.461,270.5,16.23,9,319,-2.357,-1.325,9.063,1
359,35.204,-97.461,270.6,16.14,9,318,-2.114,-1.478,9.336,1
360,35.204,-97.461,270.8,16.07,9,319,-2.164,-1.071,8.793,0
361,35.204,-97.461,270.9,15.76,9,319,-2.065,-1.318,8.999,0
362,35.204,-97.461,270.4,15.43,9,319,-2.477,-1.538,9.515,0
363,35.204,-97.461,269.9,15.37,9,319,-2.262,-1.48,9.268,1
364,35.204,-97.462,269.5,15.36,9,319,-2.503,-1.328,9.029,1
365,35.204,-97.462,269.8,15.37,9,319,-2.384,-1.45,9.098,0
366,35.204,-97.462,270.2,15.35,9,319,-2.488,-1.343,9.062,1
367,35.204,-97.462,270.3,15.31,9,319,-2.318,-1.438,9.271,1
368,35.204,-97.462,270.2,15.25,9,319,-2.423,-1.332,9.095,1
369,35.204,-97.462,270,15.2,9,319,-2.399,-1.473,9.481,1
370,35.204,-97.463,270,15.23,9,319,-2.365,-1.29,8.519,0
371,35.204,-97.463,270.2,15.28,9,319,-2.573,-1.437,9.185,0
372,35.204,-97.463,270.3,15.33,9,319,-2.371,-1.394,8.911,1
373,35.204,-97.463,270.4,15.36,9,319,-2.58,-1.541,10.062,0
374,35.204,-97.463,270.4,15.34,9,318,-2.46,-1.35,9.097,0
375,35.204,-97.463,270.4,15.31,9,318,-2.443,-1.111,8.411,0
376,35.204,-97.464,270.3,15.31,9,318,-2.286,-1.465,8.773,1
377,35.204,-97.464,270.1,15.26,9,318,-2.37,-1.373,8.83,1
378,35.204,-97.464,270.1,15.26,9,318,-2.249,-1.395,8.869,0
379,35.204,-97.464,270,15.26,9,318,-2.339,-1.36,8.671,0
380,35.204,-97.464,269.9,15.23,9,319,-2.325,-1.532,9.117,1
381,35.204,-97.465,269.8,15.26,9,319,-2.422,-1.432,9.04,1
382,35.204,-97.465,269.9,15.27,9,318,-2.481,-1.54,9.146,0
383,35.204,-97.465,269.7,15.29,9,319,-2.495,-1.454,9.16,1
384,35.204,-97.465,269.7,15.36,9,319,-2.434,-1.412,9.125,1
385,35.204,-97.465,269.8,15.46,9,319,-2.606,-1.369,8.968,1
386,35.204,-97.465,269.8,15.54,9,318,-2.397,-1.405,9.21,1
387,35.204,-97.466,269.8,15.55,9,319,-2.191,-1.277,9.261,0
388,35.204,-97.466,269.9,15.46,9,319,-2.367,-1.248,9.552,1
389,35.204,-97.466,270.1,15.09,9,319,-2.406,-1.478,8.376,1
391,35.204,-97.466,270.1,14.95,9,319,-2.355,-1.685,9.135,0
392,35.204,-97.466,270.2,15.091,9,319,-2.633,-1.478,9.074,0
393,35.204,-97.466,270.1,15.21,9,319,-2.31,-1.569,9.07,0
394,35.204,-97.467,270,15.36,9,319,-2.513,-1.825,9.069,0
395,35.204,-97.467,269.9,15.6,9,319,-2.381,-1.816,9.152,1
396,35.204,-97.467,269.9,15.85,9,319,-2.456,-1.809,9.074,1
397,35.204,-97.467,269.7,16.08,9,319,-2.462,-1.717,8.638,1
398,35.204,-97.467,269.7,16.38,9,319,-2.675,-1.649,8.865,0
399,35.204,-97.467,269.7,16.7,9,319,-2.839,-1.65,9.099,1
400,35.204,-97.468,269.8,17.06,9,319,-2.794,-1.689,9.255,0
401,35.204,-97.468,270,17.4,9,319,-2.213,-1.583,8.627,0
402,35.204,-97.468,270.2,18.13,9,319,-2.455,-1.408,9.015,1
403,35.204,-97.468,270.3,18.021,9,319,-2.404,-1.459,9.408,0
404,35.204,-97.469,270.3,18.07,9,319,-2.417,-1.494,9.143,1
405,35.204,-97.469,270.2,18.03,10,319,-2.287,-1.247,9.363,1
406,35.204,-97.469,270.3,17.78,10,319,-2.177,-1.32,9.438,0
407,35.204,-97.469,270.2,17.86,9,319,-2.332,-1.398,9.107,1
408,35.204,-97.469,270.1,17.88,9,319,-2.224,-1.365,8.714,1
409,35.204,-97.47,269.9,17.92,10,319,-2.475,-1.763,9.225,0
410,35.204,-97.47,269.8,18.13,10,319,-2.409,-1.562,8.574,0
411,35.204,-97.47,269.7,18.27,10,319,-2.746,-1.574,8.775,0
412,35.204,-97.47,269.7,18.441,9,319,-2.65,-1.7,9.15,1
413,35.204,-97.47,269.8,18.67,9,319,-2.557,-1.72,9.134,0
414,35.204,-97.471,270,18.83,9,319,-2.738,-1.736,9.512,0
415,35.204,-97.471,270,19.06,9,319,-2.567,-1.578,9.621,0
416,35.204,-97.471,270,19.12,9,319,-2.06,-1.388,8.86,1
417,35.204,-97.471,269.9,18.88,9,319,-2.237,-1.133,9.213,1
418,35.204,-97.471,269.8,18.55,9,319,-2.408,-1.097,9.503,0
419,35.204,-97.472,270,18.251,9,319,-2.261,-1.195,9.094,0
420,35.204,-97.472,270.1,17.891,9,320,-2.347,-1.025,9.39,1
421,35.204,-97.472,270.2,17.561,9,320,-2.4,-1.351,8.665,0
422,35.204,-97.472,270.3,17.421,9,320,-2.414,-1.655,9.137,0
423,35.204,-97.472,270.1,17.42,9,320,-2.163,-1.467,8.469,0
424,35.204,-97.473,269.8,17.46,9,320,-2.303,-1.34,8.83,1
425,35.204,-97.473,269.9,17.57,9,321,-2.418,-1.27,8.958,1
426,35.204,-97.473,270.2,17.6,9,321,-2.068,-1.185,9.317,0
427,35.204,-97.473,270.2,17.37,9,320,-2.376,-1.741,9.774,0
428,35.204,-97.473,270.1,17.22,9,320,-2.321,-1.498,8.904,0
429,35.204,-97.474,270,17.12,9,320,-2.308,-1.14,9.311,0
430,35.204,-97.474,270.1,16.741,9,321,-1.923,-1.171,8.951,0
431,35.204,-97.474,270.1,16.37,9,320,-2.062,-1.181,8.728,0
432,35.204,-97.474,270,15.91,9,320,-2.027,-1.212,9.131,1
433,35.204,-97.474,269.8,15.54,9,321,-2.092,-1.173,9.307,1
434,35.204,-97.474,269.8,15.13,9,320,-2.05,-1.158,8.972,1
435,35.204,-97.475,269.9,14.7,9,320,-2.071,-0.904,8.615,1
436,35.204,-97.475,269.8,14.29,10,320,-2.102,-1.256,9.092,1
437,35.204,-97.475,269.9,13.94,10,320,-2.458,-1.005,9.397,0
438,35.204,-97.475,270.1,13.59,11,320,-2.191,-1.112,8.879,1
439,35.204,-97.475,270,13.21,9,320,-2.176,-1.394,9.668,0
440,35.204,-97.475,270,12.88,9,320,-1.964,-1.154,8.946,1
441,35.204,-97.475,270.1,12.5,10,320,-1.984,-1.08,9.519,1
442,35.204,-97.476,270.2,11.98,10,320,-1.497,-0.287,9.823,0
443,35.204,-97.476,270.4,10.36,9,320,-1.436,-0.468,9.106,0
444,35.204,-97.476,270.9,9.02,10,320,-1.623,-0.205,9.405,0
445,35.204,-97.476,271.4,7.58,9,320,-1.539,-0.413,9.669,0
446,35.204,-97.476,272.4,6,9,320,-1.862,-0.341,9.303,0
447,35.204,-97.476,273.1,4.7,9,320,-1.362,-0.418,9.908,0
449,35.204,-97.476,273.3,3.1803,9,319,-2.088,-1.022,9.364,1
450,35.204,-97.476,273,2.3102,9,319,-1.998,-1.008,9.244,1
451,35.204,-97.476,272.9,1.81,9,319,-1.736,-0.721,9.541,1
452,35.204,-97.476,272.9,1.01,9,319,-1.946,-0.956,9.217,1
453,35.204,-97.476,272.9,1.01,9,319,-2.419,-1.358,9.067,1
454,35.204,-97.476,272.9,1.01,9,319,-2.426,-1.384,9.188,1
455,35.204,-97.476,272.9,1.01,9,319,-2.379,-1.414,9.045,1
456,35.204,-97.476,272.9,1.01,9,319,-2.39,-1.408,9.212,1
457,35.204,-97.476,272.9,1.01,9,319,-2.431,-1.392,9.181,1
458,35.204,-97.476,272.9,1.01,9,319,-2.414,-1.388,9.101,1
459,35.204,-97.476,272.9,1.01,9,319,-2.408,-1.402,9.104,1
460,35.204,-97.476,272.9,1.01,9,319,-2.401,-1.383,8.987,1
461,35.204,-97.476,272.9,1.01,9,319,-2.435,-1.38,9.006,1
462,35.204,-97.476,272.9,1.01,9,319,-2.388,-1.4,9.143,1
463,35.204,-97.476,272.9,1.01,9,319,-2.414,-1.386,8.977,1
464,35.204,-97.476,272.9,1.01,9,319,-2.406,-1.407,8.998,1
465,35.204,-97.476,272.9,1.01,9,319,-2.401,-1.366,9.036,1
466,35.204,-97.476,272.9,1.01,9,319,-2.404,-1.394,9.017,1
467,35.204,-97.476,272.9,1.01,9,319,-2.41,-1.399,8.985,1
468,35.204,-97.476,272.9,1.01,9,319,-2.433,-1.366,9.113,1
469,35.204,-97.476,272.9,1.01,9,319,-2.407,-1.388,8.976,1
470,35.204,-97.476,272.9,1.01,9,319,-2.389,-1.404,9.191,1
471,35.204,-97.476,272.9,1.01,9,319,-2.454,-1.393,9.173,1
472,35.204,-97.476,272.9,1.01,9,319,-2.407,-1.404,9.22,1
473,35.204,-97.476,272.9,1.01,9,319,-2.429,-1.378,9.205,1
474,35.204,-97.476,272.9,1.01,9,319,-2.423,-1.422,9.232,1
475,35.204,-97.476,272.9,1.01,9,319,-2.408,-1.385,9.182,1
476,35.204,-97.476,272.9,1.01,9,319,-2.432,-1.373,9.171,1
477,35.204,-97.476,272.9,1.01,9,319,-2.406,-1.398,9.106,1
478,35.204,-97.476,272.9,1.01,9,319,-2.413,-1.384,9.025,1
479,35.204,-97.476,272.9,1.01,9,319,-2.422,-1.406,9.12,1
480,35.204,-97.476,272.9,1.01,9,319,-2.421,-1.37,8.954,1
481,35.204,-97.476,272.9,1.01,9,319,-2.4,-1.408,9.221,1
482,35.204,-97.476,272.9,1.01,9,319,-2.397,-1.404,9.133,1
483,35.204,-97.476,272.9,1.01,9,319,-2.418,-1.394,9.062,1
484,35.204,-97.476,272.9,1.01,9,319,-2.432,-1.389,9.181,1
485,35.204,-97.476,272.9,1.01,9,319,-2.419,-1.404,8.988,1
486,35.204,-97.476,272.9,1.01,9,319,-2.406,-1.362,8.971,1
487,35.204,-97.476,272.9,1.01,9,319,-2.411,-1.382,9.084,1
488,35.204,-97.476,272.9,1.01,9,319,-2.43,-1.382,9.061,1
489,35.204,-97.476,272.9,1.01,9,319,-2.401,-1.381,8.986,1
490,35.204,-97.476,272.9,1.01,9,319,-2.439,-1.386,9.03,1
491,35.204,-97.476,272.9,1.01,9,319,-2.408,-1.399,9.174,1
492,35.204,-97.476,272.9,1.01,9,319,-2.428,-1.395,9.173,1
493,35.204,-97.476,272.9,1.01,9,319,-2.423,-1.406,9.198,1
494,35.204,-97.476,272.9,1.01,9,319,-2.425,-1.392,9.114,1
495,35.204,-97.476,272.9,1.01,9,319,-2.431,-1.406,9.17,1
496,35.204,-97.476,272.9,1.01,9,319,-2.388,-1.407,9.172,1
497,35.204,-97.476,272.9,1.01,9,319,-2.408,-1.395,9.125,1
498,35.204,-97.476,272.9,1.01,9,319,-2.433,-1.377,8.976,1
499,35.204,-97.476,272.9,1.01,9,319,-2.419,-1.4,8.993,1
500,35.204,-97.476,272.9,1.01,9,319,-2.404,-1.397,9.191,1
501,35.204,-97.476,272.9,1.01,9,319,-2.426,-1.39,9.002,1
502,35.204,-97.476,272.9,1.01,9,319,-2.422,-1.394,8.987,1
503,35.204,-97.476,272.9,1.01,9,319,-2.417,-1.382,9.019,1
504,35.204,-97.476,272.9,1.01,9,319,-2.43,-1.394,9.05,1
505,35.204,-97.476,272.9,1.01,9,319,-2.415,-1.388,9.092,1
506,35.204,-97.476,272.9,1.01,9,319,-2.421,-1.38,8.986,1
507,35.204,-97.476,272.9,1.01,9,319,-2.447,-1.399,9.142,1
508,35.204,-97.476,272.9,1.01,9,319,-2.393,-1.396,9.156,1
509,35.204,-97.476,272.9,1.01,9,319,-2.407,-1.382,9.052,1
510,35.204,-97.476,272.9,1.01,9,319,-2.43,-1.432,9.212,1
512,35.204,-97.476,272.9,1.01,9,319,-2.424,-1.38,9.171,1
513,35.204,-97.476,272.9,1.01,9,319,-2.431,-1.364,8.921,1
514,35.204,-97.476,272.9,1.01,9,319,-2.446,-1.401,9.238,1
515,35.204,-97.476,272.9,1.01,9,319,-2.425,-1.359,8.935,1
516,35.204,-97.476,272.9,1.01,9,319,-2.418,-1.384,8.966,1
517,35.204,-97.476,272.9,1.01,9,319,-2.382,-1.404,8.93,1
518,35.204,-97.476,272.9,1.01,9,319,-2.42,-1.397,8.925,1
519,35.204,-97.476,272.9,1.01,9,319,-2.416,-1.407,9.242,1
520,35.204,-97.476,272.9,1.01,9,319,-2.404,-1.411,9.191,1
521,35.204,-97.476,272.9,1.01,9,319,-2.418,-1.402,9.251,1
522,35.204,-97.476,272.9,1.01,9,319,-2.453,-1.388,9.233,1
523,35.204,-97.476,272.9,1.01,9,319,-2.382,-1.399,8.976,1
524,35.204,-97.476,272.9,1.01,9,319,-2.432,-1.391,9.233,1
525,35.204,-97.476,272.9,1.01,9,319,-2.722,-1.716,8.732,1
526,35.204,-97.476,272.9,1.01,9,319,-2.685,-1.671,9.114,1
527,35.204,-97.476,273.5,1.13,3,318,-2.727,-1.752,9.075,1
528,35.204,-97.476,273.5,2.22,3,318,-3.156,-2.265,8.655,1
529,35.204,-97.476,274.3,3.35,3,318,-3.009,-2.26,8.775,1
530,35.204,-97.476,273.8,4.4202,3,318,-3.202,-2.215,8.614,1
531,35.204,-97.476,273.1,5.44,3,318,-2.901,-2.198,8.557,1
532,35.204,-97.476,272.5,6.56,3,318,-2.848,-2.253,8.652,0
533,35.204,-97.476,272,7.6302,3,317,-3.212,-2.158,8.56,0
534,35.204,-97.477,271.4,8.59,3,318,-3.106,-2.176,7.901,0
535,35.204,-97.477,271,9.4801,3,318,-3.091,-1.985,8.453,0
536,35.204,-97.477,270.7,10.47,3,318,-2.992,-2.478,8.64,0
537,35.204,-97.477,270.3,11.5,3,318,-3.231,-2.537,8.234,0
538,35.204,-97.477,270,12.66,3,318,-3.225,-2.235,8.543,0
539,35.204,-97.477,269.8,13.811,3,318,-3.374,-2.134,8.895,0
540,35.204,-97.477,269.9,14.841,3,318,-3.349,-1.997,8.641,1
541,35.204,-97.478,270.1,15.733,3,319,-2.771,-1.715,9.217,1
542,35.204,-97.478,270,15.933,3,319,-2.319,-1.288,9,0
543,35.204,-97.478,269.9,15.623,3,319,-2.213,-1.096,9.386,0
544,35.204,-97.478,269.9,15.123,3,320,-2.289,-1.063,9.025,0
545,35.204,-97.478,269.8,14.582,3,320,-1.793,-0.395,9.794,0
546,35.204,-97.478,270,13.232,3,320,-2.074,-0.856,8.902,0
547,35.204,-97.478,270.2,12.022,3,320,-2.544,-0.477,9.309,0
548,35.204,-97.479,272.4,10.921,3,320,-2.576,-0.638,9.127,1
549,35.204,-97.479,275.9,10.18,3,320,-2.871,-0.019,8.98,0
550,35.204,-97.479,282.2,9.7401,3,320,-2.768,-0.147,8.755,0
551,35.204,-97.479,290.6,9.37,3,320,-3.994,-0.536,8.73,0
552,35.204,-97.479,300.3,9.6501,3,321,-4.251,-0.309,9.127,0
553,35.204,-97.479,312.4,10.431,3,320,-4.808,0.072,8.834,0
554,35.204,-97.479,325.3,11.06,3,321,-4.249,-0.472,8.894,0
555,35.204,-97.479,336.8,11.9,3,321,-3.412,-1.403,8.721,1
556,35.204,-97.479,341.9,12.571,3,321,-2.967,-1.779,8.796,1
557,35.205,-97.479,342.2,13.274,3,321,-2.904,-1.576,8.979,1
558,35.205,-97.479,342.1,14.138,3,320,-3.093,-2.132,9.011,1
559,35.205,-97.479,342,15.487,3,320,-2.958,-2.162,8.583,1
560,35.205,-97.479,341.6,16.879,3,319,-3.058,-2.07,8.724,1
561,35.205,-97.48,341.4,18.261,3,318,-2.996,-2.099,8.749,0
562,35.205,-97.48,341.3,19.4,3,317,-2.954,-1.764,9.03,0
563,35.205,-97.48,341.5,20.457,3,316,-2.681,-1.607,9.188,0
564,35.206,-97.48,341.3,21.183,3,316,-2.533,-1.891,9.13,0
565,35.206,-97.48,341,21.771,3,315,-3.127,-1.571,9.261,0
566,35.206,-97.48,341.1,22.84,3,314,-3.022,-1.464,9.256,0
567,35.206,-97.48,341,23.35,3,314,-2.67,-1.673,8.39,1
568,35.206,-97.48,339.8,23.82,3,314,-3.245,-2.227,7.796,0
569,35.207,-97.48,338.9,24.51,3,314,-3.697,-2.092,9.047,0
570,35.207,-97.48,338,25.73,3,315,-3.337,-1.643,9.005,1
572,35.207,-97.48,337.8,26.48,3,315,-2.775,-1.65,9.04,0
573,35.207,-97.481,337.3,26.88,4,316,-2.738,-1.765,9.01,1
574,35.208,-97.481,336,27.181,4,316,-2.28,-1.801,9.574,0
575,35.208,-97.481,334.2,27.272,3,317,-2.899,-1.749,9.242,1
576,35.208,-97.481,332.6,27.522,3,316,-3.355,-1.348,9.165,1
577,35.208,-97.481,332.2,28.152,3,316,-3.033,-1.414,8.899,0
578,35.208,-97.481,331.8,28.372,3,317,-3.095,-1.366,8.809,0
579,35.209,-97.481,331.4,28.653,3,317,-2.83,-1.766,8.894,1
580,35.209,-97.481,331,28.903,3,318,-2.787,-1.704,9.186,1
581,35.209,-97.482,330.3,29.222,3,318,-3.044,-1.807,9.006,0
582,35.21,-97.482,330.7,30.232,3,319,-3.247,-1.866,8.781,1
583,35.21,-97.482,331.8,31.041,3,320,-3.318,-1.501,8.671,1
584,35.21,-97.482,332,31.82,3,319,-2.647,-2.401,8.475,1
585,35.21,-97.482,331.4,32.52,3,320,-2.764,-2.542,9.59,0
586,35.211,-97.483,330.8,33.3,3,320,-3.055,-2.246,9.403,0
587,35.211,-97.483,330.5,34.1,3,320,-3.179,-2.134,9.709,0
588,35.211,-97.483,331,34.86,3,320,-3.696,-1.467,9.108,1
589,35.211,-97.483,331.8,35.74,3,320,-3.279,-1.667,8.453,1
590,35.212,-97.483,332,36.54,3,320,-2.463,-2.272,8.419,0
591,35.212,-97.484,330.9,37.16,3,320,-2.494,-2.069,7.837,0
592,35.212,-97.484,330.5,37.91,3,320,-2.705,-1.759,8.033,0
593,35.213,-97.484,331.1,38.72,3,321,-4.107,-0.828,8.771,0
594,35.213,-97.484,333.1,39.51,3,322,-3.207,-0.191,9.937,0
595,35.213,-97.484,335.5,39.12,3,322,-3.425,0.195,9.293,0
596,35.214,-97.485,337.6,38.501,3,323,-2.967,0.001,9.277,0
597,35.214,-97.485,339.4,37.661,3,324,-2.928,-0.219,9.617,0
598,35.214,-97.485,341.1,37.011,3,325,-2.694,-0.54,9.339,0
599,35.214,-97.485,342.7,36.411,3,325,-3.297,0.156,9.595,0
600,35.215,-97.485,345.1,35.77,3,324,-2.963,-0.64,9.23,1
601,35.215,-97.485,346.8,35.35,3,324,-2.532,-0.292,8.217,0
602,35.215,-97.485,348.5,35.06,3,325,-3.178,-0.834,9.529,0
603,35.216,-97.485,350,34.9,3,325,-3.258,-0.716,9.372,0
604,35.216,-97.485,351.7,34.841,3,325,-3.394,-0.445,9.234,0
605,35.216,-97.485,353.7,34.771,3,325,-3.307,-0.425,8.758,0
606,35.217,-97.485,355.7,34.7,3,325,-2.814,-0.744,8.353,0
607,35.217,-97.485,357.2,34.622,3,325,-2.968,-0.698,8.347,1
608,35.217,-97.485,358.9,34.551,3,325,-2.557,-0.724,9.693,0
609,35.218,-97.485,359.7,34.04,3,325,-2.473,-0.731,9.356,0
610,35.218,-97.485,0.3,33.561,3,326,-2.195,-1.244,8.981,1
611,35.218,-97.485,359.8,33.14,3,326,-2.842,-0.918,9.052,0
