time,lat,lng,bearing,spd,acc,alt,accx,accy,accz,stable,
0,35.426,-97.486,8.6,34.581,3,361,-1.734,-1.723,9.568,0
1,35.426,-97.486,7.1,34.32,3,361,-1.595,-1.517,9.3,0
2,35.426,-97.486,5.7,33.86,3,361,-1.541,-1.26,9.17,0
3,35.427,-97.486,3,33.962,3,359,-1.579,-1.224,9.277,0
4,35.427,-97.486,1.4,33.422,3,359,-1.983,-1.306,9.178,0
5,35.427,-97.486,0.4,33.14,3,358,-1.842,-0.574,9.236,0
6,35.428,-97.486,0.1,32.15,3,358,-1.73,-0.787,9.394,0
7,35.428,-97.486,359.9,31.12,3,358,-2.177,-0.997,9.058,1
8,35.428,-97.486,359.7,30.91,3,358,-1.881,-0.701,8.927,1
9,35.428,-97.486,359.7,30.81,3,358,-2.111,-1.004,9.017,1
10,35.429,-97.486,0.1,29.12,3,358,-2.051,-1.47,9.159,1
11,35.429,-97.486,0.1,28.89,3,358,-2.363,-1.531,9.281,1
12,35.429,-97.486,0,28.71,3,358,-2.205,-1.38,9.312,1
13,35.429,-97.486,359.8,28.46,3,358,-2.243,-1.425,9.142,1
14,35.43,-97.486,359.9,28.27,3,358,-1.903,-1.299,8.78,0
15,35.43,-97.486,0,28.02,3,358,-2.042,-1.207,8.723,0
16,35.43,-97.486,0,27.64,3,358,-1.915,-1.133,9.157,0
17,35.43,-97.486,359.9,27.17,3,358,-1.702,-0.595,9.554,0
18,35.431,-97.486,0.1,26.101,3,359,-1.854,-0.861,9.603,0
19,35.431,-97.486,0.1,24.75,3,359,-1.848,-1.284,9.238,0
20,35.431,-97.486,359.8,24.331,3,359,-2.184,-1.154,9.119,0
21,35.431,-97.486,359.7,24.15,3,359,-2.611,-1.696,9.094,1
22,35.432,-97.486,359.9,24.35,3,359,-3.108,-2.23,8.716,1
23,35.432,-97.486,0.2,25.221,3,359,-3.152,-2.438,8.701,1
24,35.432,-97.486,0.5,26.291,3,359,-3.016,-2.455,8.138,1
25,35.432,-97.486,0.1,27.66,3,360,-3.497,-2.48,8.877,1
26,35.432,-97.486,0.1,28.93,3,360,-3.233,-2.41,8.31,1
27,35.433,-97.486,0.1,30.19,3,360,-2.652,-1.96,8.798,1
29,35.433,-97.486,0,30.93,3,360,-2.442,-1.39,8.88,1
29,35.433,-97.486,0,30.93,3,360,-2.442,-1.39,8.88,1
30,35.433,-97.486,359.9,31.21,3,360,-2.116,-1.39,8.975,1
31,35.434,-97.486,0.1,31.07,3,359,-2.271,-1.153,9.102,1
32,35.434,-97.486,359.8,31.12,3,359,-2.267,-1.188,8.856,1
33,35.434,-97.486,0,31.11,3,359,-2.236,-1.377,9.21,1
34,35.434,-97.486,0.1,31.12,3,359,-2.399,-1.442,9.608,0
35,35.435,-97.486,0.1,31.14,3,358,-2.3,-1.392,9.348,0
36,35.435,-97.486,0,30.98,3,358,-2.212,-1.386,9.176,0
37,35.435,-97.486,0.1,30.17,3,358,-2.418,-1.433,9.439,0
38,35.436,-97.486,358.6,30.341,3,358,-2.675,-1.622,9.17,0
39,35.436,-97.486,359.8,30.6,3,358,-2.627,-1.671,8.648,0
40,35.436,-97.486,0.1,30.91,3,358,-2.308,-1.495,9.017,0
41,35.436,-97.486,359.9,31.22,3,358,-2.289,-1.222,9.153,0
42,35.437,-97.486,0.1,30.77,3,358,-2.192,-1.267,9.268,0
43,35.437,-97.486,0,30.47,3,357,-2.279,-1.36,9.614,0
44,35.438,-97.486,359.9,30.29,3,357,-2.413,-1.439,9.293,0
45,35.438,-97.486,0,30.3,3,357,-2.491,-1.393,8.842,0
46,35.438,-97.486,0.1,30.4,3,357,-2.354,-1.786,8.805,0
47,35.438,-97.486,359.9,30.58,3,358,-2.593,-1.772,9.129,0
48,35.439,-97.486,359.9,30.74,3,357,-2.499,-1.659,9.165,0
49,35.439,-97.486,359.9,30.82,3,358,-2.448,-1.626,9.093,0
50,35.439,-97.486,1.5,30.26,3,359,-2.625,-1.247,8.867,0
51,35.439,-97.486,0,29.611,3,358,-2.377,-1.467,9.182,0
52,35.44,-97.486,0,30.66,3,358,-2.193,-1.458,9.042,1
53,35.44,-97.486,359.8,30.42,3,358,-2.294,-1.332,9.644,0
54,35.44,-97.486,359.9,30.1,3,358,-2.268,-1.326,8.705,0
55,35.441,-97.486,359.9,29.9,3,358,-2.54,-1.81,9.613,0
56,35.441,-97.486,359.8,29.89,3,358,-2.546,-1.316,9.353,0
57,35.441,-97.486,0,29.77,3,358,-2.606,-1.341,9.224,0
58,35.441,-97.486,0.3,29.52,3,358,-2.262,-1.354,8.954,0
59,35.442,-97.486,0.3,29.41,3,358,-2.137,-1.392,8.986,0
60,35.442,-97.486,0.2,29.23,3,358,-2.125,-1.491,9.84,0
61,35.442,-97.486,0.1,29.03,3,358,-2.023,-1.544,9.306,0
62,35.442,-97.486,359.9,28.89,3,358,-2.023,-1.286,9.516,0
63,35.443,-97.486,359.9,28.64,3,358,-2.087,-1.168,9.418,0
64,35.443,-97.486,0.1,28.561,3,357,-2.572,-1.439,8.593,0
65,35.443,-97.486,0.2,28.59,3,357,-2.388,-1.468,8.915,0
66,35.443,-97.486,0.3,28.61,3,356,-2.266,-1.461,9.299,0
67,35.444,-97.486,0.2,28.52,3,356,-2.178,-1.239,9.016,0
68,35.444,-97.486,359.6,28.54,3,357,-2.299,-1.076,9.326,0
69,35.444,-97.486,359.5,28.562,3,356,-2.268,-1.226,9.529,0
70,35.444,-97.486,358.8,28.492,3,355,-2.469,-1.355,9.078,0
71,35.445,-97.486,358,28.38,3,355,-2.699,-1.672,9.678,0
72,35.445,-97.486,358.4,28.3,4,354,-2.447,-1.697,9.251,0
73,35.445,-97.486,356.5,28.49,4,354,-2.495,-1.642,8.985,0
74,35.445,-97.486,355.7,28.59,4,354,-2.343,-1.477,9.067,0
75,35.446,-97.486,354.1,29.34,3,354,-2.529,-1.562,8.834,0
76,35.446,-97.486,353.1,29.55,3,353,-2.505,-1.38,8.762,0
77,35.446,-97.486,352.3,29.65,3,353,-2.462,-1.639,8.992,0
78,35.447,-97.486,351.4,29.71,3,352,-2.017,-1.606,8.979,0
79,35.447,-97.486,350.1,29.73,3,352,-2.413,-1.408,9.085,0
80,35.447,-97.486,349,29.73,3,349,-2.401,-1.546,9.145,1
81,35.447,-97.487,348.2,29.76,3,346,-2.108,-1.469,9.052,1
82,35.448,-97.487,347.2,29.72,3,345,-2.112,-1.586,8.937,1
83,35.448,-97.487,345.9,29.68,3,344,-2.35,-1.719,8.99,1
84,35.448,-97.487,344.4,29.68,3,343,-2.283,-1.909,9.262,1
85,35.448,-97.487,343.4,30.08,3,341,-2.126,-1.52,9.506,1
86,35.449,-97.487,341.7,29.991,3,341,-2.558,-1.35,9.315,1
87,35.449,-97.487,341.1,29.93,3,339,-2.674,-1.398,9.082,1
88,35.449,-97.487,341.1,30.03,3,338,-2.556,-1.742,9.501,0
89,35.449,-97.487,340.9,30.321,3,337,-2.427,-1.764,9.101,0
90,35.45,-97.487,339.5,30.3,3,336,-2.615,-1.505,8.793,0
91,35.45,-97.487,339.6,30.79,4,336,-2.749,-1.773,9.584,0
93,35.45,-97.488,339.3,30.82,5,335,-2.702,-1.597,9.266,0
93,35.45,-97.488,339.3,30.82,5,335,-2.702,-1.597,9.266,0
94,35.45,-97.488,339.1,31.04,4,336,-2.244,-1.444,8.983,0
95,35.451,-97.488,339.3,30.821,4,336,-2.138,-1.454,9.43,0
96,35.451,-97.488,339.2,30.352,3,337,-1.915,-1.049,9.38,0
97,35.451,-97.488,339.4,29.801,3,337,-1.941,-0.653,9.666,0
98,35.452,-97.488,339.8,28.881,3,337,-1.982,-1.263,8.371,0
99,35.452,-97.488,340,28.081,3,337,-2.224,-1.219,8.486,0
100,35.452,-97.488,340.1,27.671,3,337,-2.221,-0.629,9.394,1
101,35.452,-97.489,340.3,27.161,3,337,-2.462,-1.05,9.269,1
102,35.452,-97.489,341.4,25.981,3,338,-2.908,-1.448,8.91,1
103,35.453,-97.489,341.8,25.651,3,339,-3.252,-1.54,8.309,1
104,35.453,-97.489,342.4,26.32,3,338,-3.344,-1.668,8.714,1
105,35.453,-97.489,342.3,26.73,3,339,-2.846,-1.519,8.965,1
106,35.454,-97.489,342.7,26.91,3,340,-2.491,-1.319,9.137,1
107,35.454,-97.489,342.7,26.91,3,340,-2.39,-1.372,8.894,1
108,35.454,-97.489,342.4,26.57,3,342,-2.026,-1.762,9.466,1
109,35.454,-97.489,341.3,26.12,3,341,-1.307,-0.728,9.524,1
110,35.454,-97.489,341,24.9,3,342,-1.211,-0.842,9.148,1
111,35.455,-97.49,340.7,24.1,3,343,-2.159,-1.233,8.992,1
112,35.455,-97.49,340.6,23.97,3,344,-2.436,-1.459,9.08,1
113,35.455,-97.49,340.8,24.161,3,344,-2.521,-1.763,9.134,1
114,35.455,-97.49,340.7,24.811,3,343,-2.649,-1.962,8.857,1
115,35.455,-97.49,340.7,25.581,3,342,-2.685,-2.009,8.873,1
116,35.456,-97.49,340.4,26.41,3,344,-2.717,-1.947,9.056,0
117,35.456,-97.49,340.5,27.1,3,344,-2.571,-2.088,8.881,0
118,35.456,-97.49,340.6,27.941,3,343,-2.589,-1.888,8.332,0
119,35.456,-97.49,340.6,28.681,3,343,-2.59,-2.307,9.389,0
120,35.457,-97.49,340.4,29.541,3,342,-2.657,-2.155,9.159,0
121,35.457,-97.491,340.3,30.3,3,341,-2.617,-1.75,8.482,0
122,35.457,-97.491,340.3,30.84,3,341,-2.669,-1.881,8.777,0
123,35.457,-97.491,340.1,31.1,3,341,-2.916,-1.902,8.657,0
124,35.458,-97.491,340.4,31.52,3,341,-3.483,-2.194,9.981,0
125,35.458,-97.491,341.1,32.18,4,341,-2.909,-2.012,8.243,0
126,35.458,-97.491,341.1,32.88,4,340,-2.766,-0.752,7.037,0
127,35.459,-97.491,341.2,33.27,4,340,-3.205,-1.782,8.853,0
128,35.459,-97.491,341.4,33.63,4,341,-2.626,-1.091,9.129,0
129,35.459,-97.491,341.7,33.61,4,340,-3.569,-1.183,8.516,0
130,35.459,-97.492,341.5,32.841,4,340,-1.757,-1.058,9.064,0
131,35.46,-97.492,342,32.58,4,340,-2.1,-1.089,9.08,0
132,35.46,-97.492,342.1,32.13,4,340,-1.957,-1.264,8.993,1
133,35.46,-97.492,341.5,31.52,4,339,-1.929,-1.504,9.555,1
134,35.46,-97.492,341.5,31.09,4,340,-2.343,-1.135,9.114,1
135,35.461,-97.492,341.5,30.7,4,340,-2.563,-0.931,8.728,1
136,35.461,-97.492,340.4,29.713,3,342,-1.688,-0.586,8.735,1
137,35.461,-97.492,340.1,28.84,3,341,-1.535,-1,9.085,1
138,35.461,-97.492,338.8,28.17,3,340,-0.727,-1.756,9.098,1
139,35.462,-97.493,335.2,27.581,3,340,-1.096,-2.058,9.19,1
140,35.462,-97.493,330.5,27.22,3,341,-1.424,-2.287,9.345,1
141,35.462,-97.493,326.5,27.12,3,340,-1.387,-2.171,8.473,1
142,35.462,-97.493,326.2,26.8,3,341,-1.319,-2.262,9.028,1
143,35.462,-97.493,319,26.67,3,341,-1.302,-2.396,8.798,1
144,35.463,-97.493,318.1,26.99,3,341,-1.23,-2.365,9.456,1
145,35.463,-97.494,311.3,26.75,3,341,-1.562,-2.044,9.213,1
146,35.463,-97.494,307.7,26.41,3,344,-1.626,-2.395,8.886,1
147,35.463,-97.494,303.5,26.67,3,343,-2.103,-2.582,8.722,1
148,35.463,-97.494,302.1,26.76,3,343,-2.028,-2.686,9.096,1
149,35.463,-97.495,296.7,27.85,3,344,-2.918,-2.042,8.832,1
150,35.463,-97.495,295.2,28.68,3,344,-2.992,-1.742,8.615,1
151,35.464,-97.495,295.5,29.62,3,344,-3.047,-2.006,8.946,1
152,35.464,-97.496,295.5,30.52,3,343,-2.798,-1.874,8.887,1
153,35.464,-97.496,295.5,31.1,3,343,-2.836,-1.992,9.261,1
154,35.464,-97.496,295.8,31.47,3,344,-2.454,-1.665,9.324,0
156,35.464,-97.497,296.2,31.61,3,344,-2.197,-1.504,8.726,0
156,35.464,-97.497,296.2,31.61,3,344,-2.197,-1.504,8.726,0
157,35.464,-97.497,296.3,31.35,3,344,-2.253,-1.292,8.762,0
158,35.464,-97.497,296.5,31.14,3,344,-2.631,-1.161,8.556,0
159,35.464,-97.497,297.2,31.001,3,344,-3.44,-1.054,8.841,0
160,35.465,-97.498,299.3,31.231,3,344,-3.708,-0.986,9.276,0
161,35.465,-97.498,300.3,31.4,3,344,-3.661,-1.069,8.932,0
162,35.465,-97.498,302,31.63,3,345,-3.672,-1.237,9.231,0
163,35.465,-97.499,307.2,32.36,3,344,-3.605,-1.29,9.095,0
164,35.465,-97.499,309.4,32.85,3,344,-3.817,-1.205,9.351,0
165,35.465,-97.499,310.8,33,3,344,-3.188,-0.576,9.343,0
166,35.466,-97.499,314.5,33.571,3,345,-3.083,-0.423,9.206,0
167,35.466,-97.5,318.9,32.7,3,346,-2.43,-0.302,8.453,0
168,35.466,-97.5,321.2,32.34,3,346,-3.09,-0.513,10.207,0
169,35.467,-97.5,323.3,31.99,3,346,-2.709,-1.554,10.849,0
170,35.467,-97.501,324.5,31.6,3,347,-2.221,-1.538,9.42,0
171,35.467,-97.501,324.6,31.471,3,348,-2.318,-1.448,8.919,0
172,35.467,-97.501,324.5,31.29,3,347,-2.178,-1.471,9.548,0
173,35.467,-97.501,324.5,31.06,3,348,-2.852,-1.864,9.456,0
174,35.468,-97.501,324.6,30.578,3,348,-2.542,-1.296,8.366,0
175,35.468,-97.502,324.8,30.402,3,349,-2.064,-1.596,9.753,0
176,35.468,-97.502,324.7,29.861,3,350,-2.328,-1.263,9.11,0
177,35.468,-97.502,324.8,29.251,3,349,-1.935,-1.574,9.391,0
178,35.469,-97.502,324.9,29.071,3,349,-2.814,-1.912,9.419,0
179,35.469,-97.502,324.7,29.22,3,350,-2.418,-2.12,9.188,0
180,35.469,-97.503,323.8,29.4,3,351,-2.277,-2.316,8.715,0
181,35.469,-97.503,322.8,29.71,3,350,-2.451,-2.281,8.634,0
182,35.469,-97.503,322.1,29.911,3,353,-2.369,-1.866,8.996,0
183,35.47,-97.503,321.9,30.091,3,355,-2.378,-1.827,9.224,0
184,35.47,-97.503,321.6,30.021,3,355,-1.959,-0.914,7.332,0
185,35.47,-97.504,321.5,29.701,3,356,-1.771,-1.619,8.567,0
186,35.47,-97.504,321,29.561,3,356,-2.184,-1.797,8.789,0
187,35.47,-97.504,320.6,29.75,3,355,-2.251,-1.815,9.165,0
188,35.471,-97.504,320.4,30.01,3,355,-2.54,-1.833,8.772,0
189,35.471,-97.504,320.4,30.18,3,356,-2.483,-1.542,9.111,0
190,35.471,-97.505,320.5,30.4,3,356,-2.039,-1.473,9.092,0
191,35.471,-97.505,320.4,30.29,3,356,-2.135,-1.44,8.788,0
192,35.472,-97.505,320.4,30.26,3,355,-2.222,-1.304,8.75,0
193,35.472,-97.505,320.5,30.09,3,356,-1.456,-1.623,9.995,0
194,35.472,-97.505,320.4,29.81,3,356,-2.443,-1.64,9.7,0
195,35.472,-97.506,320.2,29.57,3,356,-2.269,-1.56,9.652,0
196,35.472,-97.506,320.2,29.53,3,356,-2.406,-1.596,8.942,0
197,35.473,-97.506,320.3,29.781,3,356,-2.595,-1.771,8.323,0
198,35.473,-97.506,320.6,30.11,3,355,-2.294,-1.737,8.861,0
199,35.473,-97.506,320.3,30.54,3,356,-2.299,-1.513,8.601,0
200,35.473,-97.507,320.3,30.75,3,356,-2.237,-1.411,8.82,0
201,35.473,-97.507,320.4,31.01,3,357,-2.246,-1.399,9.111,0
202,35.474,-97.507,320.4,31.07,3,358,-2.167,-1.368,9.031,0
203,35.474,-97.507,320.6,31.24,3,358,-2.75,-1.115,9.401,1
204,35.474,-97.508,320.9,31.26,3,358,-3.029,-0.913,9.652,0
205,35.474,-97.508,323.3,31.451,3,356,-2.898,-0.72,9.09,0
206,35.474,-97.508,324.3,31.51,4,354,-3.051,-0.738,9.216,0
207,35.475,-97.508,327.4,30.612,4,354,-3.217,-0.793,9.15,0
208,35.475,-97.508,330,30.551,4,352,-2.848,-0.96,8.811,0
209,35.475,-97.508,332,30.46,4,352,-2.953,-0.946,8.916,0
210,35.475,-97.509,333.8,30.26,3,351,-2.788,-0.849,9.152,0
211,35.476,-97.509,335.6,29.99,3,351,-2.599,-0.841,8.643,0
212,35.476,-97.509,337.2,29.71,3,350,-2.674,-0.777,8.93,1
213,35.476,-97.509,339.1,29.481,3,349,-3.018,-0.792,9.432,1
214,35.476,-97.509,341.2,29.29,3,350,-3.084,-0.935,9.123,1
215,35.477,-97.509,343.7,29.461,3,349,-3.043,-1.075,8.925,1
216,35.477,-97.509,345.4,29.46,3,349,-3.1,-1.197,9.006,1
217,35.477,-97.509,347.7,29.801,3,348,-3.282,-1.292,9.103,1
219,35.478,-97.509,349.5,30.17,3,348,-3.327,-1.459,9.518,0
219,35.478,-97.509,349.5,30.17,3,348,-3.327,-1.459,9.518,0
220,35.478,-97.509,351.7,30.63,3,347,-3.126,-1.488,9.236,0
221,35.478,-97.509,353.4,31.48,3,347,-3.378,-1.272,8.888,0
222,35.478,-97.509,355.3,31.26,3,346,-2.955,-1.609,9.052,0
223,35.479,-97.51,356.3,31.17,4,346,-2.841,-2.059,9.21,0
224,35.479,-97.51,357,32.021,3,347,-2.681,-2.057,8.783,0
225,35.479,-97.51,356.9,32.591,3,347,-2.737,-2.134,8.764,0
226,35.48,-97.51,357,32.91,3,347,-2.677,-1.699,8.454,0
227,35.48,-97.51,356.5,33.68,3,347,-2.267,-1.696,8.715,1
228,35.48,-97.51,356.4,33.75,3,347,-2.236,-1.634,9.249,1
229,35.48,-97.51,356.1,33.7,3,347,-1.814,-1.593,9.188,1
230,35.481,-97.51,355,33.71,3,346,-1.905,-1.551,9.354,1
231,35.481,-97.51,352.4,33.2,3,346,-2.287,-1.329,9.194,1
232,35.482,-97.51,351.9,32.93,3,346,-2.067,-1.376,9.216,1
233,35.482,-97.51,351.1,32.79,3,345,-2.051,-1.557,9.105,1
234,35.482,-97.51,350.3,32.53,3,344,-1.995,-1.55,9.296,1
235,35.483,-97.51,350.2,32.83,3,344,-2.023,-1.745,9.112,1
236,35.483,-97.51,349.5,32.89,3,344,-2.447,-1.731,9.188,1
237,35.483,-97.51,347.9,32.002,3,345,-2.384,-1.504,9.157,1
238,35.483,-97.51,347.2,31.646,3,347,-2.478,-1.6,9.122,0
239,35.484,-97.51,346.9,31.654,3,347,-2.504,-1.657,9.115,0
240,35.484,-97.51,346.6,31.494,3,349,-2.414,-1.649,9.529,0
241,35.484,-97.51,347,31.334,3,350,-3.044,-1.508,9.036,0
242,35.484,-97.511,348,31.134,3,351,-2.851,-1.17,8.956,0
243,35.485,-97.511,349.2,30.594,3,351,-2.962,-1.035,8.584,0
244,35.485,-97.511,350.4,30.353,3,351,-2.76,-1.423,9.006,0
245,35.485,-97.511,351,30.034,3,352,-2.562,-1.269,8.803,1
246,35.486,-97.511,351.8,29.941,3,352,-3.055,-0.998,8.79,0
247,35.486,-97.511,353,29.346,3,354,-3.077,-1.205,9.538,0
248,35.486,-97.511,353.9,28.955,3,355,-2.377,-1.227,9.078,0
249,35.486,-97.511,354.6,28.336,3,356,-2.219,-1.092,9.04,0
250,35.487,-97.511,354.8,28.192,3,357,-2.518,-0.918,9.07,0
251,35.487,-97.511,355.7,28.021,3,357,-2.527,-1.153,8.672,0
252,35.487,-97.511,357.8,27.172,3,357,-2.585,-1.386,8.914,0
253,35.487,-97.511,358.5,26.901,3,358,-2.741,-1.545,8.523,0
254,35.488,-97.511,359.1,26.93,3,359,-2.563,-1.55,8.562,0
255,35.488,-97.511,359.5,27.22,3,359,-2.657,-1.66,8.733,0
256,35.488,-97.511,359.9,27.61,3,359,-2.777,-1.834,9.065,0
257,35.488,-97.511,359.9,28,3,360,-2.919,-1.737,8.926,0
258,35.489,-97.511,0.1,28.5,3,360,-3.188,-1.592,8.897,0
259,35.489,-97.511,0.2,28.94,3,360,-3.037,-1.665,9.006,0
260,35.489,-97.511,0,29.43,3,360,-2.577,-2.546,9.838,0
261,35.489,-97.511,358.6,29.86,3,360,-2.08,-2.124,8.527,0
262,35.49,-97.511,356.3,30.29,3,360,-1.982,-2.09,8.337,0
263,35.49,-97.511,355.5,30.4,3,360,-1.885,-2.126,8.062,0
264,35.49,-97.511,352.3,31.11,3,360,-2.238,-1.89,8.677,0
265,35.49,-97.511,350.8,31.24,3,359,-2.206,-2.16,9.571,0
266,35.491,-97.511,349,31.41,3,359,-1.638,-1.801,8.463,0
267,35.491,-97.511,348,31.48,3,358,-2.125,-2.213,9.297,0
268,35.491,-97.511,345.5,30.7,4,360,-2.124,-1.947,9.411,0
269,35.492,-97.511,343.4,31.49,3,361,-2.124,-1.526,8.617,0
270,35.492,-97.512,342,31.46,4,360,-1.93,-1.915,8.743,0
271,35.492,-97.512,340.1,31.38,4,358,-2.152,-1.933,8.852,0
272,35.492,-97.512,337.9,31.38,3,357,-1.586,-2.182,9.325,0
273,35.493,-97.512,335.7,31.26,3,357,-2.629,-1.503,9.029,0
274,35.493,-97.512,334.7,31.06,3,358,-2.177,-1.059,8.481,0
275,35.493,-97.512,334.4,30.84,3,356,-1.339,-0.311,9.041,0
276,35.493,-97.512,334.2,29.971,3,355,-1.573,-0.769,9.823,0
277,35.494,-97.513,334.5,28.591,3,354,-2.293,-1.154,9.204,0
278,35.494,-97.513,334.9,28.182,3,353,-2.552,-1.35,9.042,0
280,35.494,-97.513,335.4,28.123,3,351,-2.364,-1.064,8.974,0
280,35.494,-97.513,335.4,28.123,3,351,-2.364,-1.064,8.974,0
281,35.494,-97.513,336,28.063,3,350,-2.78,-0.839,8.934,1
282,35.494,-97.513,336.6,28,3,350,-2.634,-1.175,9.11,1
283,35.495,-97.513,337.6,27.92,4,350,-2.579,-1.176,9.284,1
284,35.495,-97.513,339.4,28.01,5,350,-2.768,-1.259,9.728,0
285,35.495,-97.513,342.7,28.366,4,349,-2.743,-0.944,9.271,0
286,35.495,-97.513,344.5,28.416,3,348,-2.61,-0.911,9.452,0
287,35.496,-97.513,345.8,28.241,3,347,-2.485,-0.962,9.497,0
288,35.496,-97.514,347.4,28.201,3,348,-2.47,-0.675,8.851,0
289,35.496,-97.514,348.9,28.121,3,347,-2.884,-1.273,10.467,0
290,35.496,-97.514,351.3,28.084,3,346,-2.514,-0.739,8.794,0
291,35.497,-97.514,355,27.892,3,344,-2.866,-0.602,8.992,0
292,35.497,-97.514,357,27.961,3,344,-3.143,-0.695,9.406,0
293,35.497,-97.514,359.1,28.124,3,343,-2.957,-1.015,8.788,0
294,35.498,-97.514,359.7,28.054,3,343,-2.276,-1.614,9.352,0
295,35.498,-97.514,359.3,27.984,3,342,-1.732,-1.696,9.851,0
296,35.498,-97.514,358.9,27.861,3,342,-1.841,-1.508,9.386,0
297,35.498,-97.514,358.6,27.76,3,342,-2.048,-1.393,9.488,0
298,35.499,-97.514,358.6,27.63,4,342,-2.255,-1.437,9.567,0
299,35.499,-97.514,358.2,27.44,3,342,-2.181,-1.337,9.609,0
300,35.499,-97.514,358.3,27.18,3,342,-1.971,-1.126,9.472,0
301,35.499,-97.514,358.3,26.56,3,341,-2.066,-1.329,9.421,0
302,35.5,-97.514,358.3,26.18,4,342,-2.159,-1.367,9.448,0
303,35.5,-97.514,358.2,25.86,3,342,-2.04,-1.38,9.1,1
304,35.5,-97.514,358.2,25.57,3,343,-2.147,-1.58,9.234,1
305,35.5,-97.514,358.2,25.25,3,343,-1.715,-1.009,9.57,1
306,35.501,-97.514,358.1,24.34,3,343,-1.452,-0.499,9.571,1
307,35.501,-97.514,358.1,22.83,3,343,-0.998,-0.144,9.736,1
308,35.501,-97.514,357.9,20.63,3,343,-0.688,0.48,9.778,1
309,35.501,-97.514,358.7,19.74,3,343,-0.493,0.664,9.948,0
310,35.501,-97.514,359.3,17.61,4,342,-1.953,-1.251,9.307,0
311,35.501,-97.514,0.5,15.26,6,343,-2.065,-1.459,9.118,1
312,35.502,-97.514,358.2,12.71,4,342,-2.595,-1.911,8.858,0
313,35.502,-97.514,358.2,12.81,4,342,-1.553,-0.602,9.555,1
314,35.502,-97.514,358.3,12.74,4,342,0.066,1.043,10.56,0
315,35.502,-97.514,356.8,11.53,4,342,-0.316,0.872,10.319,0
316,35.502,-97.514,358,7.1701,4,342,-1.474,-0.661,9.612,1
317,35.502,-97.514,358.2,4.7701,4,343,-1.094,-0.248,9.497,1
318,35.502,-97.514,358.1,3.82,4,343,-1.549,-0.687,9.559,1
319,35.502,-97.514,357.7,2.43,4,343,-1.616,-0.749,9.407,1
320,35.502,-97.514,357.7,2.43,4,343,-2.779,-2.067,8.821,1
321,35.502,-97.514,357.7,2.43,4,343,-3.052,-2.391,8.583,1
322,35.502,-97.514,358.2,1.0508,5,343,-2.639,-1.963,8.945,1
323,35.502,-97.514,357.9,1.78,4,344,-1.455,-0.684,9.336,1
324,35.502,-97.514,357.9,1.9,4,344,-2.36,-1.624,9.424,1
325,35.502,-97.514,357.9,1.67,5,344,-2.493,-1.8,8.886,1
326,35.502,-97.514,357.9,1.84,4,343,-2.381,-1.609,9.215,1
327,35.502,-97.514,357.8,2.0601,4,343,-2.341,-1.786,9.345,1
328,35.502,-97.514,357.8,2,5,343,-2.507,-1.71,8.754,1
329,35.502,-97.514,357.8,2.0801,4,344,-2.407,-1.787,9.149,1
330,35.502,-97.514,357.8,2.23,5,344,-2.224,-1.511,9.122,1
331,35.502,-97.514,357.8,2.28,5,344,-2.68,-2.038,8.47,1
332,35.502,-97.514,357.8,2.38,5,344,-2.461,-1.81,8.946,1
333,35.502,-97.514,357.9,2.81,5,345,-2.563,-1.92,8.994,1
334,35.502,-97.514,358.1,3.35,4,345,-2.94,-2.284,8.513,1
335,35.502,-97.514,358.5,4.0003,4,345,-2.621,-1.82,8.727,1
336,35.502,-97.514,358.9,4.9401,4,346,-2.62,-2.264,8.727,1
337,35.502,-97.514,359.2,5.6601,4,346,-2.326,-1.619,8.968,1
338,35.502,-97.514,359.2,6.15,4,346,-2.251,-1.558,9.368,1
339,35.502,-97.514,358.9,6.1,4,347,-2.226,-1.483,9.114,1
340,35.503,-97.514,358.7,5.97,4,347,-1.756,-0.916,9.253,1
341,35.503,-97.514,358.4,5.7,3,347,-2.196,-1.461,8.97,1
343,35.503,-97.514,358.3,5.04,4,347,-2.246,-1.444,9.043,1
343,35.503,-97.514,358.3,5.04,4,347,-2.246,-1.444,9.043,1
344,35.503,-97.514,358.2,4.83,4,348,-2.207,-1.519,8.957,1
345,35.503,-97.514,358.6,4.61,4,347,-2.445,-1.803,9.023,1
346,35.503,-97.514,358.9,4.45,3,347,-2.425,-1.557,9.108,1
347,35.503,-97.514,359.1,4.44,3,347,-2.254,-1.581,9.065,1
348,35.503,-97.514,359.1,4.4,3,347,-2.824,-2.334,8.88,1
349,35.503,-97.514,359.1,4.3,3,347,-1.998,-1.26,9.231,1
350,35.503,-97.514,359,4.64,3,347,-1.776,-1.028,9.482,1
351,35.503,-97.514,359,4.1917,3,348,-2.072,-1.497,9.145,1
352,35.503,-97.514,359,2.5712,3,349,-2.372,-1.706,9.119,1
353,35.503,-97.514,358.9,2.5324,3,349,-2.269,-1.776,8.606,0
354,35.503,-97.514,358.7,2.6007,3,349,-2.369,-1.693,8.977,1
355,35.503,-97.514,358.4,2.6101,3,349,-2.123,-1.448,9.179,1
356,35.503,-97.514,358.4,2.471,3,349,-2.397,-1.679,8.756,1
357,35.503,-97.514,358.1,2.43,3,349,-2.441,-1.665,8.91,1
358,35.503,-97.514,357.8,2.49,3,348,-2.39,-1.729,9.219,1
359,35.503,-97.514,357.7,2.5401,3,348,-2.366,-1.742,9.025,1
360,35.503,-97.514,357.6,2.61,3,348,-2.318,-1.609,8.932,1
361,35.503,-97.514,357.6,2.61,3,348,-2.373,-1.65,9.128,1
362,35.503,-97.514,357.5,2.66,3,348,-2.681,-1.946,8.864,1
363,35.503,-97.514,357.6,2.9101,3,348,-3.19,-2.708,8.553,1
364,35.503,-97.514,357.6,2.9101,3,348,-3.039,-2.417,8.777,1
365,35.503,-97.514,358,4.63,3,349,-2.86,-2.19,8.699,1
366,35.503,-97.514,358.3,5.1505,3,349,-2.365,-1.685,9.124,1
367,35.503,-97.514,358.7,5.1602,4,349,-2.532,-1.718,8.878,1
368,35.503,-97.514,357.6,5.3927,3,349,-2.36,-1.679,8.897,1
369,35.504,-97.514,358,5.6913,3,348,-2.395,-1.659,9.095,1
370,35.504,-97.514,358.3,5.6702,4,348,-2.296,-1.544,8.974,1
371,35.504,-97.514,358.4,5.6701,3,348,-1.825,-1.103,9.377,1
372,35.504,-97.514,358.4,5.32,3,348,-2.045,-1.339,9.381,1
373,35.504,-97.514,358.5,4.4902,3,348,-1.671,-0.894,9.373,0
374,35.504,-97.514,358.3,3.5001,4,348,-1.848,-1.24,9.222,1
375,35.504,-97.514,358.2,2.7303,4,348,-2.046,-1.457,9.05,1
376,35.504,-97.514,358.2,2.1802,4,348,-2.499,-1.887,8.994,1
377,35.504,-97.514,358,2.16,4,348,-2.386,-1.817,9.003,1
378,35.504,-97.514,357.9,2.2901,4,348,-2.34,-1.784,8.867,1
379,35.504,-97.514,357.9,2.36,5,349,-2.376,-1.687,9.298,1
380,35.504,-97.514,357.8,2.4101,5,349,-2.427,-1.75,8.955,1
381,35.504,-97.514,357.7,2.32,5,349,-2.305,-1.785,9.258,1
382,35.504,-97.514,357.7,2.37,4,348,-2.374,-1.807,9.128,1
383,35.504,-97.514,357.6,2.41,5,349,-2.409,-1.654,9.048,1
384,35.504,-97.514,357.6,2.4701,4,349,-2.011,-1.177,9.141,1
385,35.504,-97.514,357.6,2.22,5,350,-2.465,-1.738,8.479,1
386,35.504,-97.514,357.5,2.04,4,349,-2.561,-1.861,8.76,1
387,35.504,-97.514,357.5,2.33,4,350,-2.784,-2.211,8.81,0
388,35.504,-97.514,357.7,3.47,3,350,-2.497,-1.793,8.641,1
389,35.504,-97.514,357.7,4.5607,3,350,-2.402,-1.628,9.363,1
390,35.504,-97.514,357.6,4.8702,3,350,-2.606,-1.74,9.552,0
391,35.504,-97.514,357.8,4.8904,3,350,-2.624,-1.672,8.767,1
392,35.504,-97.514,357.9,5.2402,3,350,-2.554,-1.546,8.974,0
393,35.504,-97.514,358.2,5.3,3,351,-2.324,-1.415,9.15,1
394,35.504,-97.514,358.1,5.1402,3,351,-2.201,-1.235,8.97,1
395,35.504,-97.514,358.1,4.92,3,351,-2.32,-1.362,8.752,1
396,35.504,-97.514,358.1,4.57,3,352,-2.492,-1.371,9.313,1
397,35.504,-97.514,358,4.3803,3,352,-2.469,-1.266,9.153,1
398,35.504,-97.514,358.1,4.25,3,351,-2.541,-1.262,9.196,1
399,35.505,-97.514,358.2,4.07,3,352,-2.57,-1.254,9.034,1
400,35.505,-97.514,358.1,3.91,3,351,-2.903,-1.628,8.909,1
401,35.505,-97.514,358,3.9506,3,351,-2.652,-1.375,9.088,1
403,35.505,-97.514,358,4.3,3,352,-2.646,-1.242,9.126,1
403,35.505,-97.514,358,4.3,3,352,-2.646,-1.242,9.126,1
404,35.505,-97.514,357.9,4.3,3,352,-2.507,-1.254,9.055,1
405,35.505,-97.514,357.8,4.18,3,352,-3.038,-1.844,8.658,1
406,35.505,-97.514,357.6,4.01,3,351,-2.635,-1.395,9.11,1
407,35.505,-97.514,357.4,4.39,3,351,-2.64,-1.237,9.229,1
408,35.505,-97.514,357.2,4.52,3,352,-2.669,-1.138,9.059,1
409,35.505,-97.514,357.1,4.45,3,351,-2.521,-1.235,9.178,1
410,35.505,-97.514,357,4.33,3,352,-2.639,-1.108,9.188,1
411,35.505,-97.514,356.9,4.2,3,351,-2.795,-1.074,9.006,1
412,35.505,-97.514,357,4.07,3,351,-2.886,-1.39,8.893,1
413,35.505,-97.514,357.2,3.9001,3,350,-2.809,-1.189,8.972,0
414,35.505,-97.514,357.4,4.06,3,349,-2.714,-1.142,9.326,1
415,35.505,-97.514,357.4,3.78,3,349,-2.217,-0.415,9.465,0
416,35.505,-97.514,357.4,3.0903,3,349,-2.618,-0.78,9.021,1
417,35.505,-97.514,357.4,2.4601,3,349,-2.534,-0.779,9.213,1
418,35.505,-97.514,357.3,2.06,3,349,-2.656,-1.044,9.065,0
419,35.505,-97.514,357.1,1.7904,3,349,-2.889,-1.188,8.603,0
420,35.505,-97.514,356.8,1.66,3,349,-2.726,-1.16,8.83,0
421,35.505,-97.514,356.4,1.7,3,348,-2.868,-1.274,8.746,1
422,35.505,-97.514,356.2,1.83,3,348,-2.958,-1.398,9.099,1
423,35.505,-97.514,356.2,2.03,3,347,-2.941,-1.334,9.02,1
424,35.505,-97.514,356.1,2.31,3,347,-2.852,-1.232,8.808,1
425,35.505,-97.514,355.9,2.53,3,347,-2.815,-1.259,9.024,1
426,35.505,-97.514,355.6,2.59,3,346,-2.715,-0.918,9.198,1
427,35.505,-97.514,355.4,2.36,3,346,-2.707,-1.127,9.349,1
428,35.505,-97.514,355.2,2.1804,3,346,-2.841,-1.224,9.118,0
429,35.505,-97.514,355,2.12,3,346,-2.866,-1.136,8.877,1
430,35.505,-97.514,354.8,2.2301,3,346,-2.692,-1.1,9.349,1
431,35.505,-97.514,354.7,2.1904,3,346,-2.784,-1.199,8.939,0
432,35.505,-97.514,354.5,2.2102,3,345,-2.842,-1.142,9.132,0
433,35.505,-97.514,354.3,2.1704,3,345,-2.833,-1.226,8.778,0
434,35.505,-97.514,354,2.2404,3,344,-2.879,-1.274,8.836,1
435,35.506,-97.514,353.6,2.4201,3,343,-2.899,-1.236,9.093,0
436,35.506,-97.514,353.4,2.6001,3,342,-2.828,-1.176,9.052,1
437,35.506,-97.514,353.2,2.71,3,342,-2.8,-1.193,8.972,1
438,35.506,-97.514,353,2.8203,3,341,-2.877,-1.215,8.997,0
439,35.506,-97.514,352.8,2.8701,3,341,-2.798,-1.186,8.909,1
440,35.506,-97.514,352.7,2.9201,3,340,-2.81,-1.191,8.693,1
441,35.506,-97.514,352.6,2.94,3,340,-2.826,-1.147,9.077,1
442,35.506,-97.514,352.5,2.99,3,340,-2.783,-1.153,8.853,1
443,35.506,-97.514,352.3,3.0401,3,339,-2.512,-0.633,9.25,1
444,35.506,-97.514,352.1,2.6907,3,337,-2.749,-1.117,9.056,1
445,35.506,-97.514,351.9,2.2208,3,336,-2.736,-1.108,8.746,1
446,35.506,-97.514,351.8,2.0802,3,336,-2.82,-1.257,8.996,0
447,35.506,-97.514,351.9,2.08,3,337,-2.886,-1.274,9.189,1
448,35.506,-97.514,351.9,2.24,3,336,-2.764,-1.266,8.882,1
449,35.506,-97.514,351.9,2.39,3,335,-2.525,-0.978,9.19,1
450,35.506,-97.514,351.8,2.38,3,334,-2.663,-1.247,9.124,0
451,35.506,-97.514,351.8,2.2004,3,334,-2.395,-0.847,9.246,1
452,35.506,-97.514,351.7,2.0502,3,333,-2.743,-1.389,9.155,0
453,35.506,-97.514,351.7,1.8702,3,333,-2.879,-1.363,8.661,1
454,35.506,-97.514,351.7,2.0101,3,332,-2.807,-1.357,8.844,1
455,35.506,-97.514,351.6,2.3002,3,330,-2.068,-0.519,9.694,0
456,35.506,-97.514,351.8,2.21,3,329,-2.908,-1.456,9.025,0
457,35.506,-97.514,351.5,1.7203,3,329,-2.824,-1.483,9.005,0
458,35.506,-97.514,351.5,1.8,3,328,-2.891,-1.464,9.067,1
459,35.506,-97.514,351.4,1.98,3,329,-2.719,-1.424,9.105,1
460,35.506,-97.514,351.4,2.01,3,328,-2.703,-1.408,8.741,1
461,35.506,-97.514,351.1,2.42,3,328,-2.648,-1.304,9.216,1
462,35.506,-97.514,351.1,2.5103,3,328,-2.537,-1.17,9.295,1
463,35.506,-97.514,351.2,2.72,3,327,-2.694,-1.487,9.105,1
465,35.506,-97.514,351.1,2.6601,3,328,-2.659,-1.502,8.818,1
465,35.506,-97.514,351.1,2.6601,3,328,-2.659,-1.502,8.818,1
466,35.506,-97.514,351,2.4503,3,328,-2.671,-1.364,8.844,1
467,35.506,-97.514,351.3,2.5703,3,328,-2.613,-1.387,8.985,0
468,35.506,-97.514,351.6,2.65,3,327,-2.614,-1.427,9.045,0
469,35.506,-97.514,351.7,2.8702,3,327,-2.53,-1.335,8.954,1
470,35.506,-97.514,351.8,2.92,3,327,-2.464,-1.302,9.114,1
471,35.506,-97.514,352.1,2.98,3,327,-2.062,-0.897,9.069,1
472,35.506,-97.514,352,2.83,3,327,-2.142,-1.068,9.424,1
473,35.506,-97.514,351.9,2.3005,3,328,-2.075,-0.856,8.942,0
474,35.506,-97.514,351.7,1.751,3,328,-1.958,-0.868,9.053,0
475,35.506,-97.514,351.5,1.1311,3,329,-2.433,-1.364,9.282,1
476,35.506,-97.514,351.5,1.1311,3,329,-2.824,-1.848,8.614,1
477,35.506,-97.514,351.9,0.74007,3,326,-2.794,-1.816,9.342,1
478,35.506,-97.514,352,1.28,3,326,-2.738,-1.67,8.653,1
479,35.506,-97.514,351.7,1.72,3,327,-2.567,-1.742,9.098,1
480,35.506,-97.514,351.6,2.06,3,327,-2.666,-1.64,8.92,1
481,35.506,-97.514,351.5,2.36,3,326,-2.952,-2.12,8.988,1
482,35.507,-97.514,351.5,3.1423,3,326,-3.077,-2.226,8.765,1
483,35.507,-97.514,351.8,3.9932,3,327,-2.655,-1.703,8.927,1
484,35.507,-97.514,352,4.4414,3,327,-2.757,-1.835,8.737,1
485,35.507,-97.514,352.3,5.0008,3,326,-2.805,-1.989,8.894,1
486,35.507,-97.514,352.5,5.3402,3,326,-2.389,-1.652,8.912,1
487,35.507,-97.514,352.7,5.46,3,326,-2.324,-1.475,9.153,1
488,35.507,-97.514,352.4,5.73,3,326,-2.237,-1.467,8.786,1
489,35.507,-97.514,352.4,5.75,4,326,-2.226,-1.569,9.33,1
490,35.507,-97.514,352,5.6301,3,326,-2.266,-1.464,9.182,1
491,35.507,-97.514,351.9,5.49,3,326,-2.125,-1.451,9.322,1
492,35.507,-97.514,351.9,5.26,3,324,-1.933,-0.998,9.305,1
493,35.507,-97.514,351.9,4.59,3,325,-2.108,-1.393,9.181,1
494,35.507,-97.514,352,3.92,3,325,-2.235,-1.512,9.374,0
495,35.507,-97.514,352.1,3.68,3,325,-2.241,-1.512,9.158,1
496,35.507,-97.514,351.9,3.5201,3,324,-2.219,-1.472,8.998,1
497,35.507,-97.514,352,3.2801,3,324,-2.61,-1.951,8.786,1
498,35.507,-97.514,352.2,3.18,3,324,-2.852,-2.287,8.839,1
499,35.507,-97.514,352.3,3.59,3,324,-2.22,-1.618,8.962,1
500,35.507,-97.514,352.3,4.1704,3,324,-2.266,-1.541,9.199,1
501,35.507,-97.514,352.3,4.15,3,325,-2.35,-1.681,8.877,1
502,35.507,-97.514,352.4,4.03,3,325,-2.177,-1.727,8.971,1
503,35.507,-97.514,352.5,4.0201,3,325,-2.273,-1.478,9.041,1
504,35.507,-97.514,352.5,3.9201,3,325,-1.848,-1.146,9.283,1
505,35.507,-97.514,352.3,3.71,3,325,-1.714,-0.918,9.466,1
506,35.507,-97.514,352.1,2.9703,3,326,-1.785,-0.868,9.476,1
507,35.507,-97.514,352,1.9704,3,327,-2.226,-1.356,8.675,1
508,35.507,-97.514,352,1.9704,3,327,-1.884,-1.03,9.4,1
509,35.507,-97.514,351.8,0.59304,3,327,-2.413,-1.635,9.115,1
510,35.507,-97.514,351.8,0.59304,3,327,-2.333,-1.611,9.065,1
511,35.507,-97.514,351.8,0.59304,3,327,-2.356,-1.57,9.07,1
512,35.507,-97.514,351.8,0.59304,3,327,-2.647,-1.853,8.906,1
513,35.507,-97.514,351.8,0.59304,3,327,-2.586,-1.932,9.063,1
514,35.507,-97.514,351.8,0.59304,3,327,-2.587,-1.93,9.144,1
515,35.507,-97.514,351.7,0.81394,3,326,-2.611,-1.912,9.265,1
516,35.508,-97.514,351.6,1.1942,3,326,-2.519,-1.918,9.082,1
517,35.508,-97.514,351.6,1.6008,3,326,-3.182,-2.609,8.714,1
518,35.508,-97.514,351.4,1.9701,3,326,-2.48,-1.675,8.976,1
519,35.508,-97.514,351.1,2.8204,3,326,-2.682,-1.905,8.842,1
520,35.508,-97.514,351,3.0311,3,326,-2.849,-2.036,8.503,1
521,35.508,-97.514,350.7,3.56,3,324,-2.84,-1.955,8.89,1
522,35.508,-97.514,350.6,4.1702,3,324,-2.756,-1.966,8.815,1
523,35.508,-97.514,351.1,4.7707,3,325,-2.323,-1.623,8.994,1
525,35.508,-97.514,351.7,5.3102,3,325,-2.319,-1.552,9.334,0
525,35.508,-97.514,351.7,5.3102,3,325,-2.319,-1.552,9.334,0
526,35.508,-97.514,351.8,5.49,3,324,-2.145,-1.604,9.155,1
527,35.508,-97.514,351.8,5.42,3,324,-1.859,-1.132,9.525,1
528,35.508,-97.514,351.6,5.25,3,324,-1.572,-0.732,9.437,1
529,35.508,-97.514,351.7,4.62,3,325,-1.933,-1.204,9.29,0
530,35.508,-97.514,351.9,3.7703,3,324,-2.272,-1.545,8.262,1
531,35.508,-97.514,352,3.2402,3,325,-2.56,-1.563,9.395,0
532,35.508,-97.514,352.1,3.0603,3,324,-2.302,-1.464,9.054,1
533,35.508,-97.514,352.3,2.87,3,324,-2.554,-1.902,9.004,1
534,35.508,-97.514,352.4,2.8,3,325,-2.402,-1.555,9.08,1
535,35.508,-97.514,352.4,3.09,3,325,-2.359,-1.535,9.289,1
536,35.508,-97.514,352.5,3.0601,3,325,-1.792,-1.074,9.425,1
537,35.508,-97.514,352.6,2.68,3,325,-1.793,-0.896,9.207,1
538,35.508,-97.514,352.7,1.86,3,326,-1.562,-0.641,9.182,1
539,35.508,-97.514,352.7,1.86,3,326,-2.191,-1.561,9.584,1
540,35.508,-97.514,352.7,1.86,3,326,-2.299,-1.529,9.03,1
541,35.508,-97.514,352.7,1.86,3,326,-2.341,-1.51,8.972,1
542,35.508,-97.514,352.7,1.86,3,326,-2.254,-1.58,9.152,1
543,35.508,-97.514,352.7,1.86,3,326,-2.274,-1.638,9.204,1
544,35.508,-97.514,352.7,1.86,3,326,-2.638,-1.978,8.865,1
545,35.508,-97.514,352.7,1.86,3,326,-2.594,-1.946,8.943,1
546,35.508,-97.514,352.7,1.86,3,326,-2.493,-2.014,9.151,1
547,35.508,-97.514,352.8,1.3124,3,327,-2.557,-1.895,8.703,1
548,35.508,-97.514,352.7,1.9901,3,326,-2.779,-1.944,8.819,1
549,35.508,-97.514,352.7,2.491,3,326,-2.289,-1.602,9.035,1
550,35.508,-97.514,352.6,2.77,3,326,-2.346,-1.655,9.024,1
551,35.508,-97.514,352.4,2.85,3,326,-2.141,-1.667,9.214,1
552,35.508,-97.514,352.2,2.8802,3,327,-2.118,-1.569,9.152,1
553,35.508,-97.514,351.9,2.8602,3,327,-2.091,-1.502,9.496,1
554,35.508,-97.514,351.9,2.8401,3,327,-2.368,-1.432,8.974,0
555,35.508,-97.514,351.9,2.77,3,326,-2.355,-1.56,8.963,1
556,35.508,-97.515,351.8,2.8,3,326,-2.218,-1.586,9.196,1
557,35.508,-97.515,351.7,2.7802,3,327,-2.233,-1.57,9.112,1
558,35.508,-97.515,351.7,2.8201,3,326,-2.117,-1.615,9.077,1
559,35.509,-97.515,351.6,2.86,3,327,-2.216,-1.57,9.128,1
560,35.509,-97.515,351.6,2.91,3,328,-2.191,-1.536,9.028,1
561,35.509,-97.515,351.8,2.93,3,328,-2.454,-1.86,8.804,0
562,35.509,-97.515,352.2,2.9701,3,328,-2.926,-2.427,9.036,1
563,35.509,-97.515,352.4,3.4501,3,328,-2.257,-1.497,9.059,0
564,35.509,-97.515,352.5,3.7901,3,328,-2.297,-1.615,9.11,1
565,35.509,-97.515,352.6,3.9708,3,328,-2.154,-1.479,8.694,1
566,35.509,-97.515,352.7,4.11,3,328,-1.782,-1.407,9.362,0
567,35.509,-97.515,352.6,4,3,329,-1.503,-0.493,9.419,0
568,35.509,-97.515,352.4,3.2004,3,328,-2.179,-1.421,9.06,1
569,35.509,-97.515,352.3,2.4007,3,329,-2.168,-1.557,9.069,1
570,35.509,-97.515,351.9,2.3308,3,326,-2.365,-1.745,9.13,1
571,35.509,-97.515,351.7,2.3203,3,325,-2.275,-1.618,9.026,1
572,35.509,-97.515,351.6,2.32,3,325,-2.301,-1.601,9.076,1
573,35.509,-97.515,351.5,2.55,3,327,-2.324,-1.546,9.368,0
574,35.509,-97.515,351.5,2.64,3,327,-2.096,-1.54,9.05,0
575,35.509,-97.515,351.5,2.61,3,328,-2.25,-1.497,8.994,1
576,35.509,-97.515,351.4,2.7,3,328,-2.194,-1.567,9.05,1
577,35.509,-97.515,351.5,2.8702,3,328,-2.147,-1.536,9.154,1
578,35.509,-97.515,351.5,2.91,3,328,-2.276,-1.502,9.02,1
579,35.509,-97.515,351.5,2.94,3,329,-2.166,-1.443,9.025,0
580,35.509,-97.515,351.6,2.9601,3,328,-2.189,-1.505,8.772,1
581,35.509,-97.515,351.6,2.89,3,328,-2.264,-1.519,9.057,0
582,35.509,-97.515,351.6,2.76,3,328,-2.272,-1.486,9.064,0
583,35.509,-97.515,351.6,2.8502,3,328,-2.247,-1.573,8.99,0
585,35.509,-97.515,351.6,2.91,3,328,-2.291,-1.461,8.789,0
585,35.509,-97.515,351.6,2.91,3,328,-2.291,-1.461,8.789,0
586,35.509,-97.515,351.5,2.96,3,328,-2.291,-1.475,9.189,1
587,35.509,-97.515,351.4,3,3,328,-2.975,-2.278,8.819,1
588,35.509,-97.515,351.3,3.06,3,328,-2.302,-1.459,9.216,1
589,35.509,-97.515,351.3,3.4801,3,327,-2.995,-2.446,8.605,1
590,35.509,-97.515,351.3,3.6401,3,328,-2.382,-1.477,9.153,1
591,35.509,-97.515,351.3,4.18,3,328,-2.667,-1.99,8.779,1
592,35.509,-97.515,351.6,4.49,3,328,-2.863,-2.198,8.561,1
593,35.509,-97.515,351.9,5,3,327,-2.429,-1.553,8.931,1
594,35.51,-97.515,352,5.96,3,327,-2.539,-1.826,8.833,1
595,35.51,-97.515,352.2,6.7801,3,326,-2.273,-1.499,9.148,1
596,35.51,-97.515,352.2,6.98,3,327,-2.222,-1.487,8.905,1
597,35.51,-97.515,352.2,7.0901,3,326,-2.159,-1.386,9.419,1
598,35.51,-97.515,352.2,6.9201,3,327,-1.461,-0.442,9.607,0
599,35.51,-97.515,352.1,5.2538,3,327,-1.678,-0.897,9.303,1
600,35.51,-97.515,352,4.4022,3,327,-1.505,-0.496,9.639,1
601,35.51,-97.515,351.9,3.1926,3,326,-1.405,-0.505,9.232,1
602,35.51,-97.515,351.8,2.0225,3,327,-1.511,-0.554,9.582,0
603,35.51,-97.515,351.7,0.97417,3,326,-1.745,-0.833,9.622,1
604,35.51,-97.515,351.7,0.97417,3,326,-1.905,-1.049,9.17,1
605,35.51,-97.515,0,0.06,4,330,-2.207,-1.413,9.208,1
606,35.51,-97.515,0,0.06,4,330,-2.639,-1.927,8.854,1
607,35.51,-97.515,0,0.06,4,330,-2.545,-1.833,8.828,1
608,35.51,-97.515,351,1.42,4,329,-2.524,-1.74,8.687,1
609,35.51,-97.515,350.9,1.8902,3,329,-2.413,-1.73,9.293,1
610,35.51,-97.515,350.9,2.2511,3,329,-2.691,-1.971,8.647,1
611,35.51,-97.515,350.9,2.8109,3,329,-2.404,-1.63,8.669,0
612,35.51,-97.515,350.9,3.0713,3,329,-2.224,-1.317,9.041,1
613,35.51,-97.515,350.9,3.1313,3,328,-2.198,-1.339,8.95,1
614,35.51,-97.515,351,3.1419,3,328,-2.222,-1.359,8.889,1
615,35.51,-97.515,351.2,3.1619,3,327,-2.15,-1.42,9.02,1
616,35.51,-97.515,351.3,3.1919,3,326,-2.255,-1.426,9.08,0
617,35.51,-97.515,351.3,3.2219,3,326,-2.21,-1.445,9.026,0
618,35.51,-97.515,351.3,3.3018,3,326,-2.31,-1.438,9.154,1
619,35.51,-97.515,351,3.3521,3,326,-2.522,-1.782,9.08,0
620,35.51,-97.515,350.8,3.6914,3,326,-2.513,-1.643,8.956,1
621,35.51,-97.515,351.1,4.131,3,326,-2.505,-1.483,8.924,1
622,35.51,-97.515,351.2,4.4314,3,326,-2.37,-1.342,9.075,1
623,35.51,-97.515,351.4,4.5411,3,326,-2.39,-1.305,9.192,1
624,35.51,-97.515,351.6,4.5311,3,325,-2.24,-1.004,9.098,1
625,35.511,-97.515,351.8,4.1814,3,325,-2.447,-1.268,9.298,1
626,35.511,-97.515,351.9,4.141,3,325,-2.489,-1.225,9.027,0
627,35.511,-97.515,351.9,4.1408,3,325,-2.461,-1.22,9.153,1
628,35.511,-97.515,352,4.1306,3,324,-2.237,-0.966,9.482,1
629,35.511,-97.515,352,3.7409,3,324,-2.377,-1.089,9.058,1
630,35.511,-97.515,351.9,3.5307,3,324,-2.428,-1.167,9.269,1
631,35.511,-97.515,351.7,3.4709,3,323,-2.449,-1.151,8.868,0
632,35.511,-97.515,351.6,3.4412,3,324,-2.523,-1.112,9.136,1
633,35.511,-97.515,351.5,3.3907,3,323,-2.547,-1.192,9.251,1
634,35.511,-97.515,351.4,3.3507,3,323,-2.501,-1.187,9.031,1
635,35.511,-97.515,351.4,3.3007,3,323,-2.603,-1.063,8.957,1
636,35.511,-97.515,351.4,3.2904,3,323,-2.635,-1.072,9.093,1
637,35.511,-97.515,351.3,3.3205,3,323,-2.599,-1.103,9.107,0
638,35.511,-97.515,351.4,3.3405,3,323,-2.833,-1.349,8.995,1
639,35.511,-97.515,351.4,3.6209,3,323,-2.58,-1.03,9.517,1
640,35.511,-97.515,351.3,3.6509,3,323,-2.671,-0.976,8.733,0
641,35.511,-97.515,351.5,3.4309,3,323,-2.623,-1.052,9.089,1
642,35.511,-97.515,351.8,3.4007,3,323,-2.573,-1.005,9.018,1
643,35.511,-97.515,352,3.3605,3,322,-2.645,-0.999,9.013,1
644,35.511,-97.515,352.1,3.3007,3,322,-2.706,-1.003,8.736,1
645,35.511,-97.515,352.3,3.2905,3,322,-2.593,-1.061,9.152,1
647,35.511,-97.515,352.5,3.3105,3,322,-2.65,-1.085,9.016,1
647,35.511,-97.515,352.5,3.3105,3,322,-2.65,-1.085,9.016,1
648,35.511,-97.515,352.2,3.3107,3,322,-2.678,-1.079,9.015,1
649,35.511,-97.515,351.4,3.321,3,322,-2.728,-0.987,8.839,1
650,35.511,-97.515,351,3.341,3,322,-2.699,-0.95,8.861,1
651,35.511,-97.515,350.5,3.3707,3,322,-2.723,-0.966,9.338,1
652,35.511,-97.515,350.1,3.3407,3,322,-2.643,-0.955,9.101,1
653,35.511,-97.515,349.9,3.311,3,322,-2.83,-0.963,9.056,1
654,35.511,-97.515,349.7,3.2907,3,321,-2.73,-1.014,9.085,1
655,35.511,-97.515,349.6,3.311,3,321,-2.779,-1.024,9.282,1
656,35.511,-97.515,349.4,3.331,3,321,-2.713,-0.953,9.041,1
657,35.511,-97.515,349.1,3.3107,3,321,-2.706,-0.903,8.97,1
658,35.512,-97.515,348.7,3.1204,3,321,-2.396,-0.603,8.941,1
659,35.512,-97.515,348.3,2.6107,3,321,-2.375,-0.452,9.335,0
660,35.512,-97.515,348.1,1.8607,3,321,-2.561,-0.794,9.236,1
661,35.512,-97.515,348,1.3701,3,321,-2.672,-0.843,9.122,1
662,35.512,-97.515,347.9,1.31,3,321,-2.882,-1.091,9.141,1
663,35.512,-97.515,347.8,1.5201,3,321,-2.872,-1.119,8.838,1
664,35.512,-97.515,347.7,1.8501,3,321,-3.034,-1.218,8.946,1
665,35.512,-97.515,347.6,2.1904,3,321,-2.957,-1.198,9.189,1
666,35.512,-97.515,347.5,2.4503,3,321,-2.93,-1.125,9.224,1
667,35.512,-97.515,347.4,2.6202,3,322,-2.869,-1.065,8.87,1
668,35.512,-97.515,347.3,2.7302,3,322,-2.799,-1.074,8.971,1
669,35.512,-97.515,347.2,2.8403,3,322,-2.883,-0.982,9.054,1
670,35.512,-97.515,347.2,2.9104,3,322,-2.843,-1.035,9.093,1
671,35.512,-97.515,347.3,2.9504,3,322,-2.448,-0.608,9.225,1
672,35.512,-97.515,347.3,2.6,3,322,-2.628,-0.772,9.268,1
673,35.512,-97.515,347.2,2.4,3,322,-2.588,-0.785,9.312,1
674,35.512,-97.515,347,2.15,3,322,-2.695,-0.86,9.408,0
675,35.512,-97.515,346.8,1.6901,3,322,-2.438,-0.601,9.526,1
676,35.512,-97.515,346.9,1.211,3,321,-2.79,-1.07,9.305,1
677,35.512,-97.515,346.8,1.0907,3,321,-2.754,-0.84,8.846,1
678,35.512,-97.515,346.8,1.0907,3,321,-2.808,-0.909,9.225,1
679,35.512,-97.515,346.5,0.8,3,321,-3.123,-1.371,8.99,1
680,35.512,-97.515,346.4,1.32,3,321,-3.047,-1.362,8.958,1
681,35.512,-97.515,346.2,1.8301,3,321,-3.061,-1.286,8.933,1
682,35.512,-97.515,346,2.2502,3,321,-2.469,-0.597,9.382,1
683,35.512,-97.515,345.8,1.9101,3,321,-2.651,-0.772,9.302,1
684,35.512,-97.515,345.7,1.6,3,321,-2.506,-0.707,9.12,1
685,35.512,-97.515,345.7,1.2502,3,321,-2.63,-0.787,9.28,1
686,35.512,-97.515,345.6,1.18,3,321,-2.941,-1.373,8.941,1
687,35.512,-97.515,345.6,1.5903,3,320,-2.861,-1.277,9.318,0
688,35.512,-97.515,345.5,1.8207,3,320,-2.988,-1.236,8.865,1
689,35.512,-97.515,345.4,2.1701,3,321,-2.65,-0.855,8.987,1
690,35.512,-97.515,345.4,2.1201,3,321,-2.653,-0.965,9.25,0
691,35.512,-97.515,345.4,1.9502,3,321,-2.867,-1.209,8.659,1
692,35.512,-97.515,345.4,2.1204,3,321,-2.863,-1.282,9.089,1
693,35.512,-97.515,345.4,2.4002,3,321,-2.871,-1.216,9.21,1
694,35.512,-97.515,345.5,2.5805,3,321,-2.79,-1.177,8.861,1
695,35.512,-97.515,345.5,2.7303,3,321,-2.765,-1.15,9.09,0
696,35.512,-97.515,345.5,2.8004,3,321,-2.665,-1.052,9.126,1
697,35.512,-97.515,345.3,2.5902,3,321,-2.652,-1.176,9.192,1
698,35.512,-97.515,345.2,2.6402,3,321,-2.759,-1.187,9.315,1
699,35.512,-97.515,345,2.7202,3,320,-2.635,-1.183,8.99,1
700,35.512,-97.515,344.9,2.7703,3,320,-2.66,-1.166,8.762,1
701,35.512,-97.515,344.8,2.7804,3,320,-2.621,-1.231,9.264,1
702,35.512,-97.515,344.7,2.8402,3,320,-2.63,-1.235,9.11,1
703,35.512,-97.515,344.7,2.8902,3,320,-2.649,-1.259,9.061,0
704,35.512,-97.515,344.7,2.9301,3,320,-2.467,-1.253,9.08,1
705,35.512,-97.515,344.7,2.9402,3,320,-2.586,-1.243,8.91,1
707,35.512,-97.515,344.8,2.9502,3,320,-2.571,-1.234,9.074,1
707,35.512,-97.515,344.8,2.9502,3,320,-2.571,-1.234,9.074,1
708,35.512,-97.515,344.8,2.9701,3,321,-2.627,-1.354,8.755,1
709,35.512,-97.515,344.9,3.24,3,322,-2.987,-1.889,8.727,1
710,35.513,-97.515,344.8,3.6803,3,322,-2.642,-1.427,9.116,1
711,35.513,-97.515,344.7,4.4102,3,322,-2.427,-1.331,9.07,1
712,35.513,-97.515,344.7,4.4802,3,322,-2.496,-1.272,9.253,1
713,35.513,-97.515,344.8,4.48,3,323,-2.424,-1.307,9.185,1
714,35.513,-97.515,344.9,4.45,3,324,-2.014,-0.86,9.204,1
715,35.513,-97.515,345.1,3.9001,3,323,-2.074,-0.977,8.928,1
716,35.513,-97.515,345.2,3.3902,3,323,-2.241,-1.327,9.035,1
717,35.513,-97.515,345.2,3.1204,3,324,-2.254,-1.408,9.164,1
718,35.513,-97.515,345.3,2.8902,3,325,-2.337,-1.366,9.226,1
719,35.513,-97.515,345.3,2.8302,3,325,-2.428,-1.31,8.986,1
720,35.513,-97.515,345.3,2.8302,3,325,-2.37,-1.43,9.034,1
721,35.513,-97.515,345.3,2.8303,3,325,-2.29,-1.532,9.332,1
722,35.513,-97.515,345.3,2.8606,3,325,-2.387,-1.449,9.151,1
723,35.513,-97.516,345.3,3.0804,3,324,-2.546,-1.574,8.862,1
724,35.513,-97.516,345.3,3.1203,3,324,-2.339,-1.478,9.026,1
725,35.513,-97.516,345.2,3.1203,3,324,-2.381,-1.484,9.183,1
726,35.513,-97.516,345.2,3.2003,3,324,-2.493,-1.666,8.999,1
727,35.513,-97.516,345.1,3.3304,3,324,-2.354,-1.485,8.974,0
728,35.513,-97.516,345,3.5405,3,324,-3.158,-2.487,8.524,0
729,35.513,-97.516,344.9,4.7303,3,324,-2.63,-1.955,8.901,1
730,35.513,-97.516,345,5.1302,3,323,-2.417,-1.672,8.851,0
731,35.513,-97.516,345,5.4301,3,323,-2.312,-1.57,9.201,1
732,35.513,-97.516,345.1,5.4801,3,323,-2.367,-1.685,9.138,1
733,35.513,-97.516,345.1,5.5501,3,323,-2.323,-1.595,9.31,1
734,35.513,-97.516,345.1,5.5904,3,323,-2.379,-1.471,8.917,1
735,35.513,-97.516,345,5.5802,3,323,-2.26,-1.593,9.288,1
736,35.513,-97.516,344.9,5.5702,3,324,-2.269,-1.382,8.922,1
737,35.513,-97.516,344.9,5.6102,3,324,-2.697,-2.171,9.264,1
738,35.514,-97.516,345,6.3504,3,323,-2.699,-2.062,8.778,1
739,35.514,-97.516,344.9,6.9403,3,323,-2.349,-1.615,9.24,1
740,35.514,-97.516,344.8,7.0203,3,323,-2.611,-2.045,9.196,1
741,35.514,-97.516,344.8,7.4503,3,323,-2.267,-1.588,8.914,1
742,35.514,-97.516,344.8,7.6203,3,323,-2.723,-1.885,8.569,1
743,35.514,-97.516,344.9,8.0703,3,323,-2.322,-1.604,8.766,1
744,35.514,-97.516,344.9,8.1906,3,323,-2.374,-1.634,9.257,1
745,35.514,-97.516,344.9,8.3004,3,323,-2.245,-1.577,9.237,0
746,35.514,-97.516,345,8.3305,3,323,-2.346,-1.65,9.25,1
747,35.514,-97.516,345,8.3405,3,323,-2.237,-1.52,9.192,1
748,35.514,-97.516,345.1,8.3205,3,322,-1.495,-0.642,9.475,1
749,35.514,-97.516,345.1,7.4808,3,322,-0.673,0.305,10.032,0
750,35.514,-97.516,345.2,5.0304,3,322,-1.792,-0.999,9.361,0
751,35.514,-97.516,345.2,3.0404,3,322,-1.655,-0.816,9.504,1
752,35.514,-97.516,345.2,2.2805,3,322,-2.103,-1.277,9.116,1
753,35.514,-97.516,345.2,1.9304,3,322,-1.93,-1.16,9.731,1
754,35.514,-97.516,345.2,1.3803,3,322,-2.014,-1.235,8.941,1
755,35.514,-97.516,345.2,0.93022,3,322,-2.131,-1.382,9.07,1
756,35.514,-97.516,345.2,0.93022,3,322,-1.884,-1.073,9.327,1
757,35.514,-97.516,345.2,0.16,3,322,-2.49,-1.808,8.974,1
758,35.514,-97.516,345.2,0.16,3,322,-2.602,-1.939,9.008,1
759,35.514,-97.516,345.2,0.16,3,322,-2.882,-2.323,8.66,1
760,35.514,-97.516,345,1.53,3,322,-2.462,-1.885,8.843,1
761,35.514,-97.516,344.9,2.1,3,322,-2.489,-1.726,8.828,1
762,35.514,-97.516,344.7,2.44,3,322,-3.053,-2.437,8.604,1
763,35.515,-97.516,344.5,3.36,3,322,-2.375,-1.611,9.156,1
764,35.515,-97.516,344.5,3.7601,3,322,-2.229,-1.522,9.007,1
765,35.515,-97.516,344.4,3.77,3,322,-2.679,-2.152,8.506,1
766,35.515,-97.516,344.5,4.2801,3,322,-2.943,-2.346,8.827,1
767,35.515,-97.516,344.6,5.1,3,323,-3.009,-2.409,8.762,1
769,35.515,-97.516,344.8,6.21,3,323,-2.897,-2.33,8.781,1
769,35.515,-97.516,344.8,6.21,3,323,-2.897,-2.33,8.781,1
770,35.515,-97.516,345.3,7.28,3,323,-2.145,-1.613,9.046,1
771,35.515,-97.516,345.6,7.52,4,323,-2.128,-1.592,9.09,1
772,35.515,-97.516,345.7,7.52,4,323,-2.24,-1.628,8.86,1
773,35.515,-97.516,345.6,7.5201,4,322,-2.134,-1.648,9.117,0
774,35.515,-97.516,345.2,7.4701,3,322,-2.194,-1.604,9.299,1
775,35.515,-97.516,344.9,7.4201,3,322,-2.383,-1.483,9.124,1
776,35.515,-97.516,344.8,7.3902,3,322,-2.244,-1.54,8.916,1
777,35.515,-97.516,344.8,7.3401,3,322,-2.396,-1.681,8.846,1
778,35.515,-97.516,344.9,7.4702,3,322,-2.407,-1.84,8.684,1
779,35.515,-97.516,345.1,8.3401,3,322,-2.931,-2.091,9.001,1
780,35.516,-97.516,345.2,9.2703,3,321,-2.921,-2.533,8.461,1
781,35.516,-97.516,345.3,10.22,3,321,-2.772,-2.417,8.217,1
782,35.516,-97.516,345.3,10.56,3,321,-2.055,-1.315,9.078,1
783,35.516,-97.516,345.5,10.31,3,320,-2.075,-1.208,8.838,1
784,35.516,-97.516,345.5,9.9802,3,320,-1.878,-1.273,9.036,1
785,35.516,-97.516,345.5,9.6202,3,320,-2.323,-1.515,8.92,1
786,35.516,-97.517,345.4,9.6002,3,320,-2.432,-1.917,9.022,1
787,35.516,-97.517,345.1,10.13,3,320,-2.574,-2.26,8.516,0
788,35.516,-97.517,344.8,10.64,3,320,-2.037,-1.325,8.78,0
789,35.516,-97.517,344.5,10.41,3,320,-1.73,-0.878,9.18,1
790,35.516,-97.517,344.5,9.4406,3,320,-1.412,-0.315,9.91,0
791,35.516,-97.517,344.8,7.7805,3,320,-1.149,-0.422,9.757,1
792,35.517,-97.517,345,6.1707,3,319,-1.3,-0.308,9.657,0
793,35.517,-97.517,345.1,4.7707,3,322,-1.654,-0.767,9.597,1
794,35.517,-97.517,345.3,3.7105,3,322,-1.764,-0.953,9.594,1
795,35.517,-97.517,345.4,2.8802,3,322,-2.065,-1.243,9.381,1
796,35.517,-97.517,345.4,2.5102,3,322,-2.022,-1.361,9.441,1
797,35.517,-97.517,345.4,2.2402,3,322,-1.951,-1.217,9.466,1
798,35.517,-97.517,345.3,1.7503,3,322,-2.172,-1.305,9.14,1
799,35.517,-97.517,345.3,1.47,3,321,-2.204,-1.586,9.031,1
800,35.517,-97.517,345.3,1.45,3,321,-2.073,-1.21,9.123,1
801,35.517,-97.517,345.3,1.12,3,321,-2.054,-1.285,9.209,1
802,35.517,-97.517,345.3,1.12,3,321,-2.082,-1.396,9.227,1
803,35.517,-97.517,345.3,0.5,3,321,-2.143,-1.354,9.081,1
804,35.517,-97.517,345.3,0.5,3,321,-2.363,-1.633,8.931,1
805,35.517,-97.517,345.3,0.5,3,321,-2.091,-1.319,9.125,1
806,35.517,-97.517,345.3,0.5,3,321,-2.263,-1.533,9.038,1
807,35.517,-97.517,345.3,0.5,3,321,-2.627,-1.98,8.773,1
808,35.517,-97.517,345.3,0.67007,3,322,-2.559,-1.95,8.945,1
809,35.517,-97.517,345.3,1.21,3,321,-2.529,-1.856,9.071,1
810,35.517,-97.517,345.3,1.65,3,321,-2.478,-1.831,9.248,1
811,35.517,-97.517,345.3,2.0301,3,321,-2.531,-1.957,9.004,1
812,35.517,-97.517,345.2,2.5203,3,321,-3.124,-2.548,8.652,1
813,35.517,-97.517,345.2,3.7605,3,321,-2.871,-2.324,8.823,1
814,35.517,-97.517,345.2,4.8504,3,320,-2.816,-2.121,8.735,1
815,35.517,-97.517,345.1,5.6607,3,320,-2.279,-1.647,9.201,1
816,35.517,-97.517,345.2,5.8107,3,320,-2.174,-1.519,9.039,1
817,35.517,-97.517,345.4,5.8507,3,320,-2.192,-1.552,9.069,1
818,35.517,-97.517,345.7,5.8605,3,320,-2.287,-1.491,9.184,1
819,35.517,-97.517,346,5.8509,3,319,-2.147,-1.485,8.808,1
820,35.517,-97.517,346.2,5.8512,3,320,-2.228,-1.519,9.174,0
821,35.517,-97.517,345.9,5.8405,3,320,-2.681,-2.121,8.769,1
822,35.517,-97.517,345.5,6.2008,3,319,-2.293,-1.835,9.043,1
823,35.517,-97.517,345.2,6.8714,3,319,-2.192,-1.63,9.127,1
824,35.517,-97.517,345.1,6.9912,3,319,-2.163,-1.596,9.093,1
825,35.517,-97.517,345.1,7.0612,3,319,-2.184,-1.602,9.199,1
826,35.518,-97.517,345.2,7.091,3,319,-2.041,-1.795,9.246,1
828,35.518,-97.517,345.4,7.1314,3,319,-2.04,-1.611,9.162,1
828,35.518,-97.517,345.4,7.1314,3,319,-2.04,-1.611,9.162,1
829,35.518,-97.517,345.6,7.1414,3,319,-1.909,-1.683,9.083,1
830,35.518,-97.517,345.8,7.1623,3,318,-2.127,-1.625,9.246,1
831,35.518,-97.517,346.2,7.2116,3,318,-1.903,-1.722,8.686,0
832,35.518,-97.517,346.6,7.2514,3,318,-2.095,-1.732,9.12,1
833,35.518,-97.517,347,7.2602,3,318,-1.94,-1.747,9.09,1
834,35.518,-97.517,347.4,7.2601,3,318,-1.634,-1.205,8.87,1
835,35.518,-97.517,347.9,6.8401,3,318,-1.179,-0.724,9.493,1
836,35.518,-97.517,348.3,6.0102,3,318,-0.851,-0.668,9.602,1
837,35.518,-97.517,348.7,4.6205,3,318,-1.192,-0.864,9.47,1
838,35.518,-97.517,349.1,2.2402,3,318,-1.338,-1.094,9.234,1
839,35.518,-97.517,349.2,1.74,3,317,-2.032,-1.747,9.043,1
840,35.518,-97.517,349.3,1.9602,3,317,-2.114,-2.019,8.821,1
841,35.518,-97.517,349.5,2.2502,3,317,-2.034,-1.898,9.09,1
842,35.518,-97.517,349.6,2.2406,3,317,-1.87,-1.81,8.868,1
843,35.518,-97.517,349.8,2.3303,3,317,-2.057,-1.87,9.224,1
844,35.518,-97.517,350,2.4902,3,317,-1.996,-1.932,8.961,1
845,35.518,-97.517,350.2,2.7802,3,317,-2.659,-2.542,8.697,1
846,35.518,-97.517,350.7,3.3804,3,317,-2.072,-1.995,9.11,1
847,35.518,-97.517,351.3,3.6803,3,317,-2.261,-2.235,8.627,1
848,35.518,-97.517,351.7,4.0902,3,317,-1.991,-1.806,9.15,1
849,35.518,-97.517,352.1,4.1202,3,317,-1.927,-1.798,9.04,1
850,35.518,-97.517,352.5,4.12,3,317,-1.839,-1.831,9.266,1
851,35.519,-97.517,352.8,4.0704,3,317,-1.837,-1.711,9.31,1
852,35.519,-97.517,353,4.0002,3,317,-1.972,-1.73,9.412,1
853,35.519,-97.517,353.2,4.34,3,316,-1.901,-1.989,9.081,1
854,35.519,-97.517,353.5,4.7607,3,316,-2.501,-2.528,8.832,1
855,35.519,-97.517,354,5.4008,3,316,-2.614,-2.544,8.722,1
856,35.519,-97.517,354.4,6.1308,3,316,-2.162,-1.9,9.134,1
857,35.519,-97.517,354.9,6.361,3,316,-2.155,-1.778,8.762,1
858,35.519,-97.517,355.5,6.6409,3,316,-2.03,-1.77,8.976,1
859,35.519,-97.517,355.9,6.7305,3,316,-1.889,-1.762,8.329,1
860,35.519,-97.517,356,6.9607,3,316,-2.173,-1.936,8.605,1
861,35.519,-97.517,356.6,7.3208,3,316,-2.245,-1.938,8.953,0
862,35.519,-97.517,357.4,7.7413,3,316,-2.135,-1.633,8.932,1
863,35.519,-97.517,358,7.9309,3,316,-2.674,-2.416,9.179,0
864,35.519,-97.517,358.7,8.3802,3,315,-2.11,-1.812,9,1
865,35.519,-97.517,359.3,8.6207,3,316,-2.065,-1.71,8.987,1
866,35.519,-97.517,0,8.7713,3,315,-2.249,-2.25,9.18,1
867,35.519,-97.517,0.7,9.1812,3,315,-2.481,-2.246,8.792,1
868,35.52,-97.517,1.2,9.6013,3,314,-2.182,-1.741,8.571,1
869,35.52,-97.517,1.8,9.6813,3,314,-2.079,-1.949,9.116,1
870,35.52,-97.517,2.5,9.8818,3,314,-2.041,-1.699,9.237,1
871,35.52,-97.517,3.2,10.022,3,314,-2.189,-1.688,9.031,1
872,35.52,-97.517,4,10.071,3,314,-2.044,-1.636,8.993,0
873,35.52,-97.517,4.7,10.162,3,314,-2.104,-1.847,8.9,1
874,35.52,-97.517,5.4,10.442,3,313,-2.104,-1.733,9.025,1
875,35.52,-97.517,6.3,10.492,3,313,-2.059,-1.724,8.964,1
876,35.52,-97.517,6.9,10.521,3,313,-2.182,-1.743,9.014,1
877,35.52,-97.517,7.7,10.591,3,313,-2.129,-1.631,9.034,1
878,35.52,-97.517,8.5,10.672,3,313,-2.159,-1.497,8.576,0
879,35.521,-97.517,9.2,10.742,3,313,-1.126,-0.145,9.714,1
880,35.521,-97.517,10.1,10.251,3,313,-1.175,-0.467,9.79,0
881,35.521,-97.517,11.2,8.4102,3,314,-2.03,-1.58,8.904,1
882,35.521,-97.517,12.1,8.291,3,314,-1.923,-1.699,8.872,1
883,35.521,-97.517,12.8,8.2307,3,314,-2.032,-1.682,9.198,1
884,35.521,-97.517,12.9,8.1004,3,314,-2.112,-1.73,9.174,1
885,35.521,-97.517,13,8.0802,3,314,-2.11,-1.734,9.189,1
886,35.521,-97.517,13.1,8.0301,3,314,-2.059,-1.553,8.902,1
887,35.521,-97.517,13.3,8.11,3,315,-2.13,-1.607,9.077,1
889,35.521,-97.517,13.5,8.06,3,315,-2.17,-1.592,9.213,1
889,35.521,-97.517,13.5,8.06,3,315,-2.17,-1.592,9.213,1
890,35.521,-97.517,13.6,8.01,3,315,-2.249,-1.662,9.246,1
891,35.521,-97.517,13.8,7.97,3,315,-2.281,-1.754,9.419,1
892,35.521,-97.517,14.1,7.99,3,315,-2.388,-1.822,9.017,1
893,35.522,-97.517,14.4,8.16,3,315,-2.377,-1.813,8.88,1
894,35.522,-97.517,14.7,8.39,3,315,-2.531,-1.861,9.051,1
895,35.522,-97.517,15.1,8.61,3,315,-2.742,-2.107,8.703,0
896,35.522,-97.517,15.6,9.0801,3,315,-2.696,-2.296,8.827,1
897,35.522,-97.517,15.9,9.6103,3,315,-2.681,-2.035,8.651,0
898,35.522,-97.517,16.2,9.9701,3,315,-2.899,-2.375,9.161,0
899,35.522,-97.517,16.6,10.61,3,315,-2.504,-1.889,8.753,1
900,35.522,-97.517,17.2,11.25,3,316,-2.316,-1.516,8.949,0
901,35.522,-97.517,17.5,11.13,3,315,-2.467,-1.969,9.02,0
902,35.522,-97.517,17.9,11.4,3,316,-2.528,-1.83,9.072,1
903,35.523,-97.517,18.2,11.531,3,316,-2.29,-1.617,9.452,1
904,35.523,-97.517,18.8,11.42,3,316,-2.349,-1.598,9.414,1
905,35.523,-97.517,19.2,11.301,3,316,-2.427,-1.969,8.883,1
906,35.523,-97.516,19.6,11.522,3,317,-2.676,-2.08,9.055,0
907,35.523,-97.516,20.1,11.902,3,317,-2.239,-1.661,9.366,0
908,35.523,-97.516,20.2,11.812,3,317,-2.421,-2.118,9.68,0
909,35.523,-97.516,20.3,11.742,3,317,-2.427,-1.716,9.587,0
910,35.523,-97.516,20.6,11.542,3,318,-2.434,-1.569,9.534,0
911,35.523,-97.516,21.4,11.041,3,318,-1.917,-1.036,9.466,0
912,35.523,-97.516,22.2,10.022,3,318,-1.463,-0.706,9.326,1
913,35.523,-97.516,22.9,9.1824,3,318,-2.277,-1.56,9.056,1
914,35.524,-97.516,23.5,8.831,3,318,-1.83,-1.176,9.053,0
915,35.524,-97.516,23.8,7.9209,3,318,-1.546,-0.909,9.376,1
916,35.524,-97.516,23.7,6.7506,3,319,-2.154,-1.565,9.114,1
917,35.524,-97.516,23.6,6.4208,3,319,-2.234,-1.519,9.064,1
918,35.524,-97.516,23.5,6.1508,3,319,-2.367,-1.788,8.924,1
919,35.524,-97.516,23.4,5.6206,3,319,-1.344,-0.73,9.616,1
920,35.524,-97.516,23.4,4.1806,3,319,-1.664,-1.119,9.263,1
921,35.524,-97.516,23.4,3.1206,3,319,-1.54,-0.927,9.589,1
922,35.524,-97.516,23.4,2.1004,3,319,-1.997,-1.647,9.208,1
923,35.524,-97.516,23.5,1.7807,3,320,-2.325,-1.93,8.619,1
924,35.524,-97.516,23.5,1.8707,3,320,-2.296,-1.923,8.869,1
925,35.524,-97.516,23.6,1.9509,3,320,-2.29,-1.935,9.262,1
926,35.524,-97.516,23.8,1.9909,3,320,-2.265,-1.846,8.828,1
927,35.524,-97.516,24,2.0312,3,321,-2.24,-1.946,9.254,1
928,35.524,-97.516,24.3,2.0316,3,321,-2.248,-1.911,9.211,1
929,35.524,-97.516,24.6,2.0212,3,321,-2.41,-2.027,9.053,1
930,35.524,-97.516,24.9,2.1711,3,321,-2.906,-2.6,8.722,1
931,35.524,-97.516,25.2,2.9521,3,321,-2.724,-2.474,8.793,1
932,35.524,-97.516,25.8,3.5214,3,321,-2.259,-1.696,8.871,1
933,35.524,-97.516,26.3,3.5005,3,320,-2.365,-1.793,9.017,1
934,35.524,-97.516,26.9,3.4605,3,321,-2.078,-1.538,8.973,1
935,35.524,-97.516,27.5,3.2001,3,319,-1.975,-1.685,9.224,1
936,35.524,-97.516,28.1,2.9402,3,320,-1.942,-1.686,8.947,1
937,35.524,-97.516,28.2,2.6903,3,320,-1.832,-1.507,9.244,1
938,35.524,-97.516,28.3,2.3502,3,320,-1.867,-1.585,9.211,1
939,35.524,-97.516,28.3,1.9004,3,320,-1.913,-1.666,9.3,1
940,35.524,-97.516,28.4,1.5908,3,320,-2.122,-1.824,9.142,1
941,35.524,-97.516,28.4,1.2802,3,320,-2.254,-2.077,8.921,1
942,35.524,-97.516,28.4,1.5105,3,320,-2.732,-2.563,8.727,1
943,35.524,-97.516,28.3,1.9401,3,319,-3.049,-2.984,8.362,1
944,35.524,-97.516,28.2,3.4604,3,319,-3.194,-3.038,8.482,1
945,35.524,-97.516,27.9,4.9108,3,319,-2.309,-1.877,8.921,1
946,35.524,-97.516,28,5.191,3,320,-2.789,-2.607,8.646,1
947,35.524,-97.516,28,5.8617,3,320,-2.297,-1.824,8.796,1
948,35.524,-97.516,27.8,6.3711,3,320,-2.177,-1.777,9.176,1
949,35.525,-97.516,28,6.3418,3,320,-2.563,-2.006,8.748,1
951,35.525,-97.515,28.2,6.4522,3,321,-2.813,-1.993,8.952,1
951,35.525,-97.515,28.2,6.4522,3,321,-2.813,-1.993,8.952,1
952,35.525,-97.515,28.8,6.8214,3,321,-2.432,-1.518,9.345,1
953,35.525,-97.515,29.5,6.7721,3,321,-2.926,-2.029,8.671,1
954,35.525,-97.515,30.1,6.9614,3,321,-2.661,-1.694,8.924,1
955,35.525,-97.515,30.6,7.6513,3,322,-2.271,-1.577,9.126,1
956,35.525,-97.515,30.7,7.6209,3,322,-2.414,-1.414,9.006,1
957,35.525,-97.515,30.2,7.5605,3,322,-2.395,-1.402,8.943,1
958,35.525,-97.515,29.8,7.4708,3,322,-2.381,-1.647,8.879,1
959,35.525,-97.515,28.9,7.4107,3,322,-2.46,-1.644,9.041,1
960,35.525,-97.515,27.9,7.4704,3,322,-2.667,-1.559,8.96,1
961,35.525,-97.515,27.2,7.5901,3,322,-2.445,-1.584,9.203,1
962,35.525,-97.515,25.9,7.8906,3,321,-2.644,-1.669,8.941,1
963,35.525,-97.515,25.1,8.0302,3,321,-2.433,-1.684,8.978,1
964,35.525,-97.515,24,8.2601,3,321,-2.39,-1.755,8.563,0
965,35.526,-97.515,22.7,8.5308,3,321,-2.471,-1.788,8.833,0
966,35.526,-97.515,21.7,8.8803,3,321,-2.482,-1.93,9.067,0
967,35.526,-97.515,20.6,9.09,3,321,-2.478,-1.373,9.252,0
968,35.526,-97.515,19.8,9.1911,3,320,-2.889,-1.467,8.795,0
969,35.526,-97.515,19.3,9.4608,3,320,-2.722,-1.476,9.267,1
970,35.526,-97.515,18.9,9.5605,3,320,-2.766,-1.269,9.286,0
971,35.526,-97.515,18.1,9.3709,3,320,-2.25,-0.825,9.194,0
972,35.526,-97.515,16.9,8.9206,3,320,-2.585,-0.978,8.97,1
973,35.526,-97.515,15.7,8.8308,3,320,-2.42,-0.459,9.337,0
974,35.526,-97.515,15.4,7.9308,3,320,-1.794,0.366,9.528,0
975,35.526,-97.515,15.6,6.1912,3,319,-1.569,0.347,9.569,0
976,35.526,-97.515,15.7,4.9104,3,319,-2.447,-0.522,9.393,1
977,35.526,-97.515,15.4,4.4301,3,319,-2.221,-0.419,9.438,1
978,35.526,-97.515,15.2,3.73,3,319,-2.211,-0.496,9.261,1
979,35.526,-97.515,14.9,3.16,3,319,-2.417,-0.707,9.263,1
980,35.526,-97.515,14.3,2.59,3,319,-2.578,-0.859,9.148,1
981,35.526,-97.515,13.9,1.9701,3,319,-2.599,-0.879,9.339,1
982,35.526,-97.515,13.6,1.6103,3,319,-2.375,-0.734,9.434,1
983,35.526,-97.515,13.3,1.45,3,319,-3.053,-1.472,9.141,1
984,35.526,-97.515,13,1.89,3,319,-3.002,-1.338,9.019,1
985,35.527,-97.514,12.5,2.38,3,319,-2.831,-1.376,9.037,1
986,35.527,-97.514,12,2.67,3,319,-3.111,-1.671,8.763,1
987,35.527,-97.514,11.3,3.35,3,318,-3.528,-2.06,8.731,1
988,35.527,-97.514,10.7,4.6702,3,319,-3.594,-2.048,8.617,1
989,35.527,-97.514,10.5,6.0705,3,318,-3.663,-2.135,8.45,1
990,35.527,-97.514,10.7,7.6609,3,318,-3.502,-1.676,8.557,1
991,35.527,-97.514,11.5,8.6011,3,318,-3.211,-1.013,8.927,1
992,35.527,-97.514,14.4,9.0022,3,318,-2.992,-2.086,8.673,1
993,35.527,-97.514,15.5,9.9916,3,318,-3.011,-2.975,8.093,1
994,35.527,-97.514,13.9,11.761,3,318,-2.452,-3.275,8.449,1
995,35.527,-97.514,10.5,13.24,3,318,-2.727,-2.643,8.362,1
996,35.527,-97.514,8.4,14.53,3,318,-2.11,-1.224,8.76,0
997,35.527,-97.514,8.8,14.66,3,318,-3.452,-0.389,8.821,0
998,35.528,-97.514,13.2,14.34,3,318,-3.307,-0.275,9.265,0
999,35.528,-97.514,20.6,13.94,3,318,-3.551,-0.005,8.369,0
1000,35.528,-97.514,29.1,13.58,3,318,-4.352,-0.378,10.23,0
1001,35.528,-97.514,37.5,13.441,3,319,-3.762,-0.64,9.288,0
1002,35.528,-97.514,45.9,13.43,3,319,-3.481,-1.137,7.751,0
1003,35.528,-97.514,53.3,13.852,3,318,-3.188,-2.289,9.073,0
1004,35.528,-97.514,56.7,14.991,3,318,-2.829,-2.516,7.869,0
1005,35.528,-97.514,57.9,16.173,3,318,-2.991,-2.356,8.003,0
1006,35.528,-97.513,58.3,17.061,3,318,-3.282,-2.815,8.648,0
1007,35.528,-97.513,58.5,18.623,3,318,-2.899,-2.047,8.72,0
1008,35.528,-97.513,58.2,20.073,3,317,-2.75,-2.01,9.927,0
1009,35.529,-97.513,58.5,20.855,3,317,-2.351,-1.411,9.485,0
1010,35.529,-97.513,58.5,20.793,3,317,-2.444,-1.528,8.772,0
1011,35.529,-97.512,58.7,21.012,3,316,-2.064,-1.083,8.434,0
1012,35.529,-97.512,58.7,21.075,3,316,-2.077,-0.98,8.425,0
1014,35.529,-97.512,58.5,20.884,3,315,-2.483,-1.142,9.7,0
1014,35.529,-97.512,58.5,20.884,3,315,-2.483,-1.142,9.7,0
1015,35.529,-97.512,59.2,20.684,3,315,-2.126,-1.105,9.812,0
1016,35.529,-97.512,59.5,20.091,3,315,-2.3,0.021,10.52,0
1017,35.529,-97.511,61.8,19.02,3,315,-2.444,2.01,9.469,0
1018,35.529,-97.511,68.6,17.13,3,315,0.417,2.298,10.445,0
1019,35.529,-97.511,75.7,14.84,4,315,1.027,1.993,10.493,0
1020,35.529,-97.511,82.5,11.61,4,316,-1.938,-1.295,8.859,0
1021,35.529,-97.511,82.8,7.8806,4,318,-4.397,-2.973,7.719,0
1022,35.529,-97.511,85.6,8.9709,3,318,-4.309,-3.221,8.145,0
1023,35.529,-97.511,88.3,11.671,3,318,-4.183,-3.57,8.32,0
1024,35.529,-97.511,88.8,14.22,3,318,-3.829,-3.696,8.106,0
1025,35.529,-97.51,88.2,16.62,3,318,-3.791,-3.528,8.129,0
1026,35.529,-97.51,87.1,18.9,3,318,-3.373,-3.263,7.692,0
1027,35.529,-97.51,86.5,21.03,3,318,-3.864,-2.685,9.026,0
1028,35.529,-97.51,87.2,22.99,3,318,-3.206,-3.233,8.569,0
1029,35.529,-97.509,87.9,24.55,3,318,-2.488,-1.199,9.214,0
1030,35.529,-97.509,88.8,24.64,3,318,-2.121,-1.524,9.192,0
1031,35.529,-97.509,89,24.42,3,318,-2.833,-1.53,9.052,0
1032,35.529,-97.509,89.8,24.59,3,318,-2.766,-2.13,9.377,0
1033,35.529,-97.508,90,24.93,3,318,-2.306,-1.641,8.776,0
1034,35.529,-97.508,90.3,25.25,3,319,-3.134,-2.528,8.618,1
1035,35.529,-97.508,90.3,26.44,3,319,-2.412,-2.181,8.998,0
1036,35.529,-97.507,90.2,26.75,3,319,-2.365,-1.327,9.555,0
1037,35.529,-97.507,90.1,26.43,3,319,-1.983,-1.229,9.327,0
1038,35.529,-97.507,90.3,26.18,3,319,-2.989,-0.344,9.156,0
1039,35.529,-97.507,93.1,25.82,3,319,-3.174,-0.913,8.768,0
1040,35.529,-97.506,96.2,25.91,3,319,-4.619,-0.114,7.89,0
1041,35.529,-97.506,100.6,26.491,3,319,-3.898,-0.145,10.22,0
1042,35.529,-97.506,105.7,26.31,3,319,-4.152,-0.068,10.135,0
1043,35.529,-97.505,111.9,25.684,3,320,-4.132,0.108,9.522,0
1044,35.529,-97.505,118.4,24.927,3,322,-3.944,-0.267,8.092,0
1045,35.529,-97.505,124.1,24.319,3,324,-4.122,-0.155,9.262,0
1046,35.529,-97.505,130.3,23.628,3,326,-3.744,-0.418,8.132,0
1047,35.529,-97.505,135.8,23.116,3,326,-3.562,-0.594,8.711,0
1048,35.529,-97.504,141.7,23.203,3,325,-3.852,-0.837,9.155,0
1049,35.528,-97.504,147.9,23.6,3,327,-4.814,0.023,7.794,0
