time,lat,lng,bearing,spd,acc,alt,accx,accy,accz,stable
0,35.20468399,-97.41999164,1.9,5.65,4.5509996,325,-0.115,1.711,9.432,1
1,35.20473574,-97.41999082,359.7,5.62,4.5509996,326,-0.128,1.689,9.352,1
2,35.20483101,-97.41998558,0.3,5.37,4.5509996,326,-0.119,1.668,9.374,1
3,35.20488452,-97.41998261,0,5.59,4.5509996,325,-0.084,2.455,9.273,1
4,35.20494504,-97.41997852,1.2,6.28,4.5509996,325,-0.133,2.339,9.23,1
5,35.20500932,-97.41997924,0.2,6.9,4.5509996,325,-0.164,2.249,9.366,1
6,35.20508064,-97.41997685,359.5,7.27,4.5509996,324,-0.195,2.125,9.309,1
7,35.20514911,-97.41997754,0.6,7.53,4.5509996,325,-0.15,2.07,9.389,1
8,35.20521817,-97.41998138,0.2,7.61,4.5509996,325,-0.128,1.915,9.385,1
9,35.20529219,-97.41998275,359.7,7.82,4.5509996,325,-0.164,1.769,9.359,1
10,35.20536448,-97.41998396,359.7,7.63,4.5509996,325,-0.162,0.924,9.712,1
11,35.20542058,-97.41998461,357.8,6.13,4.5509996,323,-0.197,0.478,9.734,1
12,35.20546664,-97.41997255,349.4,5.05,4.5509996,322,-1.478,1.263,9.649,1
13,35.20550732,-97.41998917,322.9,5.15,4.5509996,321,-2.39,1.409,9.599,1
14,35.20553614,-97.42003956,300.8,5.93,6.068,323,-2.054,1.752,9.432,1
15,35.20556264,-97.42010439,288.7,5.96,7.585,322,-1.33,2.254,9.358,0
16,35.2055808,-97.42017009,276.4,5.7,6.068,321,-0.69,2.419,9.252,0
17,35.20559493,-97.42024084,273.8,6.21,6.068,320,-0.412,2.42,9.171,0
18,35.20560234,-97.42034044,273.2,6.96,6.068,320,-0.224,2.468,9.218,0
19,35.20560451,-97.42043416,271.9,7.02,7.585,322,-0.228,1.943,9.307,0
20,35.20560474,-97.42050371,271.1,6.88,7.585,321,-0.208,1.802,9.485,0
21,35.20560296,-97.42058651,270.7,6.89,7.585,322,-0.143,2.032,9.259,0
22,35.20560372,-97.42066227,270.7,6.89,9.101999,321,-0.186,2.389,9.236,0
23,35.2055999,-97.42075545,269.7,8.04,7.585,321,-0.128,2.331,9.276,0
24,35.20560318,-97.42085254,269.3,8.3,7.585,319,-0.137,2.231,9.278,1
25,35.20560288,-97.42094159,270,8.69,7.585,319,-0.044,2.1,9.277,1
26,35.20560292,-97.42103703,270,8.69,9.101999,319,-0.094,2.072,9.363,1
27,35.20560079,-97.42113847,271,9.18,7.585,319,0.146,1.874,9.314,1
29,35.20560299,-97.42125111,270.9,9.16,9.101999,319,-0.277,1.863,9.375,1
30,35.20560151,-97.4213534,269.8,9.16,7.585,319,-0.296,1.851,9.38,1
31,35.20559803,-97.4214506,269.1,8.9,7.585,319,-0.214,1.813,9.487,1
32,35.2055956,-97.42154563,268.6,9.01,6.068,318,-0.076,1.829,9.491,1
33,35.20559347,-97.42164411,269.2,9,6.068,319,-0.033,1.814,9.422,1
34,35.20559619,-97.42172792,269.3,8.9,6.068,318,-0.032,1.796,9.402,1
35,35.20559256,-97.42183065,269.3,9.01,6.068,318,0.001,1.714,9.326,1
36,35.20559586,-97.42192603,269.6,8.79,6.068,318,-0.219,1.748,9.297,1
37,35.20558999,-97.42202454,267.1,8.86,4.5509996,318,-0.391,1.664,9.344,1
38,35.20558457,-97.42211548,265.1,8.78,4.5509996,318,-0.186,1.677,9.398,1
39,35.20557428,-97.42221205,264.5,8.65,4.5509996,319,0.318,1.643,9.425,1
40,35.20556933,-97.42230178,268.4,8.5,4.5509996,320,0.544,1.648,9.433,1
41,35.20557779,-97.42239384,272.8,8.54,4.5509996,319,0.677,1.684,9.53,1
42,35.20557663,-97.42248796,274.6,8.37,4.5509996,318,0.263,1.701,9.371,1
43,35.20558215,-97.42256825,273.7,8.25,6.068,317,-0.188,1.792,9.372,1
44,35.20557939,-97.42266322,272.3,8.44,6.068,317,-0.223,1.806,9.412,1
48,35.20558507,-97.42303682,269.6,8.24,6.068,316,-0.052,1.639,9.453,1
49,35.20557389,-97.42314313,269.6,8,6.068,317,-0.094,1.068,9.606,1
50,35.20557332,-97.42323102,269.6,8,7.585,317,-0.152,0.967,9.605,1
51,35.20557614,-97.42329725,270,6.22,6.068,317,-0.117,0.912,9.724,1
52,35.20557559,-97.42335455,269.8,5.51,4.5509996,317,-0.112,0.583,9.749,1
53,35.20557374,-97.42339631,270.8,4.85,4.5509996,316,-0.133,0.473,9.82,1
54,35.20557198,-97.42342717,270.5,3.63,6.068,315,-0.096,1.106,9.614,1
55,35.20556972,-97.42344607,270.5,2.38,6.068,314,-0.003,1.148,9.568,1
56,35.20557448,-97.42347201,272.1,1.91,6.068,315,0.096,1.711,9.408,1
57,35.20557544,-97.42349524,269.1,2.07,6.068,316,0.171,1.696,9.442,1
58,35.20558252,-97.42352558,279.5,2.45,6.068,315,1.194,2.255,9.186,1
59,35.20558619,-97.42355213,279.5,2.45,10.6189995,315,2.437,2.792,8.996,1
60,35.20564672,-97.42357861,326.9,4.56,9.101999,315,2.066,3.215,8.875,1
61,35.20570913,-97.42357719,353.7,6.2,7.585,315,0.711,3.359,8.932,1
62,35.20577344,-97.42359148,359.3,7.93,7.585,321,-0.013,3.119,9.015,1
63,35.20584498,-97.4235926,359.3,7.93,9.101999,321,-0.097,2.973,9.094,1
64,35.20593548,-97.42358146,2.5,9.15,12.136,320,-0.171,2.827,9.086,1
65,35.20603694,-97.42358303,1.3,11.08,10.6189995,320,-0.164,2.735,9.112,1
66,35.20613677,-97.42358034,1.3,11.07,15.17,319,-0.174,2.748,9.196,1
67,35.20628015,-97.42360531,359,13.27,9.101999,318,-0.054,2.758,9.158,1
68,35.20639974,-97.42360781,359,13.27,12.136,318,-0.054,2.675,9.149,1
69,35.20653836,-97.42361735,0.6,14.37,12.136,317,-0.125,2.623,9.207,1
70,35.20670304,-97.42362439,0.3,16.02,7.585,315,-0.14,2.574,9.239,1
71,35.20684743,-97.42362359,0.3,16.02,9.101999,315,-0.142,2.523,9.19,1
72,35.20699546,-97.42360768,1.2,16.71,9.101999,314,-0.324,2.477,9.188,1
73,35.20716161,-97.42359862,0.9,17.89,7.585,314,-0.575,2.46,9.22,1
74,35.20733038,-97.42358936,1,18.21,7.585,314,-0.511,2.425,9.288,1
75,35.2075045,-97.4235965,358.8,18.92,7.585,314,-0.143,2.363,9.233,1
76,35.20768516,-97.42360604,358.4,19.84,9.101999,316,-0.033,2.348,9.227,1
77,35.20786079,-97.42359873,357.7,20.62,7.585,318,0.263,2.303,9.242,1
78,35.20804653,-97.4236077,357.7,20.62,7.585,318,0.119,2.292,9.26,1
79,35.20826111,-97.42362943,359.9,21.67,7.585,314,0.003,1.829,9.444,1
80,35.20845997,-97.42362838,0.2,21.78,7.585,314,-0.15,1.445,9.485,1
81,35.20864278,-97.42361918,0,21.34,7.585,319,-0.216,1.336,9.534,1
82,35.20883263,-97.42361281,359.8,21.03,7.585,316,-0.136,1.299,9.537,1
83,35.20901552,-97.42361273,359.7,20.49,7.585,315,-0.166,1.296,9.539,1
84,35.20918792,-97.42361008,0,19.88,6.068,314,-0.203,1.296,9.52,1
85,35.20936281,-97.42361226,359.9,19.58,6.068,312,-0.207,1.309,9.528,1
86,35.20953066,-97.42359881,359.9,18.74,6.068,312,-0.132,1.303,9.531,1
87,35.20970302,-97.42360524,359.6,18.54,6.068,312,-0.09,1.315,9.533,1
88,35.20986528,-97.42361038,359.8,17.99,7.585,313,-0.105,1.323,9.515,1
89,35.21002598,-97.42361575,359.9,17.66,7.585,313,-0.098,1.33,9.505,1
90,35.21018691,-97.42362006,359.8,17.32,7.585,313,-0.083,1.732,9.404,1
91,35.21048706,-97.42360929,1.3,17.17,6.068,316,-0.104,1.939,9.318,1
92,35.21064175,-97.42360489,1.3,17.16,7.585,315,-0.147,1.969,9.338,1
93,35.21080653,-97.42361319,1,17.67,6.068,313,-0.293,1.926,9.356,1
94,35.2109658,-97.42360987,1,17.67,7.585,312,-0.333,1.796,9.391,1
95,35.21113086,-97.42361265,359.9,17.84,6.068,310,-0.254,1.774,9.374,1
96,35.21129404,-97.42361851,359.8,17.97,6.068,310,-0.126,1.77,9.417,1
97,35.21146019,-97.42362428,359.9,18.09,6.068,310,-0.083,1.774,9.448,1
98,35.21162527,-97.4236242,0.4,18.23,7.585,311,-0.076,1.771,9.437,1
99,35.21178961,-97.4236227,0.4,18.23,9.101999,311,-0.195,1.766,9.399,1
100,35.21194764,-97.42363344,359.9,18.38,9.101999,311,-0.219,1.777,9.384,1
101,35.21212458,-97.42363251,359.7,18.61,7.585,310,-0.161,1.806,9.407,1
102,35.21228783,-97.42362051,0.1,18.86,7.585,312,-0.059,1.839,9.387,1
103,35.21245783,-97.42362012,0.1,18.86,9.101999,312,-0.092,1.81,9.364,1
104,35.21264465,-97.42363321,0.3,19.15,9.101999,312,-0.09,1.818,9.399,1
105,35.21281093,-97.42363644,0.4,19.34,7.585,313,-0.143,1.817,9.41,1
106,35.21298368,-97.42362096,0.6,19.33,7.585,313,-0.16,1.805,9.376,1
107,35.21315793,-97.42361887,0.6,19.33,9.101999,313,-0.173,1.802,9.426,1
108,35.21330862,-97.42359098,0.3,19.76,7.585,312,-0.196,1.788,9.437,1
109,35.21349343,-97.42359102,359.9,19.84,7.585,314,-0.247,1.511,9.536,1
110,35.2136633,-97.4235882,359.8,19.46,9.101999,314,-0.292,1.351,9.477,1
112,35.21383684,-97.42358569,359.7,19.09,10.6189995,315,-0.222,1.391,9.744,1
113,35.21400037,-97.42357832,359.7,18.78,9.101999,316,-0.207,1.344,9.586,1
114,35.21417697,-97.42360285,359.8,18.28,9.101999,316,-0.204,1.362,9.64,1
115,35.21433803,-97.42360809,359.8,17.94,9.101999,316,-0.186,1.814,9.421,1
116,35.21449972,-97.42360862,359.8,17.93,10.6189995,316,-0.195,1.684,9.388,1
117,35.21468991,-97.42360485,359.8,17.73,9.101999,312,-0.158,1.426,9.473,1
118,35.21485026,-97.42360594,359.6,17.48,7.585,313,-0.195,1.405,9.466,1
119,35.21500259,-97.42359813,359.9,17.17,7.585,314,-0.227,1.591,9.311,1
120,35.2151471,-97.42358548,0.4,16.9,7.585,312,-0.22,1.399,9.452,1
121,35.21530575,-97.42359732,0,16.76,7.585,311,-0.205,1.346,9.478,1
122,35.21545712,-97.42359965,0.2,16.41,7.585,312,-0.2,1.338,9.528,1
123,35.2155861,-97.42359145,0.1,16.19,7.585,312,-0.18,1.555,9.492,1
124,35.21572835,-97.42359717,0.2,16.22,7.585,311,-0.2,1.693,9.494,1
125,35.21587722,-97.42359709,0,16.24,7.585,311,-0.193,1.532,9.521,1
126,35.2160216,-97.42360351,0.1,16.21,7.585,312,-0.172,1.401,9.552,1
127,35.21617302,-97.42359571,0.1,15.85,6.068,312,-0.191,1.36,9.552,1
128,35.21629818,-97.42358248,0,15.23,6.068,311,-0.153,1.348,9.544,1
129,35.21643294,-97.42358464,359.8,14.94,6.068,312,-0.114,1.352,9.554,1
130,35.21654673,-97.42357397,0.4,14.31,6.068,312,-0.141,1.354,9.585,1
131,35.21666504,-97.42356349,0.4,13.94,6.068,313,-0.148,1.35,9.52,1
132,35.21679108,-97.42356204,0,13.56,7.585,311,-0.051,1.324,9.514,1
133,35.21691169,-97.42355502,0.2,13.26,7.585,310,-0.122,1.337,9.543,1
134,35.21703123,-97.42355462,0.2,13.26,10.6189995,310,-0.163,1.336,9.562,1
135,35.21712594,-97.42355512,359.7,12.11,9.101999,310,-0.161,1.322,9.568,1
136,35.2172351,-97.42355575,359.7,12.11,10.6189995,310,-0.156,1.294,9.521,1
137,35.21734555,-97.42357127,359.4,11.16,9.101999,308,-0.163,1.133,9.647,1
138,35.21744616,-97.42357262,359.4,11.16,10.6189995,308,-0.155,0.493,9.728,1
139,35.21751848,-97.42358498,358.6,8.8,9.101999,309,-0.181,0.601,9.687,1
140,35.21759779,-97.4235873,358.6,8.8,10.6189995,309,-0.11,0.997,9.578,1
141,35.21766328,-97.42359045,358.5,6.91,9.101999,307,-0.08,1.447,9.494,1
142,35.21772556,-97.42359241,358.5,6.91,12.136,307,-0.093,1.522,9.468,1
143,35.21779026,-97.42360227,359.5,5.75,9.101999,309,-0.109,2.118,9.326,1
144,35.21784215,-97.42360283,359.5,5.75,10.6189995,309,-0.107,2.531,9.217,1
145,35.21790807,-97.42362024,0.5,6.68,9.101999,311,-0.075,2.595,9.161,1
146,35.21796832,-97.42361963,0.5,6.68,12.136,311,-0.102,2.79,9.137,1
147,35.21804851,-97.42362779,0.6,7.73,12.136,311,-0.184,2.749,9.122,1
148,35.21815127,-97.42363539,359.3,9.51,9.101999,311,0.011,2.693,9.137,1
149,35.21823701,-97.4236366,359.3,9.51,10.6189995,311,-0.002,2.682,9.137,1
150,35.21834934,-97.42364207,359.5,10.5,10.6189995,311,0.059,2.37,9.022,1
151,35.21846998,-97.42363903,0.9,11.79,7.585,312,0.023,1.906,9.295,1
152,35.2185658,-97.42362415,0.7,11.96,6.068,313,-0.131,1.997,9.422,1
153,35.21867482,-97.4236125,0.6,12.2,6.068,313,-0.079,2.057,9.363,1
154,35.21878476,-97.42361111,0.6,12.19,7.585,313,-0.163,1.768,9.405,1
155,35.21889441,-97.42360972,359.8,12.5,6.068,312,-0.136,1.556,9.485,1
156,35.21900285,-97.42361445,0.3,12.26,6.068,313,-0.072,1.504,9.475,1
157,35.21911339,-97.42361375,0.3,12.26,7.585,313,-0.065,1.504,9.494,1
158,35.21922558,-97.42361781,0.1,11.94,6.068,310,-0.062,0.786,9.724,1
159,35.21932342,-97.42359735,0.3,11,7.585,309,-0.077,0.423,9.787,1
160,35.21940622,-97.42360095,359.3,9.59,7.585,308,-0.087,0.212,9.796,1
161,35.21944641,-97.42358084,0.3,7.55,7.585,308,-0.065,0.534,9.741,1
162,35.21950709,-97.42358481,358.5,6.79,7.585,308,-0.105,1.23,9.569,1
163,35.21956361,-97.42357673,0.5,6.23,7.585,309,-0.092,0.655,9.724,1
164,35.21960935,-97.42357894,357.6,5.14,9.101999,309,-0.074,0.571,9.704,1
165,35.21964679,-97.42358071,358.7,4.27,9.101999,309,-0.059,0.638,9.705,1
166,35.21967973,-97.42358643,356.7,3.5,9.101999,309,-0.038,0.995,9.614,1
167,35.21969525,-97.42357995,355.4,2.24,7.585,310,-0.007,1.305,9.527,1
168,35.21970776,-97.42358867,356.2,1.57,7.585,310,-0.016,1.385,9.496,1
169,35.21971705,-97.4235957,355.9,1.1,9.101999,310,-0.015,1.221,9.546,1
170,35.21971705,-97.4235957,355.9,1.1,9.101999,310,-0.012,1.42,9.505,1
171,35.21971284,-97.42358569,0,0,7.585,311,-0.006,1.674,9.435,1
172,35.21971284,-97.42358569,0,0,7.585,311,-0.004,1.734,9.423,1
173,35.21971284,-97.42358569,0,0,7.585,311,0.001,1.748,9.416,1
174,35.21971284,-97.42358569,0,0,7.585,311,-0.002,1.757,9.413,1
175,35.21971284,-97.42358569,0,0,7.585,311,0,1.959,9.36,1
176,35.21973166,-97.42358709,1.5,1.53,7.585,311,0.02,3.118,9.042,1
177,35.21975275,-97.42358494,1.9,2.56,7.585,312,0.02,3.417,8.966,1
178,35.21979258,-97.4235801,5.9,3.91,7.585,313,0.03,3.685,8.946,1
179,35.21984782,-97.42356878,2.9,6.03,6.068,314,-0.025,3.437,8.998,1
180,35.21992505,-97.42356313,1,8.72,6.068,315,-0.105,3.071,9.103,1
181,35.2200037,-97.42356145,1,8.72,7.585,316,-0.154,2.749,9.145,1
182,35.22012473,-97.42358951,0,10.62,7.585,315,-0.19,2.411,9.264,1
183,35.22022048,-97.42358954,0,10.62,7.585,315,-0.242,2.389,9.221,1
184,35.2203348,-97.42358567,359.9,12.11,7.585,313,-0.195,2.321,9.243,1
185,35.22044568,-97.42358706,0,12.95,7.585,313,-0.147,2.29,9.283,1
186,35.22056131,-97.42358584,0.6,13.45,7.585,314,-0.15,2.246,9.278,1
187,35.22068258,-97.42358429,0.6,13.45,9.101999,314,-0.191,2.251,9.304,1
188,35.22079537,-97.4235819,0.2,14.69,7.585,313,-0.22,2.223,9.258,1
189,35.22092749,-97.42357036,359.5,15.61,7.585,314,-0.353,2.223,9.266,1
190,35.22108506,-97.42357061,358.9,16.16,7.585,313,-0.424,2.181,9.312,1
191,35.22123817,-97.42357127,359,16.44,7.585,313,-0.125,2.136,9.32,1
192,35.22137862,-97.42355613,359.5,17.13,7.585,312,0.124,2.116,9.308,1
193,35.22153511,-97.42355902,359.9,17.72,7.585,312,-0.091,1.668,9.507,1
195,35.22167808,-97.42354266,0.4,17.24,7.585,311,-0.161,1.249,9.503,1
196,35.221826,-97.4235409,0.2,17,7.585,311,-0.174,1.416,9.478,1
197,35.22198202,-97.42353898,0.5,16.97,7.585,312,-0.252,1.549,9.443,1
198,35.22213504,-97.4235374,0.5,16.97,9.101999,312,-0.186,1.62,9.458,1
199,35.2222864,-97.42353628,0.4,17.19,7.585,312,-0.193,1.456,9.469,1
200,35.2224414,-97.42353502,0.4,17.19,9.101999,312,-0.113,1.197,9.53,1
201,35.22259311,-97.42354385,0.8,16.51,7.585,314,-0.076,1.385,9.514,1
202,35.22274126,-97.42354605,1.2,16.32,7.585,314,-0.11,1.285,9.49,1
203,35.22287993,-97.42353864,1.5,15.98,7.585,315,-0.174,1.434,9.47,1
204,35.22301984,-97.42353257,1.2,16.01,7.585,314,-0.271,1.311,9.513,1
205,35.22316296,-97.42353198,0.7,15.88,7.585,315,-0.241,1.509,9.469,1
206,35.22330313,-97.42353938,0.7,15.69,7.585,316,-0.202,1.646,9.43,1
207,35.22344689,-97.42353769,0.6,15.79,7.585,317,-0.207,1.248,9.534,1
208,35.22358322,-97.42353908,0.7,15.32,7.585,316,-0.227,1.161,9.585,1
209,35.22371697,-97.42354215,0.7,14.97,7.585,316,-0.245,1.134,9.593,1
210,35.22385123,-97.42354106,0.4,14.76,7.585,316,-0.237,1.123,9.568,1
211,35.22398533,-97.4235354,0.6,14.27,7.585,316,-0.248,1.109,9.555,1
212,35.22410926,-97.4235378,0.2,13.69,6.068,317,-0.235,1.095,9.558,1
213,35.22423729,-97.42353207,0.7,13.06,6.068,316,-0.24,1.096,9.571,1
214,35.22435092,-97.42352929,0.6,12.61,6.068,316,-0.272,1.107,9.579,1
215,35.2244523,-97.42353398,0.7,12.13,7.585,316,-0.297,1.099,9.558,1
216,35.22456165,-97.42353236,0.7,12.13,9.101999,316,-0.246,1.093,9.588,1
217,35.22466403,-97.4235368,359.5,11.24,7.585,316,-0.179,1.095,9.58,1
218,35.22476537,-97.42353797,359.5,11.24,10.6189995,316,-0.161,1.079,9.581,1
219,35.22486857,-97.42353377,0.2,10.36,9.101999,318,-0.175,1.06,9.577,1
220,35.22496203,-97.42353333,0.2,10.36,10.6189995,318,-0.237,0.403,9.77,1
221,35.22501626,-97.42355358,0.8,8.11,9.101999,317,-0.231,0.213,9.775,1
222,35.22508307,-97.42355285,0.3,6.82,9.101999,317,-0.22,0.846,9.639,1
223,35.22513814,-97.42355571,359.5,6.43,9.101999,317,-0.216,1.128,9.574,1
224,35.22519616,-97.42355631,359.5,6.43,13.653,317,-0.234,0.563,9.714,1
225,35.22525467,-97.42354505,2.8,6.14,15.17,315,-0.227,0.329,9.761,1
226,35.22526706,-97.42356679,356.7,3.72,10.6189995,313,-0.236,0.364,9.754,1
227,35.22529239,-97.42357187,3,2.44,9.101999,313,-0.229,0.721,9.668,1
228,35.2253007,-97.42356532,2.9,1.39,9.101999,314,-0.227,1.154,9.559,1
229,35.22531304,-97.42356307,2.9,1.04,7.585,313,-0.211,1.377,9.508,1
230,35.22532249,-97.42356321,3,1.04,9.101999,313,-0.205,1.405,9.501,1
231,35.22533555,-97.42355535,3.1,1.06,10.6189995,314,-0.202,1.348,9.51,1
232,35.22534719,-97.4235535,3.1,0.64,7.585,315,-0.199,1.372,9.505,1
233,35.22534719,-97.4235535,3.1,0.64,7.585,315,-0.194,1.393,9.497,1
234,35.22534719,-97.4235535,3.1,0.64,7.585,315,-0.189,1.428,9.491,1
235,35.22535916,-97.42354606,0,0,7.585,315,-0.188,1.533,9.461,1
236,35.22535916,-97.42354606,0,0,7.585,315,-0.182,1.738,9.416,1
239,35.22536014,-97.42355082,1.2,1.57,9.101999,314,-0.138,3.01,9.092,1
240,35.22538791,-97.42354858,358.2,2.89,10.6189995,315,-0.125,3.144,9.066,1
241,35.225414,-97.42354957,358.2,2.89,10.6189995,315,-0.093,3.181,9.037,1
242,35.22549544,-97.42353235,0.3,6.14,9.101999,316,-0.099,2.927,9.126,1
243,35.22556985,-97.42352794,0,7.74,9.101999,315,-0.139,2.744,9.15,1
244,35.22563962,-97.4235279,0,7.74,10.6189995,315,-0.105,2.631,9.197,1
245,35.22571284,-97.42351627,0.5,9.49,9.101999,315,-0.121,2.736,9.161,1
246,35.22579844,-97.42351532,0.5,9.49,10.6189995,315,-0.148,2.611,9.156,1
247,35.22593348,-97.42350498,0.6,12.21,7.585,311,-0.18,2.537,9.205,1
248,35.22604854,-97.42350759,0.8,13.25,7.585,312,-0.146,2.484,9.233,1
249,35.22616796,-97.42350567,0.8,13.24,7.585,312,-0.175,2.416,9.243,1
250,35.22630903,-97.42350333,0.3,15.03,6.068,313,-0.257,2.376,9.262,1
251,35.22645423,-97.42350934,0.5,15.88,6.068,313,-0.263,2.316,9.228,1
252,35.22674765,-97.42350522,359.9,16.62,7.585,313,-0.243,1.906,9.374,1
253,35.22674765,-97.42350522,359.9,16.62,7.585,313,-0.232,1.81,9.39,1
254,35.22689881,-97.42351708,0.1,17.08,6.068,314,-0.296,1.776,9.381,1
255,35.22722382,-97.42350854,0.6,17.72,7.585,314,-0.114,1.789,9.384,1
256,35.22738353,-97.42350643,0.6,17.71,9.101999,314,-0.115,1.804,9.394,1
257,35.22754079,-97.4235019,0.6,17.99,7.585,315,-0.204,1.475,9.483,1
258,35.22770364,-97.42350574,0.4,17.7,7.585,315,-0.21,1.296,9.542,1
259,35.22786705,-97.42350879,0.6,17.68,7.585,315,-0.192,1.401,9.493,1
260,35.22802703,-97.42351258,0.7,17.4,7.585,314,-0.143,1.449,9.508,1
261,35.22818387,-97.4235104,0.7,17.4,9.101999,314,-0.251,1.465,9.485,1
262,35.22833391,-97.42351833,0.4,17.23,7.585,316,-0.365,1.468,9.485,1
263,35.22849554,-97.42351364,359.4,17.21,7.585,316,-0.537,1.469,9.492,1
264,35.22865126,-97.42351565,358.6,17.27,7.585,316,-0.26,1.543,9.405,1
265,35.2288069,-97.42352022,358.6,17.27,9.101999,316,-0.092,1.795,9.436,1
266,35.22897693,-97.42352498,359.5,17.77,7.585,317,-0.018,1.836,9.379,1
267,35.2291477,-97.42351253,0.2,18.11,7.585,317,-0.044,1.846,9.367,1
268,35.22930298,-97.42351771,0.6,18.25,7.585,318,-0.066,1.831,9.418,1
269,35.2294694,-97.42351348,0.4,18.61,7.585,316,-0.172,1.798,9.378,1
270,35.22963076,-97.423508,0.5,18.86,7.585,316,-0.124,1.787,9.39,1
271,35.2298024,-97.42351051,0.8,19.07,7.585,318,-0.146,1.774,9.395,1
272,35.22997426,-97.42350747,0.8,19.06,7.585,318,-0.153,1.436,9.498,1
273,35.23014935,-97.42350222,0.7,18.74,7.585,319,-0.151,1.249,9.514,1
274,35.23032277,-97.4235013,0.5,18.93,7.585,320,-0.174,1.344,9.503,1
275,35.23049346,-97.42349954,0.5,18.93,9.101999,320,-0.163,1.181,9.531,1
276,35.23065602,-97.42349012,0.9,17.87,7.585,320,-0.13,1.12,9.523,1
277,35.23080476,-97.42349148,1.1,17.38,7.585,320,-0.145,1.118,9.546,1
278,35.23096422,-97.42348798,1,17.12,7.585,320,-0.151,1.129,9.551,1
280,35.23111702,-97.42348576,1,16.81,7.585,320,-0.135,1.1,9.449,1
281,35.23127592,-97.42347561,1.1,16.51,7.585,319,-0.22,1.102,9.453,1
282,35.23142826,-97.42347716,0.4,16.4,7.585,317,-0.601,1.153,9.639,1
283,35.23157738,-97.42349173,357.8,15.92,6.068,316,-0.788,1.124,9.612,1
284,35.23171327,-97.42350187,356.6,15.2,6.068,317,-0.281,0.53,9.766,1
285,35.23183987,-97.42350129,357.6,13.63,6.068,317,0.141,0.003,9.746,1
286,35.23195195,-97.42350231,358.2,12.11,6.068,317,0.171,0.079,9.887,1
287,35.23205005,-97.42350133,359.7,10.75,6.068,316,0.153,0.044,9.824,1
288,35.23212771,-97.42350577,359.7,8.91,6.068,317,0.081,-0.026,9.854,1
289,35.2321954,-97.4234995,359.7,7.33,6.068,317,0.114,-0.179,9.85,1
290,35.23224645,-97.42350539,0.3,5.52,6.068,317,0.033,0.026,9.846,1
291,35.23228604,-97.423504,1,4.11,6.068,318,0.016,0.342,9.722,1
292,35.23231143,-97.42349784,0.7,2.95,6.068,318,0.007,0.791,9.643,1
293,35.23233132,-97.42349353,356.1,2.07,7.585,319,0.04,1.253,9.52,1
294,35.23234761,-97.42349997,0.4,2.17,7.585,319,0.028,1.498,9.485,1
295,35.23237017,-97.42350031,356.1,1.48,7.585,319,0.072,1.236,9.502,1
296,35.23237974,-97.42349894,357.9,1.68,7.585,320,0.083,0.871,9.607,1
297,35.23237974,-97.42349894,357.9,1.68,7.585,320,0.088,1.135,9.557,1
298,35.23238581,-97.42351185,0,0,7.585,320,0.095,1.174,9.545,1
299,35.23238581,-97.42351185,0,0,7.585,320,0.111,1.518,9.455,1
300,35.23238581,-97.42351185,0,0,7.585,320,0.114,1.593,9.438,1
301,35.23238581,-97.42351185,0,0,7.585,320,0.115,1.612,9.433,1
302,35.23238581,-97.42351185,0,0,7.585,320,0.114,1.614,9.432,1
303,35.23238581,-97.42351185,0,0,7.585,320,0.117,1.616,9.432,1
304,35.23238581,-97.42351185,0,0,7.585,320,0.115,1.616,9.433,1
305,35.23238581,-97.42351185,0,0,7.585,320,0.118,1.614,9.432,1
306,35.23238581,-97.42351185,0,0,7.585,320,0.118,1.613,9.433,1
307,35.23238581,-97.42351185,0,0,7.585,320,0.117,1.613,9.434,1
308,35.23238581,-97.42351185,0,0,7.585,320,0.118,1.614,9.433,1
309,35.23238581,-97.42351185,0,0,7.585,320,0.118,1.614,9.434,1
310,35.23238581,-97.42351185,0,0,7.585,320,0.118,1.616,9.434,1
311,35.23238581,-97.42351185,0,0,7.585,320,0.113,1.614,9.432,1
312,35.23238581,-97.42351185,0,0,7.585,320,0.114,1.614,9.433,1
313,35.23238581,-97.42351185,0,0,7.585,320,0.116,1.613,9.435,1
314,35.23238581,-97.42351185,0,0,7.585,320,0.118,1.616,9.436,1
315,35.23238581,-97.42351185,0,0,7.585,320,0.112,1.617,9.432,1
316,35.23238581,-97.42351185,0,0,7.585,320,0.114,1.614,9.435,1
317,35.23238581,-97.42351185,0,0,7.585,320,0.11,1.613,9.437,1
318,35.23238581,-97.42351185,0,0,7.585,320,0.117,1.614,9.435,1
319,35.23238581,-97.42351185,0,0,7.585,320,0.11,1.616,9.433,1
320,35.23238581,-97.42351185,0,0,7.585,320,0.116,1.616,9.434,1
321,35.23238581,-97.42351185,0,0,7.585,320,0.115,1.615,9.431,1
322,35.23238581,-97.42351185,0,0,7.585,320,0.117,1.615,9.43,1
323,35.23238581,-97.42351185,0,0,7.585,320,0.113,1.614,9.432,1
324,35.23238581,-97.42351185,0,0,7.585,320,0.117,1.614,9.434,1
325,35.23238581,-97.42351185,0,0,7.585,320,0.118,1.614,9.435,1
326,35.23238581,-97.42351185,0,0,7.585,320,0.117,1.616,9.434,1
327,35.23238581,-97.42351185,0,0,7.585,320,0.117,1.97,9.328,1
328,35.23238581,-97.42351185,0,0,7.585,320,0.141,3.196,9.035,1
329,35.23240321,-97.42350061,356.2,2.03,13.653,321,0.173,3.23,9.022,1
330,35.23243592,-97.42351859,359.2,3.89,13.653,320,0.16,2.925,9.026,1
331,35.23249161,-97.42351811,359.5,5.29,15.17,321,0.178,2.67,9.18,1
332,35.23254385,-97.4235141,0.6,6.47,15.17,322,0.179,2.547,9.169,1
333,35.23261861,-97.4235098,1.8,7.29,15.17,322,0.159,2.379,9.247,1
334,35.23269011,-97.42349478,2.5,7.64,15.17,322,-0.562,2.048,9.365,1
335,35.23276842,-97.423496,355.3,8.57,15.17,322,-1.053,1.608,9.339,1
336,35.2328534,-97.42351273,344.7,8.56,15.17,323,-2.129,1.485,9.51,1
337,35.23292145,-97.42356376,324.4,8.77,15.17,324,-3.144,1.46,9.385,0
338,35.23298578,-97.42361983,324.4,8.77,15.17,324,-3.353,1.673,9.365,0
339,35.23302695,-97.42371547,304.8,9.24,9.101999,325,-2.313,2.152,9.523,0
340,35.23299656,-97.42383447,270.8,10.31,9.101999,323,-1.122,2.244,9.37,0
341,35.23299778,-97.42394775,270.8,10.31,9.101999,323,-0.43,2.32,9.314,0
342,35.2329954,-97.42408012,268.9,11.44,9.101999,323,-0.204,2.391,9.207,0
343,35.23298808,-97.42422427,268.3,12.51,9.101999,324,-0.317,2.383,9.326,0
344,35.2329967,-97.42437159,269.4,13.38,9.101999,323,-0.458,2.302,9.282,0
345,35.23299365,-97.42453837,269,14.54,9.101999,323,-0.409,2.255,9.332,0
346,35.2329988,-97.42469041,270.5,15.06,9.101999,322,-0.33,2.221,9.406,0
347,35.23301253,-97.42489015,269,16.61,7.585,323,-0.319,2.151,9.335,0
348,35.23300331,-97.42526538,268.8,17.42,9.101999,322,-0.304,2.073,9.267,1
349,35.23299337,-97.42546561,268,18.05,9.101999,322,-0.304,1.621,9.453,1
350,35.23300077,-97.4256725,268.6,18.1,9.101999,322,-0.229,1.52,9.454,1
351,35.23299865,-97.42586474,268.3,18.2,9.101999,322,-0.236,1.536,9.455,1
352,35.23299101,-97.42606636,268.1,18.37,10.6189995,321,-0.267,1.546,9.428,1
353,35.23298869,-97.4262759,268.3,18.5,10.6189995,321,-0.326,1.536,9.49,1
354,35.23298532,-97.4264806,268.7,18.59,12.136,322,-0.279,1.53,9.415,1
355,35.23297332,-97.42668641,268.6,18.72,13.653,322,-0.164,1.529,9.453,1
356,35.23298034,-97.42691002,269.8,18.94,13.653,322,-0.199,1.535,9.443,1
357,35.23297026,-97.42712305,268.6,19.12,13.653,322,-0.226,1.532,9.462,1
358,35.2329928,-97.42735847,269.8,19.37,13.653,322,-0.178,1.527,9.451,1
359,35.23300068,-97.42758829,270.3,19.59,13.653,322,-0.281,1.54,9.474,1
360,35.23301624,-97.42782906,270.8,19.89,13.653,322,-0.304,1.549,9.472,1
361,35.23301681,-97.42804838,269.5,19.82,13.653,322,-0.317,1.544,9.503,1
362,35.23302888,-97.42828314,270.6,20,13.653,323,-0.268,1.354,9.529,1
363,35.23302967,-97.42849734,270.2,19.85,13.653,324,-0.224,1.187,9.556,1
364,35.23304028,-97.42872219,270.6,19.43,16.687,324,-0.104,1.505,9.506,1
365,35.23304953,-97.42894825,270.6,19.61,13.653,323,-0.108,1.659,9.431,1
366,35.23304151,-97.42915732,270.5,19.82,12.136,324,-0.151,1.348,9.553,1
367,35.23306614,-97.42938944,273.3,19.83,12.136,323,-0.47,1.542,9.465,1
368,35.23306317,-97.42960518,271,20.11,10.6189995,322,-0.493,1.727,9.42,1
369,35.2330832,-97.42984343,270.6,20.5,12.136,323,-0.412,1.767,9.412,1
370,35.2330702,-97.43006033,269.5,20.54,12.136,319,-0.34,1.718,9.42,1
371,35.23306085,-97.43027918,268.9,20.65,12.136,321,-0.31,1.32,9.488,1
372,35.23305533,-97.43051606,269.5,20.63,12.136,320,-0.35,1.174,9.563,1
373,35.2330588,-97.43073243,270.5,20.5,10.6189995,319,-0.357,1.236,9.526,1
374,35.23305332,-97.43095092,269.8,20.51,10.6189995,320,-0.346,1.299,9.521,1
375,35.23305087,-97.43117925,269.4,20.36,10.6189995,320,-0.319,1.341,9.486,1
376,35.23303528,-97.43138454,269.7,20.02,12.136,319,-0.295,1.352,9.513,1
378,35.23303208,-97.43161141,269.8,20.03,12.136,318,-0.299,1.346,9.504,1
379,35.23303527,-97.43184044,270.1,20.08,12.136,318,-0.321,1.409,9.489,1
380,35.23303912,-97.43204566,271.1,20.26,12.136,317,-0.305,1.772,9.503,1
381,35.23302626,-97.4322507,269.3,20.42,12.136,317,-0.299,1.781,9.432,1
382,35.23302201,-97.43246634,269.1,20.34,12.136,316,-0.248,1.459,9.497,1
383,35.23301065,-97.43267743,269.8,20.33,10.6189995,317,-0.295,1.19,9.548,1
384,35.23299671,-97.43288366,269.8,20.02,9.101999,318,-0.338,1.147,9.544,1
385,35.23298562,-97.43308403,269.3,19.64,9.101999,317,-0.251,1.276,9.548,1
386,35.23299069,-97.43330818,270.3,19.43,9.101999,317,-0.256,1.197,9.589,1
387,35.23298854,-97.43350719,269.9,18.94,9.101999,316,-0.36,1.152,9.563,1
388,35.2329972,-97.43370986,271,18.84,9.101999,314,-0.34,1.426,9.533,1
389,35.23300216,-97.43391899,271.1,18.67,9.101999,314,-0.333,1.431,9.468,1
390,35.23297711,-97.43409282,270.1,18.29,10.6189995,315,-0.321,1.312,9.535,1
391,35.23297507,-97.43429128,269.9,17.95,10.6189995,317,-0.333,1.43,9.495,1
392,35.23295426,-97.4344605,269.6,17.6,9.101999,317,-0.343,1.591,9.403,1
393,35.23296101,-97.43466885,269.8,17.92,9.101999,317,-0.355,1.637,9.386,1
394,35.23296058,-97.43486857,269.9,17.96,9.101999,319,-0.379,1.372,9.385,1
395,35.23295949,-97.43506677,269.9,17.91,9.101999,319,-0.411,1.161,9.438,1
396,35.23297296,-97.43526957,270.3,17.73,9.101999,318,-0.368,1.152,9.508,1
397,35.23297534,-97.4354606,269.9,17.41,9.101999,319,-0.377,1.156,9.568,1
398,35.23297377,-97.43565357,270.2,17.25,9.101999,319,-0.343,1.394,9.503,1
399,35.23297161,-97.43583919,269.9,17.18,9.101999,318,-0.302,1.231,9.534,1
400,35.23298389,-97.43602749,269.8,16.77,9.101999,317,-0.384,0.772,9.634,1
401,35.23298141,-97.43620061,271.7,16.38,9.101999,317,-0.365,0.373,9.787,1
402,35.23298004,-97.43636491,270.6,15.35,15.17,316,-0.312,0.223,9.828,1
403,35.23296531,-97.43650204,269.9,14.29,16.687,318,-0.383,0.128,9.813,1
404,35.23295663,-97.43663558,270.5,12.81,16.687,316,-0.379,-0.206,9.89,1
405,35.23295803,-97.4367635,272,11.6,16.687,315,-0.393,-0.601,10.012,0
406,35.23296082,-97.43687585,274.9,10.43,16.687,316,-0.399,-0.797,9.996,0
407,35.23298098,-97.43697067,281.4,9.3,16.687,315,-0.396,-0.753,10.029,0
408,35.23294581,-97.43697739,271,4.94,16.687,317,-0.379,-0.515,9.952,0
409,35.23295273,-97.43700037,279.6,2.88,16.687,318,-0.363,0.383,9.739,0
410,35.23295273,-97.43700037,279.6,2.88,16.687,318,-0.351,0.871,9.625,0
411,35.23294606,-97.43701022,268.6,0.66,16.687,318,-0.342,1.202,9.549,0
412,35.23294606,-97.43701022,268.6,0.66,16.687,318,-0.342,1.339,9.513,0
413,35.23294606,-97.43701022,268.6,0.66,16.687,318,-0.337,1.355,9.511,0
414,35.23294606,-97.43701022,268.6,0.66,16.687,318,-0.346,1.074,9.578,0
415,35.23294606,-97.43701022,268.6,0.66,16.687,318,-0.334,1.337,9.508,0
416,35.23294606,-97.43701022,268.6,0.66,16.687,318,-0.336,1.394,9.498,0
417,35.23294606,-97.43701022,268.6,0.66,16.687,318,-0.334,1.403,9.496,1
418,35.23294606,-97.43701022,268.6,0.66,16.687,318,-0.338,1.405,9.497,1
419,35.23296739,-97.43703518,0,0,15.17,319,-0.339,1.406,9.496,1
420,35.23296739,-97.43703518,0,0,15.17,319,-0.338,1.406,9.493,1
421,35.23296739,-97.43703518,0,0,15.17,319,-0.335,1.528,9.468,1
422,35.23296739,-97.43703518,0,0,15.17,319,-0.329,1.836,9.393,1
423,35.23296673,-97.43705332,269.3,0.37,15.17,320,-0.326,1.846,9.384,1
424,35.23295999,-97.43704344,242.8,0.72,16.687,320,-0.324,1.96,9.352,1
425,35.23295711,-97.4370603,249.3,0.95,16.687,320,-0.297,2.712,9.169,1
426,35.23295711,-97.4370603,249.3,0.95,16.687,320,-0.278,2.94,9.102,1
427,35.23293291,-97.43713891,248.6,4.39,16.687,320,-0.298,2.968,9.099,1
428,35.232924,-97.43725235,256,5.67,16.687,320,-0.31,2.597,9.181,1
429,35.23295809,-97.43737425,263.4,6.8,16.687,318,-0.319,2.459,9.221,1
430,35.23298606,-97.43751311,266.9,8.61,16.687,318,-0.245,2.326,9.275,1
431,35.23297141,-97.43759731,265.7,8.91,16.687,317,-0.327,2.297,9.307,1
432,35.2329674,-97.43769519,262.7,9.31,16.687,318,-0.33,2.308,9.311,1
433,35.23297537,-97.43783396,265.3,10.47,16.687,316,-0.283,2.311,9.327,1
434,35.23298519,-97.43799286,268,11.91,16.687,317,-0.315,2.255,9.306,1
435,35.23298861,-97.43814084,267.8,12.33,16.687,318,-0.318,2.199,9.306,1
436,35.23301582,-97.43832841,270.1,13.63,16.687,318,-0.277,2.138,9.268,1
437,35.23300774,-97.43846439,268.4,13.85,16.687,318,-0.268,2.031,9.281,1
438,35.23301749,-97.43863652,268.4,14.19,16.687,318,-0.288,1.979,9.238,1
439,35.23300864,-97.43879466,267.1,14.53,16.687,318,-0.271,1.946,9.333,1
440,35.23302385,-97.43897979,269.4,14.98,18.203999,318,-0.291,1.9,9.383,1
441,35.23295271,-97.43908759,266.8,15.2,16.687,321,-0.338,1.79,9.413,1
442,35.23296932,-97.43928256,267.1,15.75,18.203999,320,-0.335,1.55,9.465,1
443,35.23296021,-97.43945735,267,15.96,19.720999,321,-0.351,1.482,9.467,1
444,35.23293032,-97.43961411,266.5,16.15,18.203999,324,-0.325,1.461,9.5,1
445,35.23293179,-97.43980477,267.4,16.36,19.720999,324,-0.338,1.471,9.479,1
446,35.23294539,-97.44000159,268.7,16.59,19.720999,325,-0.358,1.475,9.448,1
448,35.23297514,-97.44021733,269.6,17.12,21.237999,324,-0.384,1.471,9.458,1
449,35.23294907,-97.44036746,268.4,16.57,21.237999,325,-0.382,1.487,9.489,1
450,35.23296442,-97.44058933,268.6,16.97,18.203999,326,-0.375,1.288,9.535,1
451,35.2329681,-97.44079034,269.5,16.9,18.203999,326,-0.322,1.191,9.682,1
452,35.23295822,-97.44096876,270,16.78,18.203999,327,-0.123,1.159,9.583,1
453,35.23298448,-97.44118161,271.2,16.67,18.203999,326,0.04,0.154,9.528,1
454,35.23297636,-97.44133896,270.9,15.36,16.687,325,-0.196,-0.961,10.124,0
455,35.23300796,-97.44150218,275.7,13.85,16.687,323,-0.298,0.058,9.847,0
456,35.23301246,-97.44163744,277.7,13.17,16.687,323,-0.307,2.265,9.295,0
457,35.233025,-97.44179488,275.9,13.55,16.687,324,-0.317,3.265,9.038,0
458,35.23302114,-97.44194248,271.2,14.2,18.203999,325,-0.31,3.301,9.022,0
459,35.23299729,-97.44207318,266.5,14.86,16.687,324,-0.192,3.313,8.998,0
460,35.23300505,-97.44228872,267.6,16.98,16.687,324,-0.209,3.232,9.025,0
461,35.23302363,-97.44251981,268,18.9,16.687,323,-0.246,3.016,9.125,0
462,35.23301059,-97.44273492,266.8,19.69,18.203999,323,-0.323,2.235,9.303,0
463,35.23305628,-97.44303816,270.1,21.67,18.203999,321,-0.346,1.976,9.353,0
464,35.23306264,-97.44329122,269.5,22.03,18.203999,320,-0.348,1.805,9.398,1
465,35.23307908,-97.44355529,269.2,22.37,18.203999,319,-0.293,1.539,9.471,1
466,35.23308437,-97.44381501,269.9,23.02,18.203999,319,-0.271,1.225,9.555,1
467,35.23308066,-97.4440593,270.1,22.84,18.203999,319,-0.2,1.135,9.548,1
468,35.23309412,-97.44431669,270.8,22.72,19.720999,319,-0.251,1.145,9.599,1
469,35.23309536,-97.44455942,270.9,22.51,19.720999,319,-0.291,1.141,9.594,1
470,35.23309905,-97.44480852,271.2,22.31,21.237999,317,-0.342,1.149,9.631,1
471,35.23309662,-97.44503661,270.1,21.45,19.720999,316,-0.343,1.152,9.649,1
472,35.23310609,-97.44528428,270.7,21.35,19.720999,315,-0.447,1.176,9.674,1
473,35.23310317,-97.44550721,270.7,21.1,18.203999,315,-0.474,1.149,9.577,1
474,35.23308885,-97.44572152,269.9,20.77,18.203999,315,-0.409,1.141,9.533,1
475,35.23306904,-97.44592134,269.4,20.16,18.203999,316,-0.257,1.142,9.552,1
476,35.23305981,-97.4461344,269.8,20,18.203999,316,-0.102,1.244,9.552,1
477,35.23304787,-97.44633382,270.1,19.67,18.203999,317,-0.085,1.336,9.514,1
478,35.23305105,-97.44653786,271,19.39,19.720999,318,-0.294,1.548,9.499,1
479,35.23309777,-97.44682247,272.7,19.89,18.203999,320,-0.422,1.431,9.482,1
480,35.23308601,-97.44701936,271.8,19.7,18.203999,321,-0.382,1.237,9.537,1
481,35.23308715,-97.44722794,272,19.56,19.720999,321,-0.35,1.178,9.531,1
482,35.23304624,-97.44738131,270.9,18.75,21.237999,322,-0.387,1.171,9.559,1
483,35.23307015,-97.44760847,271.9,18.79,21.237999,321,-0.366,1.16,9.555,1
484,35.23306394,-97.44779502,271.7,18.32,21.237999,320,-0.271,1.181,9.592,1
485,35.23304028,-97.4479546,271.1,17.8,21.237999,321,-0.251,1.146,9.538,1
486,35.23310414,-97.44822144,274.1,18.37,22.755,321,-0.065,0.569,9.63,1
487,35.23309992,-97.44841324,273.6,17.74,19.720999,320,0.135,-0.344,9.841,1
488,35.2330325,-97.44846686,271.7,14.62,15.17,320,-0.01,0.533,9.709,1
489,35.23300733,-97.44855625,273.6,12.9,15.17,323,-0.123,0.113,9.765,1
490,35.23301277,-97.44869429,274.4,12.52,15.17,324,-0.098,-0.827,9.942,1
491,35.23301058,-97.44878764,275.3,10.23,15.17,325,-0.119,-1.097,10.067,0
492,35.23301192,-97.44887397,277.9,9.23,15.17,327,-0.169,-0.749,10.003,0
493,35.2330223,-97.44894888,282.3,7.64,15.17,328,-0.176,0.287,9.77,0
494,35.23301831,-97.44899411,284.4,5.88,15.17,328,-0.172,0.92,9.601,0
495,35.23301351,-97.44902886,283.9,4.74,16.687,329,-0.164,1.103,9.559,0
496,35.23299307,-97.44905234,276.4,3.45,16.687,329,-0.186,0.439,9.697,0
497,35.23297047,-97.44907246,274.1,2.91,15.17,331,-0.166,0.757,9.648,0
498,35.23295828,-97.44907534,276.2,1.91,15.17,333,-0.156,1.137,9.56,0
499,35.23296533,-97.4490849,282.3,2.01,15.17,332,-0.152,1.119,9.547,0
500,35.2329654,-97.44910124,278.1,1.63,15.17,332,-0.169,1.459,9.487,0
501,35.23297105,-97.44912533,274.2,1.75,15.17,333,-0.182,1.174,9.534,1
502,35.23295553,-97.44913442,274.1,2.03,15.17,331,-0.193,0.713,9.66,1
503,35.232947,-97.44914061,273.8,1.24,15.17,332,-0.181,1.447,9.468,1
504,35.23293903,-97.44914607,273.5,1.16,15.17,333,-0.205,1.616,9.442,1
505,35.23294062,-97.44916347,273.6,1.65,15.17,333,-0.189,2.262,9.275,1
506,35.23294247,-97.44918609,272.4,2.2,15.17,333,-0.174,2.631,9.191,1
507,35.23294467,-97.44921477,267.2,2.93,15.17,333,-0.188,2.693,9.172,1
508,35.23294112,-97.44925723,261.8,4.42,15.17,333,-0.224,2.47,9.19,1
509,35.23295475,-97.44934534,269.7,6.29,15.17,333,-0.27,1.917,9.323,1
510,35.23296323,-97.44942923,272.3,7.62,15.17,334,-0.319,1.507,9.442,1
511,35.23295691,-97.44961387,270.6,8.67,15.17,333,-0.267,1.999,9.341,1
512,35.2329739,-97.44973188,270.8,9.36,15.17,333,-0.287,1.506,9.419,1
513,35.23298592,-97.4498511,270.7,10.02,13.653,331,-0.286,1.917,9.285,1
514,35.23298734,-97.44995597,269.6,10.77,13.653,330,-0.24,1.945,9.329,1
515,35.23299717,-97.45009611,270.9,11.79,13.653,329,-0.239,1.908,9.333,1
516,35.23298891,-97.45023429,270,12.62,13.653,328,-0.174,1.881,9.417,1
517,35.23299177,-97.45038151,269.9,13.01,13.653,328,-0.147,1.531,9.482,1
518,35.23299519,-97.45052829,270.7,13.42,13.653,327,-0.138,1.435,9.539,1
519,35.23299537,-97.45068369,270.6,13.77,13.653,327,-0.203,1.407,9.562,1
520,35.23300796,-97.45082563,271,13.72,13.653,326,-0.196,1.255,9.599,1
521,35.23300974,-97.45097849,270.4,13.86,13.653,326,-0.137,1.345,9.56,1
522,35.23301226,-97.45112887,270.6,13.82,15.17,326,-0.188,1.346,9.536,1
523,35.23300872,-97.45128256,269.5,13.81,16.687,326,-0.231,1.597,9.602,1
524,35.23302012,-97.45143808,272,13.81,16.687,326,-0.141,1.747,9.52,1
525,35.2330172,-97.45158266,270.8,13.73,18.203999,326,0.215,1.519,9.53,1
526,35.23302817,-97.45175485,271.8,14,16.687,326,0.334,1.518,9.586,1
527,35.23304624,-97.45192127,275.1,14.39,16.687,326,-0.203,1.541,9.555,1
528,35.23305454,-97.45208402,273.8,14.02,10.6189995,327,-0.401,1.557,9.564,1
529,35.23305096,-97.45221715,272.1,13.62,9.101999,328,-0.407,1.595,9.514,1
530,35.23305893,-97.45237459,272.6,14.15,9.101999,328,-0.346,1.969,9.477,1
531,35.233063,-97.45252682,272.2,14.22,9.101999,326,-0.27,2.303,9.433,1
532,35.23304907,-97.45268398,266.8,14.12,7.585,326,-0.196,2.012,9.453,1
533,35.23304382,-97.45283674,268.6,13.89,7.585,326,-0.006,1.176,9.524,1
534,35.23304319,-97.452977,270.4,12.96,7.585,327,0.013,0.256,9.735,1
535,35.23304743,-97.45309599,271,10.83,6.068,329,1.317,-0.543,9.896,1
536,35.23305874,-97.45319355,281.5,8.73,6.068,328,3.497,0.807,9.367,0
537,35.23309351,-97.45327659,289.6,7.49,6.068,328,3.862,2.056,9.024,0
539,35.23313476,-97.45330737,311.3,6.08,7.585,330,2.808,2.703,8.864,0
540,35.2332801,-97.45328666,350.9,10.47,6.068,326,1.496,2.896,8.982,0
541,35.23337976,-97.45329753,356.1,11.99,6.068,327,0.608,2.831,9.043,0
542,35.23349662,-97.45331262,357,12.61,6.068,327,0.099,2.721,9.14,0
543,35.23361011,-97.45330577,357.8,14.35,6.068,325,-0.274,2.609,9.117,0
544,35.23376306,-97.45332285,356.7,15.5,6.068,325,-0.55,2.532,9.137,0
545,35.23391978,-97.45334527,355.4,16.44,6.068,325,-0.636,2.487,9.272,0
546,35.23407662,-97.45335098,354.2,17.15,7.585,326,-0.966,2.372,9.163,0
547,35.23425236,-97.45338491,351.1,18.31,7.585,325,-0.678,2.304,9.234,1
548,35.23443198,-97.45342594,348.6,19.88,7.585,325,-0.53,2.312,9.358,1
549,35.23459938,-97.45346665,348.4,19.94,9.101999,325,-0.677,1.629,9.451,1
550,35.23477228,-97.45352093,347.5,20.43,10.6189995,325,-0.835,1.525,9.483,1
551,35.2349523,-97.45357427,345.8,19.96,10.6189995,325,-0.963,1.508,9.448,1
552,35.2351335,-97.45364678,343.5,20.45,10.6189995,325,-0.539,1.523,9.478,1
553,35.23532181,-97.45371385,343.1,20.52,10.6189995,325,-0.388,1.498,9.483,1
554,35.23550048,-97.45377829,343.2,20.51,12.136,325,-0.345,1.471,9.511,1
555,35.23566727,-97.45383362,343,20.44,10.6189995,324,-0.203,1.531,9.459,1
556,35.23584902,-97.45388159,343.5,20.37,10.6189995,322,-0.218,1.722,9.508,1
557,35.23603412,-97.45394405,343.1,20.83,10.6189995,323,-0.164,1.759,9.391,1
558,35.23622309,-97.45402559,342.8,21.07,9.101999,323,-0.027,1.706,9.407,1
559,35.23641331,-97.45410445,342.3,21.46,7.585,323,0.212,1.634,9.419,1
560,35.23661094,-97.45417836,342.4,21.71,7.585,324,0.298,1.598,9.405,1
561,35.23679356,-97.45429439,342.7,21.93,7.585,329,-0.04,1.567,9.419,1
562,35.23698234,-97.45436599,342.7,21.93,9.101999,329,-0.076,1.546,9.474,1
563,35.23717968,-97.45444743,340.1,22.07,7.585,330,-0.016,1.529,9.493,1
564,35.23736669,-97.45453004,340.1,22.06,9.101999,330,0.147,1.476,9.454,1
565,35.23755484,-97.45462911,339,22.35,7.585,329,0.053,1.471,9.49,1
566,35.23774294,-97.45471719,339,22.35,9.101999,329,-0.112,1.463,9.498,1
567,35.2379295,-97.45480521,336.8,22.29,7.585,329,-0.121,1.463,9.531,1
568,35.23811426,-97.4549016,336.8,22.29,9.101999,329,0.038,1.445,9.483,1
569,35.23829591,-97.45500599,334.4,22.28,9.101999,331,0.179,1.439,9.511,1
570,35.23847702,-97.45511176,334.4,22.28,10.6189995,330,0.035,1.448,9.523,1
571,35.23865042,-97.45521619,334,22.31,9.101999,330,-0.083,1.468,9.593,1
572,35.23883655,-97.45532155,331.8,22.44,7.585,331,0.07,1.427,9.482,1
573,35.23901156,-97.45544069,332.3,22.23,7.585,332,0.192,1.428,9.388,1
574,35.23918904,-97.45555415,332.3,22.23,9.101999,333,0.101,1.459,9.49,1
575,35.23938465,-97.45564134,332.9,22.19,7.585,330,-0.02,1.473,9.458,1
576,35.23955168,-97.45573332,332.7,22,7.585,329,-0.093,1.488,9.441,1
577,35.23972795,-97.45584421,332.7,22,9.101999,329,-0.222,1.474,9.422,1
578,35.23992086,-97.45593053,333,22.15,7.585,325,-0.251,1.476,9.451,1
579,35.24009254,-97.45603151,332.9,22.08,9.101999,325,-0.307,1.482,9.451,1
580,35.24027849,-97.45613743,333,22.16,9.101999,324,-0.298,1.474,9.502,1
581,35.24044258,-97.4562441,332.3,22.26,9.101999,323,-0.218,1.462,9.497,1
582,35.24061856,-97.45634355,332.7,22.26,7.585,320,-0.392,1.459,9.461,1
583,35.24079819,-97.45644738,332.3,22.28,9.101999,320,-0.218,1.446,9.461,1
584,35.24097601,-97.4565613,332.3,22.28,10.6189995,320,-0.234,1.452,9.493,1
585,35.24115365,-97.45666559,332.5,22.34,7.585,324,-0.38,1.45,9.488,1
586,35.24133753,-97.45679004,332.4,22.39,7.585,323,-0.313,1.439,9.476,1
587,35.24168326,-97.45702129,332.2,22.31,9.101999,322,-0.135,1.451,9.5,1
588,35.24186422,-97.45713943,332.8,22.39,7.585,322,-0.154,1.441,9.492,1
589,35.24205516,-97.45724137,332.8,22.31,7.585,320,-0.328,1.44,9.482,1
590,35.24224176,-97.45736178,332.2,22.35,7.585,321,-0.358,1.438,9.527,1
591,35.24241996,-97.45747644,332.2,22.35,9.101999,321,-0.282,1.426,9.481,1
592,35.24259363,-97.45758306,332.2,22.34,7.585,320,-0.221,1.43,9.472,1
593,35.2427757,-97.45770427,332.3,22.35,7.585,323,-0.2,1.41,9.441,1
594,35.24296995,-97.45782383,332.3,22.33,7.585,322,-0.22,1.434,9.469,1
595,35.24315218,-97.45793517,332.4,22.3,7.585,323,-0.227,1.432,9.492,1
596,35.24332044,-97.45804411,332.8,22.34,7.585,322,-0.206,1.424,9.497,1
597,35.24350419,-97.45813821,332.9,22.18,7.585,320,-0.262,1.43,9.473,1
598,35.24368208,-97.45824939,332.9,22.17,9.101999,320,-0.257,1.456,9.498,1
599,35.24386358,-97.45836452,332.7,22.2,7.585,319,-0.261,1.448,9.486,1
600,35.24403934,-97.45847854,332.5,22.23,7.585,319,-0.266,1.44,9.497,1
