time,lat,lng,bearing,spd,acc,alt,accx,accy,accz,stable
0,35.20472731,-97.41998358,0.3,5.45,3,329,-1.013,3.045,9.37,0
1,35.20477852,-97.41999132,359.5,5.35,3,329,-0.929,3.232,9.597,0
2,35.20483092,-97.41998904,0.1,5.570081,3,330,-0.961,3.837,9,0
3,35.2048937,-97.42000095,0.4,6.340197,3,331,-0.959,3.639,9.594,0
4,35.20496198,-97.4200001,0.2,6.89,3,331,-1.042,3.642,9.408,0
5,35.20502529,-97.420001,0.1,7.21,3,331,-1.011,3.608,9.186,0
6,35.20509234,-97.42000079,0,7.4900265,3,331,-1.058,3.372,9.331,0
7,35.20516052,-97.41999938,359.9,7.69,3,332,-1.234,3.281,9.519,0
8,35.2052329,-97.42000354,359.7,7.7400255,3,332,-1.101,2.821,9.429,0
9,35.20530212,-97.41999866,359.8,7.560106,3,332,-0.747,1.873,9.618,0
10,35.20536107,-97.41999981,0.6,6.3600707,3,332,-1.58,2.402,9.431,0
11,35.2054132,-97.42000005,357,5.1700096,3,332,-2.938,2.546,9.475,0
12,35.20545542,-97.42002015,338.5,4.7,3,332,-3.319,2.883,9.336,0
13,35.20548572,-97.42005842,316.9,4.5885506,3,332,-2.671,3.652,9.549,0
14,35.20549568,-97.42011304,288.2,4.882008,3,332,-1.819,4.112,9.345,0
15,35.2055045,-97.420169,279,5.211161,3,332,-1.328,3.991,9.234,0
16,35.20551148,-97.4202357,275.4,5.930135,3,331,-1.196,4.082,9.241,0
17,35.20551967,-97.42031557,273.8,6.650188,3,332,-1.066,3.481,9.483,0
18,35.2055237,-97.42039992,272.7,7.05,3,332,-1.213,3.578,9.893,0
19,35.2055296,-97.42047786,272.4,7.0910153,3,333,-0.785,3.467,9.737,0
20,35.20553098,-97.42055008,271.8,6.8301167,3,333,-1.097,3.583,9.607,0
22,35.20552974,-97.4206324,270.8,7.270007,3,333,-1.083,3.821,9.074,0
23,35.20553027,-97.42072465,270,7.850006,3,334,-1.16,3.833,9.222,0
24,35.20553373,-97.42081764,269.1,8.120499,3,333,-0.763,3.505,9.58,0
25,35.20552867,-97.42090921,268.6,8.321352,3,333,-0.794,3.52,9.594,0
26,35.20553316,-97.42101067,269.9,8.830022,3,333,-0.78,3.465,9.523,0
27,35.20553637,-97.42121403,270.6,9.200087,3,333,-1.37,3.279,9.664,0
28,35.20554002,-97.42131717,270.8,9.110137,3,332,-1.139,3.288,9.437,0
29,35.20554148,-97.42141543,269.6,9.060022,3,332,-1.287,3.555,9.885,0
30,35.20553821,-97.421518,269.1,9.07,3,332,-0.861,3.318,9.659,0
31,35.20554199,-97.42161874,269.1,9.010051,3,332,-0.781,3.192,9.038,0
32,35.2055401,-97.42172561,269.6,8.970022,3,331,-0.695,2.997,9.076,0
33,35.2055395,-97.42182755,268.9,8.731465,3,331,-0.753,3.097,9.579,0
34,35.20553415,-97.42192305,269.2,8.820142,3,331,-0.979,3.107,9.114,0
35,35.20551986,-97.42202016,267.9,8.820459,3,331,-1.045,3.13,9.715,0
36,35.20550981,-97.42211255,265.9,8.770052,3,331,-0.854,3.206,9.509,0
37,35.20549638,-97.42220678,265,8.732067,3,331,-0.358,3.13,9.653,0
38,35.20548714,-97.42230204,266.4,8.571143,3,332,-0.26,3.277,9.412,0
39,35.20548403,-97.4224013,269.6,8.49,3,331,-0.286,3.313,9.168,0
40,35.20549124,-97.42249028,272.9,8.330024,3,331,-0.358,3.413,10.032,0
41,35.20549891,-97.42258215,274.6,8.410213,3,330,-0.929,3.507,9.903,0
42,35.2055063,-97.42267087,273.3,8.370006,3,330,-0.942,3.53,9.65,0
43,35.20550871,-97.4227643,271.5,8.420006,3,331,-1.271,3.133,8.779,0
44,35.20550755,-97.42286551,270.1,8.460006,3,331,-1.017,3.013,9.724,0
45,35.20550539,-97.42295693,269.4,8.430024,3,331,-0.957,3.456,9.854,0
46,35.2055063,-97.42302262,269.4,8.270024,3,327,-0.781,2.811,9.428,0
47,35.2055031,-97.42310628,269.7,8.100025,3,326,-0.933,2.663,9.673,0
48,35.20550845,-97.42319507,270,7.36,3,326,-0.873,2.452,9.383,0
49,35.2055089,-97.4232667,270.1,6.5600305,3,326,-0.88,2.28,9.355,0
50,35.2055106,-97.42332299,269.9,5.64,3,326,-0.844,2.091,9.67,0
51,35.20551268,-97.42337485,271.2,4.550011,3,326,-0.831,2.236,9.562,0
53,35.20551128,-97.42341033,270,3.11,3,326,-0.852,2.861,9.416,0
54,35.20551347,-97.42344073,270.1,2.5200794,3,325,-0.74,2.96,9.615,0
55,35.20551244,-97.42346257,270.9,2.0500975,3,325,-0.61,3.139,9.492,0
56,35.20551416,-97.42348357,271.5,2.0600243,3,325,-0.071,4.172,9.345,0
57,35.20551373,-97.42350907,271.5,2.180023,3,325,1.22,4.326,9.234,0
58,35.20556653,-97.42356029,330.1,4.340104,3,326,1.337,5.115,9.145,0
59,35.20563162,-97.4235737,349.4,6.1402035,3,326,-0.021,4.89,9.024,0
60,35.20570149,-97.4235757,357.3,7.701461,3,326,-0.616,4.654,9.136,0
61,35.20577998,-97.42357165,358.4,9.120269,3,326,-1.173,4.746,9.283,0
62,35.20587968,-97.42357689,358.2,10.132176,3,326,-1.112,4.178,8.853,0
63,35.2059815,-97.4235792,358.7,11.240217,3,327,-1.247,4.382,9.716,0
64,35.20609304,-97.42358167,358.9,12.180592,3,327,-1.429,4.645,10.216,0
65,35.20621672,-97.42358544,359.3,13.140016,3,327,-1.025,4.21,9.34,0
66,35.20634669,-97.42358479,359.7,13.990357,3,328,-0.982,4.204,9.397,0
67,35.20648404,-97.42357905,0.4,14.950164,3,328,-0.999,4.274,9.568,0
68,35.2066252,-97.42357778,0.4,15.790202,3,329,-0.995,3.98,9.065,0
69,35.20677707,-97.42357464,0.4,16.540194,3,329,-0.905,3.959,9.458,0
70,35.20693444,-97.42357388,0.1,17.350416,3,330,-1.174,4.111,9.086,0
71,35.20709698,-97.42357224,359.8,18.03028,3,330,-1.486,4,9.11,0
72,35.20726356,-97.42357763,358.8,18.690098,3,331,-1.46,3.981,9.184,0
73,35.20744006,-97.42358838,357.8,19.38001,3,331,-1.229,3.964,9.404,0
74,35.20762371,-97.42359797,357.3,19.95009,3,331,-0.916,3.842,9.298,0
75,35.20781244,-97.42360634,357.5,20.480549,3,331,-0.642,3.801,9.234,0
76,35.20800093,-97.42361266,358.3,21.05077,3,332,-0.613,3.821,9.368,0
77,35.20819859,-97.42361189,359.5,21.610455,3,333,-0.856,3.474,9.344,0
78,35.20839723,-97.42361766,359.8,21.860916,3,333,-0.945,2.913,9.342,0
79,35.20859312,-97.42361525,0,21.550392,3,334,-1.06,2.874,9.327,0
80,35.2087843,-97.42362049,359.9,21.040403,3,334,-0.991,2.859,9.296,0
81,35.20897072,-97.42361924,359.8,20.530548,3,334,-0.919,2.901,9.529,0
82,35.20915781,-97.4236239,0.1,20.08009,3,335,-0.998,2.883,9.428,0
83,35.20933674,-97.42362906,0.1,19.590023,3,335,-1.018,2.854,9.419,0
84,35.20950332,-97.42362469,0,19.060093,3,336,-0.928,2.837,9.265,0
85,35.20966917,-97.42362532,359.9,18.590067,3,335,-0.891,2.737,9.477,0
86,35.20983092,-97.42362923,0,18.1001,3,335,-0.919,2.933,9.334,0
87,35.20998902,-97.42362722,0.1,17.620556,3,336,-0.931,2.885,9.301,0
89,35.2101445,-97.42362824,0.2,17.280567,3,336,-0.863,3.413,9.205,0
90,35.2102949,-97.42361001,1,16.790049,3,334,-0.926,3.471,9.3,0
91,35.21045194,-97.42360378,1.4,16.940027,3,334,-1.043,3.503,9.246,0
92,35.21060828,-97.42359839,1.4,17.28,3,334,-1.108,3.423,9.433,0
93,35.21077059,-97.42359638,1.4,17.490002,3,334,-1.321,3.421,9.459,0
94,35.21093066,-97.42359154,0.7,17.66007,3,334,-0.937,3.189,9.337,0
95,35.21124892,-97.42359334,359.8,17.920002,3,333,-0.968,3.228,9.327,0
96,35.21140975,-97.42359413,359.8,18.090012,3,333,-0.971,3.387,9.366,0
97,35.21157816,-97.42359311,0.1,18.200026,3,333,-1.062,3.426,9.452,0
98,35.21174397,-97.42359502,0.3,18.270025,3,334,-0.908,3.2,9.415,0
99,35.21190238,-97.4235945,359.8,18.45007,3,334,-0.977,3.247,9.231,0
100,35.2120767,-97.42359518,359.7,18.570066,3,334,-0.941,3.339,9.317,0
101,35.2122412,-97.42358803,359.8,18.740095,3,333,-0.948,3.405,9.235,0
102,35.21241015,-97.42359357,0.1,18.910095,3,334,-0.959,3.439,9.185,0
103,35.21258504,-97.42360018,0.2,19.060009,3,335,-0.966,3.291,9.287,0
104,35.21276052,-97.42360288,0.3,19.250065,3,335,-1.045,3.286,9.441,0
105,35.21293472,-97.42360189,0.3,19.440166,3,335,-1.003,3.335,9.281,0
106,35.2131105,-97.42359717,0.2,19.580164,3,335,-0.938,3.206,9.252,0
107,35.21329274,-97.42359631,0.3,19.720001,3,335,-1.051,3.398,9.332,0
108,35.21346893,-97.42359816,0.1,19.790003,3,335,-1.033,3.032,9.622,0
109,35.21364574,-97.42360036,0,19.59004,3,335,-1.035,2.918,9.625,0
110,35.21382028,-97.42360017,359.8,19.31004,3,335,-1.04,2.908,9.801,0
111,35.21399881,-97.4236062,359.8,18.880095,3,334,-1.003,2.824,9.508,0
112,35.21416255,-97.42360654,359.7,18.54027,3,334,-0.803,2.696,9.804,0
113,35.21432823,-97.42360419,359.8,17.990803,3,334,-0.902,3.16,9.556,0
114,35.21449187,-97.42360376,359.9,18.020712,3,335,-0.962,3.007,9.373,0
115,35.2146519,-97.42360355,359.9,17.900278,3,335,-1.039,2.977,9.443,0
116,35.21480745,-97.42360801,359.9,17.550138,3,335,-1.031,3.033,9.222,0
117,35.21496084,-97.42360794,359.8,17.210045,3,335,-1.02,3.057,9.155,0
118,35.215114,-97.42360662,0,17.100105,3,336,-1.017,2.915,9.644,0
119,35.21526481,-97.42360794,0,16.87036,3,335,-1.053,3.007,9.408,0
120,35.21541748,-97.42361335,359.9,16.630075,3,335,-1.132,3.005,9.363,0
121,35.21556257,-97.42360693,0.1,16.31015,3,335,-0.964,3.125,9.321,0
122,35.21570702,-97.42360136,0.2,16.200111,3,334,-0.984,3.17,9.466,0
123,35.21585416,-97.42360186,0.1,16.260077,3,334,-1.048,3.092,9.456,0
124,35.21599635,-97.42360081,0.1,16.120005,3,334,-1.018,2.854,9.504,0
125,35.2161391,-97.42359464,0,15.850004,3,334,-0.907,2.924,9.476,0
126,35.21628339,-97.42359341,0,15.380263,4,335,-0.971,2.94,9.505,0
127,35.21641509,-97.42359483,0,15.04003,4,335,-0.89,2.787,9.506,0
128,35.21654085,-97.42358906,0.1,14.600055,4,335,-0.902,2.832,9.532,0
129,35.21666954,-97.4235903,0.1,14.200225,4,334,-0.789,2.768,9.559,0
130,35.21679151,-97.42358154,0.2,13.70009,4,335,-0.478,2.913,9.82,0
132,35.21691519,-97.423583,0.1,13.270136,4,335,-1.11,2.67,9.237,0
133,35.21703307,-97.42358013,0.6,12.640396,3,336,-0.9,2.852,9.096,0
134,35.2171411,-97.42358238,0,12.230261,3,335,-1.217,2.727,8.916,0
135,35.217253,-97.42358554,359.9,11.760426,3,335,-1.032,2.627,9.873,0
136,35.21735587,-97.42358612,359.9,11.170286,3,335,-0.838,2.047,9.99,0
137,35.21744871,-97.42358691,359.8,10.520386,3,336,-0.747,1.846,9.811,0
138,35.21752824,-97.42358771,359.3,9.160267,3,336,-0.851,2.189,9.497,0
139,35.21759745,-97.42358854,359.2,7.800058,3,336,-0.834,2.848,9.721,0
140,35.21769486,-97.4235876,359.6,6.280032,3,336,-0.679,3.139,9.817,0
141,35.21774269,-97.42358837,359.7,5.950302,3,336,-0.871,3.171,9.464,0
142,35.21779181,-97.42358189,0.2,6.0501323,3,336,-1.047,4.051,9.141,0
143,35.21785586,-97.42357736,359.9,6.7804723,3,337,-1.097,4.317,9.224,0
144,35.21792336,-97.42357485,0.4,7.4003315,3,336,-1.091,4.233,9.365,0
145,35.2180086,-97.42358231,359.9,8.410481,3,336,-1.12,4.263,9.169,0
146,35.21809361,-97.42358599,359.1,9.360769,3,336,-0.774,4.09,9.409,0
147,35.21818616,-97.42358189,0,10.090402,3,335,-0.971,4.294,9.334,0
148,35.21828469,-97.4235842,0.4,10.910774,3,335,-0.776,3.977,9.131,0
149,35.21838704,-97.42358494,0.7,11.600431,3,335,-0.695,3.697,9.27,0
150,35.21849836,-97.42358109,0.7,11.920205,3,335,-0.841,3.584,9.409,0
151,35.21861488,-97.42358267,0.3,12.070265,3,336,-0.854,3.645,9.189,0
152,35.2187233,-97.42358326,0.4,12.29026,3,336,-0.718,3.474,9.48,0
153,35.21883909,-97.42358476,0,12.570004,3,336,-0.872,3.126,8.946,0
154,35.21894803,-97.42358081,359.9,12.390017,3,336,-0.757,3.289,9.117,0
155,35.21905813,-97.42358505,0.1,12.16,3,336,-0.838,3.12,9.185,0
156,35.21916493,-97.4235833,0.3,11.970004,3,336,-1.13,2.468,9.233,0
157,35.21926138,-97.42357723,0.3,11.430071,3,336,-0.892,1.824,9.514,0
158,35.21935451,-97.42357886,359.8,10.280122,3,336,-0.719,1.763,9.854,0
159,35.21943348,-97.42358517,359.2,8.85,3,337,-0.73,1.818,9.962,0
160,35.21949672,-97.42358863,359,7.36,3,337,-1.015,2.697,9.523,0
161,35.21955529,-97.42358663,359.6,6.54,3,336,-0.819,2.031,9.708,0
162,35.21960757,-97.42359352,359,5.65,3,336,-0.872,2.186,9.677,0
163,35.21964987,-97.42359979,358.2,4.4900107,3,335,-0.789,2.131,9.689,0
164,35.21967198,-97.42359682,359.7,2.97,3,336,-0.829,2.535,9.64,0
165,35.21968891,-97.42359584,359.7,2.0400245,3,336,-0.839,2.86,9.501,0
166,35.2197027,-97.42359632,359.7,1.65,3,336,-0.864,2.99,9.408,0
167,35.21971617,-97.42359921,359.7,1.28,3,336,-0.852,2.834,9.497,0
168,35.21971617,-97.42359921,359.7,1.28,3,336,-0.844,2.776,9.559,0
169,35.21972612,-97.42361549,359.7,0.36,3,335,-0.876,3.251,9.413,0
170,35.21972612,-97.42361549,359.7,0.36,3,335,-0.868,3.334,9.421,0
171,35.21972612,-97.42361549,359.7,0.36,3,335,-0.874,3.351,9.397,0
172,35.21973761,-97.42362181,0,0,3,334,-0.877,3.355,9.413,0
173,35.21973761,-97.42362181,0,0,3,334,-0.875,3.542,9.351,0
174,35.21973761,-97.42362181,0,0,3,334,-0.937,4.59,9.047,0
175,35.21973761,-97.42362181,0,0,3,334,-1.034,5.106,8.978,0
176,35.21976814,-97.42362446,0.6,2.4800203,3,333,-1.012,5.352,8.821,0
178,35.21979925,-97.4236153,0.9,4.31,3,334,-1.011,5.169,8.838,0
179,35.21986369,-97.42361021,1.1,6.3402843,3,334,-0.88,4.806,8.798,0
180,35.21993628,-97.42360523,0.8,8.080055,3,334,-0.927,4.514,8.886,0
181,35.22002018,-97.42360043,0.6,9.370432,3,334,-1.035,4.122,9.103,0
182,35.22011073,-97.4235999,0.3,10.340484,3,335,-1.21,4.149,9.554,0
183,35.22020982,-97.42359783,0.2,11.07065,3,335,-0.969,4.015,9.334,0
184,35.22031806,-97.42359507,0.1,11.870341,3,334,-0.995,3.988,9.336,0
185,35.22054801,-97.42358736,0.2,13.300376,3,334,-1.096,4.166,9.168,0
186,35.22067813,-97.42358435,0.3,13.950358,3,334,-1.14,4.07,9.029,0
187,35.22081177,-97.42357695,0.2,14.640277,3,333,-1.193,4.033,8.975,0
188,35.22095091,-97.42357822,0,15.280327,3,333,-1.342,3.873,8.921,0
189,35.22109127,-97.42358176,359.3,15.910531,3,334,-1.378,3.747,9.211,0
190,35.22124468,-97.42358931,358.5,16.540304,3,334,-1.081,3.992,9.392,0
191,35.22140113,-97.42359363,359,17.090494,3,333,-0.536,3.885,9.209,0
192,35.22155961,-97.42359317,0,17.620409,3,334,-0.715,3.656,9.668,0
193,35.221716,-97.4235914,0.2,17.520483,3,334,-0.876,2.987,9.583,0
194,35.22186661,-97.42358874,0.3,17.100422,3,334,-1.075,3.155,9.313,0
195,35.2220181,-97.42358709,0.4,16.980354,3,335,-1.063,3.225,9.295,0
196,35.2221733,-97.42358269,0.4,17.030355,3,335,-1.004,3.379,9.336,0
197,35.222327,-97.42357978,0.3,17.090422,3,335,-1.181,3.465,9.161,0
198,35.22247814,-97.42357661,0.4,16.960356,3,335,-0.951,3.013,9.405,0
199,35.22262707,-97.42357604,0.7,16.580301,3,336,-0.763,3.13,9.432,0
200,35.22277353,-97.42357549,1.1,16.410368,3,336,-0.877,3.043,9.528,0
201,35.22291757,-97.42357052,1.4,16.150309,3,336,-0.952,3.153,9.409,0
202,35.22306003,-97.42356607,1.3,16.02045,3,336,-1.248,3.137,9.386,0
203,35.22320152,-97.42356132,0.9,15.830455,3,337,-1.113,3.263,9.378,0
204,35.22334239,-97.42355976,0.8,15.700318,3,337,-1.149,3.563,9.363,0
205,35.22348309,-97.42355891,0.7,15.830382,3,338,-0.862,3.014,9.469,0
206,35.22362094,-97.42355193,0.7,15.480391,3,338,-0.937,2.6,9.478,0
207,35.22375406,-97.42354907,0.6,15.050269,3,338,-1.016,2.839,9.404,0
208,35.22388581,-97.42354727,0.6,14.610671,3,338,-1.107,2.881,9.482,0
209,35.22401065,-97.42354958,0.6,14.150427,3,339,-1.112,2.93,9.575,0
210,35.22413414,-97.42355224,0.5,13.710296,3,339,-1.141,2.919,9.42,0
211,35.22425502,-97.42354635,0.3,13.380302,3,339,-1.073,2.903,9.501,0
212,35.22436819,-97.42354382,0.6,12.780317,3,339,-1.087,2.849,9.577,0
213,35.22447627,-97.42354517,0.3,12.320102,3,339,-1.154,2.908,9.384,0
214,35.22458207,-97.42353791,359.9,11.8301525,3,338,-1.103,2.797,9.535,0
215,35.22468218,-97.423542,359.7,11.350216,3,339,-1.02,2.889,9.464,0
216,35.22477804,-97.42354084,0,10.86046,3,339,-0.928,2.891,9.575,0
217,35.2248685,-97.42353793,0.2,10.400812,3,339,-0.963,2.839,9.36,0
218,35.22495857,-97.42353806,0.6,9.910409,3,340,-0.881,1.94,9.732,0
219,35.22503213,-97.42353852,0.6,8.750206,3,340,-0.972,2.128,9.704,0
220,35.22509317,-97.42353764,0.6,7.21034,3,340,-1.032,2.69,9.493,0
221,35.22514841,-97.42353267,0.6,6.350071,3,340,-1.004,2.67,9.466,0
222,35.2252013,-97.42353091,0.6,5.9901333,3,340,-0.945,2.178,9.578,0
223,35.22524508,-97.42352742,0.5,4.98009,3,340,-1.014,2.023,9.733,0
224,35.22527762,-97.42352831,0.2,3.6900136,3,340,-0.994,2.138,9.657,0
225,35.2253008,-97.42352626,0.2,2.41,3,340,-0.971,2.606,9.592,0
226,35.22531489,-97.42352732,0.4,1.4901342,3,341,-1.037,2.988,9.491,0
227,35.22531489,-97.42352732,0.4,1.4901342,3,341,-1.049,3.211,9.369,0
229,35.22532769,-97.42352433,0.4,0.9208692,3,341,-1.042,3.166,9.413,0
230,35.22532769,-97.42352433,0.4,0.9208692,3,341,-1.066,3.139,9.439,0
231,35.22533967,-97.42352573,0.4,0.5800862,3,340,-1.052,3.157,9.4,0
232,35.22533967,-97.42352573,0.4,0.5800862,3,340,-1.047,3.182,9.383,0
233,35.22533967,-97.42352573,0.4,0.5800862,3,340,-1.031,3.274,9.428,0
234,35.22533967,-97.42352573,0.4,0.5800862,3,340,-1.032,3.279,9.451,0
235,35.22533967,-97.42352573,0.4,0.5800862,3,340,-1.049,3.588,9.31,0
236,35.22533967,-97.42352573,0.4,0.5800862,3,340,-1.057,3.652,9.272,0
237,35.22533967,-97.42352573,0.4,0.5800862,3,340,-1.138,4.584,9.082,0
238,35.22537356,-97.42352916,0.6,2.5500195,3,339,-1.109,4.851,9.005,0
239,35.22540866,-97.42352859,1,4.14,3,339,-1.173,5.05,8.884,0
240,35.22548319,-97.42353504,0.2,5.830214,3,339,-1.177,4.986,8.776,0
241,35.22554854,-97.42353392,0.3,7.270062,3,339,-1.076,4.632,8.981,0
242,35.22563476,-97.42354351,0.5,8.470054,3,339,-1.196,4.621,9.263,0
243,35.22572488,-97.42354198,0.3,9.560257,3,339,-1.086,4.585,9.15,0
244,35.22582863,-97.42354356,0.7,10.730116,3,339,-1.21,4.625,9.226,0
245,35.22594095,-97.42355133,0.7,11.83027,3,339,-1.029,4.434,9.21,0
246,35.22605834,-97.42355039,0.7,12.840191,3,339,-1.029,4.067,9.042,0
247,35.22618329,-97.42355019,0.7,13.790091,3,340,-1.095,4.292,9.16,0
248,35.2263158,-97.4235469,0.4,14.67123,3,340,-0.928,4.175,9.279,0
249,35.22645687,-97.42354579,0.4,15.540389,3,341,-1.023,3.987,9.344,0
250,35.22660093,-97.42354197,0.5,16.230076,3,341,-1.154,3.886,9.311,0
251,35.22675258,-97.42353966,0.4,16.730242,3,341,-1.112,3.617,9.372,0
252,35.22690139,-97.42353437,0.5,17.010355,3,341,-1.189,3.504,9.228,0
253,35.227061,-97.42353645,0.1,17.340141,3,342,-1.075,3.563,9.366,0
254,35.22721522,-97.4235287,0.2,17.640139,3,342,-0.827,3.433,9.381,0
255,35.2273837,-97.4235209,0.6,17.9001,3,340,-1.098,3.58,9.421,0
256,35.22754426,-97.42351939,0.6,18.090044,3,340,-1.131,3.207,9.415,0
257,35.22770631,-97.42351491,0.6,17.760227,3,339,-0.826,3.051,9.602,0
258,35.2278682,-97.4235161,0.7,17.57023,3,339,-0.969,3.093,9.466,0
259,35.22802439,-97.42351115,0.7,17.470285,3,340,-0.895,3.163,9.543,0
260,35.22818367,-97.42351343,0.9,17.420183,3,339,-1.1,3.137,9.59,0
261,35.22833885,-97.42351321,0.5,17.350142,3,339,-1.256,3.207,9.478,0
262,35.22849128,-97.42351496,359.7,17.240417,3,340,-1.243,3.164,9.457,0
263,35.22865117,-97.42352062,358.9,17.130493,3,340,-0.946,3.415,9.289,0
264,35.22880871,-97.42352165,359.1,17.330185,3,340,-0.73,3.379,9.372,0
265,35.22896621,-97.42352582,359.5,17.640228,3,340,-0.898,3.668,9.276,0
266,35.22913063,-97.42352283,0,17.970177,3,341,-0.892,3.692,9.456,0
267,35.22929788,-97.42352058,0.4,18.23022,3,341,-0.962,3.642,9.317,0
268,35.22946715,-97.4235232,0.5,18.510326,3,341,-0.981,3.534,9.216,0
269,35.22963498,-97.42352238,0.4,18.780384,3,341,-1.114,3.482,9.412,0
270,35.22980683,-97.42352132,0.5,19.020317,3,341,-1.053,3.521,9.333,0
271,35.22997817,-97.4235193,0.6,19.190262,3,342,-1.045,3.026,9.523,0
272,35.23015001,-97.42351777,0.8,18.94013,3,342,-1.074,3.326,9.356,0
273,35.23031825,-97.42351531,0.9,18.660385,3,342,-0.858,2.822,9.517,0
274,35.23048285,-97.42350917,0.9,18.400272,3,343,-0.845,2.915,9.516,0
275,35.23064676,-97.42350789,0.9,18.0301,3,343,-0.871,2.771,9.527,0
276,35.23081014,-97.42350736,0.9,17.630045,3,343,-0.898,2.649,9.559,0
277,35.23096361,-97.42350595,1.1,17.260002,3,343,-0.968,2.843,9.352,0
278,35.23111383,-97.42350333,1.1,16.920002,3,344,-0.961,2.927,9.12,0
279,35.23126022,-97.42350017,1.2,16.570074,3,343,-1.35,2.608,9.165,0
280,35.23140706,-97.42349695,1.1,16.34011,3,343,-1.911,2.34,9.975,0
281,35.23154908,-97.42350124,359,16.000027,3,344,-1.055,2.519,9.307,0
283,35.23168524,-97.42351109,356.8,15.560158,3,344,-0.614,1.767,10.11,0
284,35.23181615,-97.42352187,357,14.250172,3,344,-0.781,1.658,9.688,0
285,35.23193128,-97.42352772,358.3,12.590397,3,344,-0.549,2.212,9.701,0
286,35.23202961,-97.42352937,359.2,11.080545,3,344,-0.744,2.012,9.588,0
287,35.23211367,-97.42353247,359.6,9.5104265,3,344,-0.466,1.629,9.76,0
288,35.23218709,-97.4235373,359.7,7.8204093,3,344,-0.75,1.666,9.758,0
289,35.23224239,-97.4235331,0.4,6.0404058,3,344,-0.768,2.205,9.603,0
290,35.23231784,-97.42353039,0.4,3.2703822,3,345,-0.777,2.396,9.553,0
291,35.23233611,-97.42352751,0.6,2.50018,3,344,-0.849,3.024,9.425,0
292,35.23235346,-97.42352827,0.4,2.2403572,3,344,-0.888,3.303,9.381,0
293,35.23237152,-97.42352749,0.2,2.1900914,3,344,-0.847,3.293,9.503,0
294,35.23238719,-97.42352576,0.3,1.7802527,3,344,-0.765,2.636,9.579,0
295,35.23238719,-97.42352576,0.3,1.7802527,3,344,-0.794,3.023,9.498,0
296,35.23238719,-97.42352576,0.3,1.7802527,3,344,-0.788,2.927,9.542,0
297,35.23238719,-97.42352576,0.3,1.7802527,3,344,-0.77,3.365,9.371,0
298,35.23238719,-97.42352576,0.3,1.7802527,3,344,-0.819,3.461,9.356,0
299,35.23239221,-97.42351554,0,0,3,345,-0.829,3.499,9.375,0
300,35.23239221,-97.42351554,0,0,3,345,-0.805,3.489,9.373,0
301,35.23239221,-97.42351554,0,0,3,345,-0.809,3.479,9.369,0
302,35.23239221,-97.42351554,0,0,3,345,-0.796,3.477,9.37,0
303,35.23239221,-97.42351554,0,0,3,345,-0.793,3.469,9.379,0
304,35.23238549,-97.42350604,0,0,3,346,-0.794,3.475,9.378,0
305,35.23238549,-97.42350604,0,0,3,346,-0.794,3.468,9.38,0
306,35.23238549,-97.42350604,0,0,3,346,-0.79,3.484,9.369,0
307,35.23238549,-97.42350604,0,0,3,346,-0.798,3.48,9.352,0
308,35.23238549,-97.42350604,0,0,3,346,-0.796,3.481,9.369,0
309,35.23238549,-97.42350604,0,0,3,346,-0.795,3.481,9.355,0
310,35.23238549,-97.42350604,0,0,3,346,-0.795,3.476,9.381,0
311,35.23238549,-97.42350604,0,0,3,346,-0.801,3.475,9.362,0
312,35.23238549,-97.42350604,0,0,3,346,-0.798,3.473,9.38,0
313,35.23238549,-97.42350604,0,0,3,346,-0.8,3.478,9.367,0
314,35.23238549,-97.42350604,0,0,3,346,-0.79,3.478,9.371,0
315,35.23238549,-97.42350604,0,0,3,346,-0.799,3.473,9.361,0
316,35.23238549,-97.42350604,0,0,3,346,-0.787,3.475,9.372,0
317,35.23238549,-97.42350604,0,0,3,346,-0.796,3.472,9.364,0
318,35.23238549,-97.42350604,0,0,3,346,-0.795,3.476,9.368,0
319,35.23238549,-97.42350604,0,0,3,346,-0.784,3.473,9.348,0
320,35.23238549,-97.42350604,0,0,3,346,-0.804,3.475,9.371,0
321,35.23238549,-97.42350604,0,0,3,346,-0.799,3.48,9.367,0
322,35.23238549,-97.42350604,0,0,3,346,-0.8,3.48,9.359,0
323,35.23238549,-97.42350604,0,0,3,346,-0.795,3.478,9.358,0
324,35.23238549,-97.42350604,0,0,3,346,-0.786,3.502,9.331,0
325,35.23238549,-97.42350604,0,0,3,346,-0.803,3.814,9.249,0
326,35.23238549,-97.42350604,0,0,3,346,-0.907,5.185,8.883,0
327,35.23240606,-97.42350504,0.3,1.770113,3,348,-0.939,5.104,8.788,0
328,35.23243485,-97.42350528,0.5,3.4800575,3,348,-0.786,4.703,8.825,0
329,35.23247838,-97.42350517,0.5,4.9100914,3,347,-0.884,4.458,9.12,0
330,35.23254384,-97.42350568,0.7,5.980301,3,347,-0.76,4.495,8.935,0
331,35.23261244,-97.42350778,0.8,6.9403534,3,347,-0.822,4.011,9.269,0
332,35.23268884,-97.42351416,1,7.770315,3,347,-1.621,3.744,9.259,0
334,35.23275788,-97.42351439,358.9,8.250097,3,347,-2.43,3.448,9.704,0
335,35.23282886,-97.4235299,351.3,8.300024,3,347,-3.39,2.92,9.423,0
336,35.23289463,-97.42356913,335.4,8.270006,3,346,-3.97,2.922,9.056,0
337,35.2329465,-97.42363063,315.1,7.84125,3,347,-4.041,3.483,8.77,0
338,35.23297233,-97.42372203,291.7,8.8606825,3,346,-2.731,4.028,8.99,0
339,35.2329978,-97.4238204,287.5,9.140268,3,346,-1.703,4.019,9.016,0
340,35.23298137,-97.42395309,269.8,10.860373,3,346,-1.118,4.354,9.027,0
341,35.23297848,-97.42422481,269.3,12.62143,3,346,-1.232,4.191,8.86,0
342,35.23297437,-97.4243757,269.5,13.481201,3,345,-1.347,4.515,9.282,0
343,35.23296727,-97.42453846,269.3,14.560494,3,345,-1.239,4.081,9.407,0
344,35.23295532,-97.42471366,268.6,15.320943,3,345,-1.443,3.929,9.104,0
345,35.23294933,-97.42490048,268.7,16.281487,3,346,-1.441,4.19,9.123,0
346,35.23294342,-97.42509439,268.7,17.020752,4,346,-1.169,4.003,9.331,0
347,35.23294541,-97.42528646,268.3,17.540825,4,346,-1.343,3.739,9.753,0
348,35.23294133,-97.42548177,268.5,17.910471,5,345,-1.068,3.305,9.328,0
349,35.23293289,-97.42568095,268.4,18.090277,5,345,-1.032,3.316,8.945,0
350,35.23292567,-97.42588434,268.8,18.410011,5,345,-1.33,3.507,9.123,0
351,35.23292622,-97.42609754,269,18.480042,5,345,-1.152,3.426,9.353,0
352,35.23292723,-97.42629509,269.3,18.64001,6,344,-1.125,3.414,9.577,0
353,35.23291518,-97.42650109,268.7,18.650171,6,344,-1.055,3.492,9.63,0
354,35.23290375,-97.42671652,268.6,18.770323,5,344,-0.959,3.447,9.518,0
355,35.23289383,-97.42692052,268.9,18.84052,5,344,-1.109,3.353,9.349,0
356,35.23288962,-97.42713646,269.1,19.13021,6,344,-0.95,3.329,9.246,0
357,35.23290368,-97.42737235,270,19.51,6,345,-1.053,3.208,9.277,0
358,35.23293424,-97.42764024,270.5,19.730022,7,347,-1.164,3.346,9.695,0
359,35.23292063,-97.42785761,269.7,19.640064,8,347,-1.123,3.246,9.253,0
360,35.2329206,-97.42806499,269.7,19.780306,8,347,-1.054,3.271,9.252,0
361,35.23292237,-97.42827772,269.9,20.030024,9,346,-1.081,2.933,9.636,0
362,35.23291542,-97.42849365,269.9,20.09009,9,346,-0.909,3.027,9.373,0
363,35.23291494,-97.42871035,270.4,19.680023,8,346,-1.007,3.469,9.422,0
364,35.23290822,-97.4289267,270.3,19.680307,8,346,-0.965,3.33,9.275,0
365,35.23290409,-97.42914028,270.5,19.770428,9,345,-1.187,3.075,9.534,0
366,35.23290603,-97.42934731,270.8,19.750162,8,345,-1.382,3.301,9.317,0
367,35.23291732,-97.42956486,270.8,20.12001,8,344,-1.345,3.469,9.372,0
368,35.23291082,-97.42977828,270.2,20.480001,8,344,-1.261,3.615,9.479,0
369,35.23290145,-97.42999659,269.6,20.650154,8,343,-0.936,3.28,9.434,0
370,35.2328964,-97.43022079,269.7,20.910086,7,343,-1.123,3.102,9.423,0
371,35.23290313,-97.43045047,269.8,20.710117,7,343,-1.128,2.954,9.382,0
372,35.2329043,-97.43067467,269.9,20.510002,8,343,-1.154,3.073,9.414,0
373,35.23291682,-97.43091221,269.5,20.50012,5,344,-1.148,3.244,9.614,0
374,35.23291235,-97.43113108,269.5,20.180122,5,344,-1.137,3.25,9.431,0
375,35.23292256,-97.43135969,269.3,20.130009,5,344,-1.14,3.122,9.401,0
376,35.23292208,-97.43157351,269.2,19.74057,4,344,-1.152,3.073,9.162,0
377,35.23291992,-97.43179122,269.3,19.720062,5,344,-1.145,3.404,9.316,0
378,35.23291022,-97.43201001,269.2,19.840063,5,344,-1.157,3.584,9.27,0
379,35.23290876,-97.43223302,269.6,20.28,5,345,-1.095,3.354,9.465,0
380,35.23290297,-97.43245812,269.5,20.540003,5,345,-1.087,2.996,9.265,0
381,35.2329001,-97.43268259,269.9,20.490156,6,345,-1.145,2.951,9.465,0
382,35.23290667,-97.43290143,270.3,20.200249,6,345,-1.145,2.932,9.459,0
383,35.2329113,-97.43311397,270.4,19.870304,6,345,-0.952,3.047,9.571,0
384,35.23291386,-97.43332512,270.5,19.650736,7,345,-1.013,3.196,9.833,0
386,35.23291369,-97.4335372,270.2,19.350128,5,345,-1.208,3.171,9.621,0
387,35.23293443,-97.43376023,270.9,19.01013,5,346,-1.272,3.323,9.404,0
388,35.23290442,-97.43393424,269.2,18.55,5,344,-1.353,3.306,9.239,0
389,35.23290725,-97.43413935,270.2,18.360699,4,344,-1.236,3.246,9.282,0
390,35.23290424,-97.43433806,270.1,18.020401,4,343,-1.342,3.606,9.628,0
391,35.23290266,-97.4345315,270.2,17.870405,4,344,-1.186,3.43,9.388,0
392,35.23290328,-97.4347261,270.2,17.93028,4,344,-1.208,3.26,9.232,0
393,35.23290652,-97.43493031,270.2,18.010069,4,345,-1.166,3.046,9.379,0
394,35.23291207,-97.43512719,270.1,17.960001,3,345,-1.247,3.035,9.425,0
395,35.23292777,-97.43550713,269.9,17.380102,4,344,-1.228,3.083,9.481,0
396,35.23293776,-97.43568885,270.1,17.080074,4,344,-1.185,2.934,9.599,0
397,35.23292946,-97.43588107,269.6,17.21001,5,345,-1.08,2.966,9.51,0
398,35.23293585,-97.43606362,269.9,16.910011,5,345,-1.19,2.579,9.463,0
399,35.23294797,-97.43624273,269.8,16.350077,5,343,-1.049,2.098,9.632,0
400,35.23294045,-97.43641014,268.8,15.470052,5,344,-0.939,1.821,9.604,0
401,35.23293866,-97.4365633,270.2,14.050004,4,344,-1.063,1.841,9.479,0
402,35.23294403,-97.43669778,269.9,12.730003,4,344,-1.124,1.924,9.771,0
403,35.23294038,-97.43681737,268.8,11.360017,4,344,-1.038,1.354,9.862,0
404,35.2329402,-97.43692524,271.5,9.310345,4,344,-0.962,1.082,9.858,0
405,35.23294233,-97.4370155,273.2,8.1813755,5,345,-0.971,1.056,9.952,0
406,35.23295375,-97.4370661,278.5,6.150984,5,345,-1.018,1.024,9.908,0
407,35.2329571,-97.43710777,283.6,4.3011627,6,345,-1.067,1.954,9.664,0
408,35.23294522,-97.4371146,269.2,2.4700203,6,344,-1.159,2.615,9.62,0
409,35.23296433,-97.43711752,294.3,1.0616966,5,344,-1.135,2.9,9.492,0
410,35.23296433,-97.43711752,294.3,1.0616966,5,344,-1.167,3.113,9.534,0
411,35.23295552,-97.43712913,272.6,0.5203845,4,344,-1.191,3.203,9.383,0
412,35.23295552,-97.43712913,272.6,0.5203845,4,344,-1.204,2.958,9.468,0
413,35.23295552,-97.43712913,272.6,0.5203845,4,344,-1.162,3.1,9.436,0
414,35.23295552,-97.43712913,272.6,0.5203845,4,344,-1.16,3.2,9.433,0
415,35.23295552,-97.43712913,272.6,0.5203845,4,344,-1.15,3.222,9.397,0
416,35.23295552,-97.43712913,272.6,0.5203845,4,344,-1.165,3.228,9.398,0
417,35.23295552,-97.43712913,272.6,0.5203845,4,344,-1.166,3.222,9.412,0
418,35.23295552,-97.43712913,272.6,0.5203845,4,344,-1.159,3.225,9.415,0
419,35.23294388,-97.43713026,0,0,5,344,-1.152,3.213,9.422,0
420,35.23294388,-97.43713026,0,0,5,344,-1.147,3.525,9.369,0
421,35.23294388,-97.43713026,0,0,5,344,-1.173,3.673,9.332,0
422,35.23292933,-97.43714349,262.8,0.7723341,4,343,-1.169,3.628,9.317,0
423,35.23293475,-97.43715956,267.7,1.2203689,4,344,-1.231,4.459,9.092,0
424,35.2329252,-97.43717587,263.4,1.9543287,4,344,-1.21,4.57,9.11,0
425,35.23291674,-97.43720893,264.1,3.4042475,4,343,-1.204,4.939,9.036,0
426,35.23291063,-97.43728523,268.5,5.3620987,3,344,-1.291,4.561,9.036,0
427,35.2329428,-97.43736602,269.1,6.790736,4,344,-1.131,4.28,9.194,0
428,35.23294265,-97.43745264,269,7.670789,4,344,-1.258,4.231,9.213,0
429,35.23294009,-97.43754431,268.3,8.840956,4,343,-0.997,4.229,9.067,0
430,35.23294089,-97.43765224,270.2,9.79025,4,344,-1.188,4.072,9.127,0
431,35.2329383,-97.43778217,269.2,10.53017,4,346,-1.151,4.104,9.244,0
432,35.23293066,-97.43791515,269.2,11.340071,4,346,-1.364,3.916,9.192,0
433,35.2329256,-97.43805471,269.6,12.200066,4,346,-1.191,3.959,9.304,0
434,35.23291251,-97.43816654,268.7,12.580572,4,343,-1.08,3.909,9.265,0
435,35.23290204,-97.43829637,268.5,13.210546,4,341,-1.188,3.908,9.344,0
436,35.23290022,-97.43845543,269.1,14.050004,4,342,-1.102,3.912,9.168,0
437,35.23290111,-97.43862151,270.1,14.760004,4,343,-1.026,3.791,9.119,0
438,35.23289922,-97.43878129,270,14.861484,4,343,-1.145,3.787,9.338,0
439,35.23291009,-97.4389684,271.1,15.690816,4,343,-1.129,3.597,9.379,0
440,35.23291136,-97.43915248,270.2,16.310247,4,343,-1.117,3.375,9.422,0
441,35.23292405,-97.43931102,270.2,16.680193,4,341,-1.088,3.335,9.445,0
442,35.23291777,-97.43950303,270.1,16.750147,4,341,-1.224,3.438,9.545,0
444,35.2329169,-97.43969187,270,16.82019,4,341,-1.124,3.307,9.674,0
445,35.23292006,-97.43987966,270.2,16.890045,3,341,-1.092,3.381,9.626,0
446,35.23292824,-97.44007259,270.3,16.960106,3,341,-1.27,3.508,9.308,0
447,35.23292698,-97.44026227,270.2,17.060072,3,340,-1.36,3.449,9.32,0
448,35.23293173,-97.44045271,270.1,17.130072,3,341,-1.218,3.261,9.265,0
449,35.23292531,-97.44064598,269.9,17.23,4,340,-1.16,2.856,9.472,0
450,35.23293481,-97.44083428,270.4,17.120026,4,341,-0.945,2.997,9.411,0
451,35.23292849,-97.44101582,269.8,16.74,4,341,-0.786,2.429,9.146,0
452,35.23290428,-97.44134844,269,15.080013,3,341,-0.684,0.902,9.89,0
453,35.23291468,-97.44147922,270.2,12.320146,3,341,-1.089,1.428,10.157,0
454,35.23291467,-97.44160768,270.1,11.030163,3,342,-1.219,3.399,9.383,0
455,35.23291062,-97.44173937,269.3,11.650518,4,341,-1.329,5.108,8.96,0
456,35.23291092,-97.44190384,268.3,13.600622,4,342,-1.321,5.075,8.976,0
457,35.23290757,-97.44208643,268.3,15.540389,4,342,-1.268,5.238,9.018,0
458,35.23291375,-97.44227988,270.1,17.810137,4,341,-1.208,5.235,8.948,0
459,35.23291084,-97.44248954,269.1,19.191261,4,341,-1.148,5.006,8.798,0
460,35.23291858,-97.44272435,269.5,20.790781,4,341,-1.251,4.268,9.119,0
461,35.23291612,-97.44296924,269.7,21.730331,5,341,-1.374,3.891,9.093,0
462,35.23291628,-97.4432152,270.2,22.450144,4,340,-1.203,3.674,9.114,0
463,35.23291043,-97.44346709,270.1,22.840107,4,340,-1.144,3.469,9.262,0
464,35.23290134,-97.44371636,269.9,23.030003,4,341,-1.059,3.016,9.358,0
465,35.2329078,-97.44397218,270.4,22.83,4,340,-0.99,2.935,9.464,0
466,35.23290146,-97.44421548,269.9,22.400108,3,340,-1.117,2.987,9.435,0
467,35.23290374,-97.44445501,270.3,22.110226,3,340,-1.253,3.139,9.385,0
468,35.23291194,-97.44469745,270.3,21.840057,3,340,-1.388,3.311,9.593,0
469,35.23290164,-97.44492968,270.1,21.530003,3,339,-1.055,2.979,9.596,0
470,35.23290463,-97.44516367,270.2,21.170038,3,340,-1.151,2.814,9.502,0
471,35.23290617,-97.44539647,270,20.790022,3,340,-1.385,2.949,9.292,0
472,35.23291675,-97.44562038,269.5,20.430157,3,340,-1.345,2.983,9.625,0
473,35.23290903,-97.44584329,269.3,20.04009,3,340,-1.134,3.062,9.548,0
474,35.23292699,-97.44606465,270.6,19.750162,3,340,-0.993,3.098,9.651,0
475,35.23291989,-97.44627169,269.6,19.23001,4,341,-0.968,3.123,9.357,0
476,35.23293342,-97.44648661,270.3,19.130064,3,341,-1.233,3.406,9.411,0
477,35.23293857,-97.44669553,270.6,19.080168,3,340,-1.391,3.283,9.39,0
478,35.23293475,-97.44689908,270.4,19.070042,3,341,-1.168,3.035,9.386,0
479,35.23293102,-97.44710771,270.2,18.81017,3,341,-1.32,2.941,9.462,0
480,35.23293087,-97.44731111,270.6,18.420044,3,341,-1.21,2.913,9.146,0
481,35.23292491,-97.44750938,269.9,18.050177,3,342,-1.267,3.026,9.362,0
482,35.23291957,-97.4476985,269.9,17.650024,3,342,-1.147,3.026,9.55,0
483,35.23292092,-97.44788456,269.9,17.24,3,342,-0.791,2.994,9.362,0
484,35.23292196,-97.44806753,270.2,16.910011,3,342,-0.856,3.021,9.448,0
485,35.23292641,-97.44825286,270.3,16.520048,3,342,-0.473,1.48,9.508,0
486,35.23293681,-97.44840758,272.1,14.700217,3,342,-0.59,2.069,9.577,0
487,35.23294755,-97.44855028,273.7,13.090004,3,342,-0.794,2.349,9.694,0
488,35.23295521,-97.44868702,274.1,12.440016,3,343,-0.731,1.058,9.889,0
489,35.23296177,-97.44879996,274.2,10.360077,3,343,-0.589,0.624,9.983,0
490,35.23296093,-97.44890779,273,9.260087,3,344,-0.784,1.027,9.923,0
491,35.23295341,-97.44897815,270.7,7.1604466,3,345,-0.915,1.925,9.739,0
492,35.23296033,-97.44904092,270.9,6.120033,3,345,-0.958,2.869,9.417,0
493,35.23295506,-97.44908339,268.7,5.0700397,3,344,-0.939,2.882,9.487,0
494,35.23296451,-97.44911855,272.3,4.080992,3,345,-0.943,2.341,9.695,0
495,35.23298535,-97.44913679,279,3.26,3,344,-0.978,2.614,9.586,0
496,35.23298535,-97.44913679,279,3.26,3,344,-1.003,3.072,9.421,0
497,35.23300819,-97.4491712,282.2,2.1700232,3,344,-0.99,3,9.501,0
498,35.23299335,-97.44918247,268.5,1.8000277,3,344,-1.04,3.346,9.344,0
499,35.23299335,-97.44918247,268.5,1.8000277,3,344,-1.041,2.961,9.518,0
500,35.2329948,-97.44921228,271.3,1.8900265,3,345,-1.055,2.571,9.537,0
501,35.23300862,-97.4492168,282.9,1.4605479,3,345,-1.089,3.241,9.421,0
502,35.23299661,-97.44922555,268.4,1.2403629,4,347,-1.069,3.461,9.336,0
503,35.23300919,-97.44924918,283.1,1.56,4,346,-1.136,4.052,9.283,0
505,35.23300447,-97.44926463,269.3,1.9101048,3,345,-1.142,4.512,9.07,0
506,35.23300134,-97.44930022,273.2,3.600222,4,346,-1.223,4.694,8.985,0
507,35.2329806,-97.44938106,272.2,5.170348,3,347,-1.119,4.296,8.928,0
508,35.23297995,-97.44945448,272.3,6.580615,3,346,-1.237,3.911,9.27,0
509,35.23296277,-97.44954366,271.8,7.7407813,3,347,-1.268,3.582,9.197,0
510,35.23297714,-97.4496195,271.5,8.111208,3,346,-1.089,3.862,9.148,0
511,35.2329822,-97.44971447,270.8,8.761284,3,346,-0.931,3.258,9.651,0
512,35.23297423,-97.44981283,270.3,9.511183,3,346,-1.183,3.771,9.129,0
513,35.23296162,-97.45003818,270,10.961478,3,345,-1.153,3.657,8.993,0
514,35.23296275,-97.45016957,270.1,11.84331,3,344,-1.133,3.862,8.784,0
515,35.23296228,-97.45030921,269.9,12.632474,3,343,-0.975,3.979,9.282,0
516,35.23295744,-97.45045439,270,13.292167,3,341,-0.957,3.218,9.405,0
517,35.23295576,-97.45060265,270.1,13.5012,3,340,-1.018,3.234,9.83,0
518,35.23295504,-97.45075103,270.2,13.750818,3,340,-1.04,3.127,9.643,0
519,35.23295131,-97.45090036,270,13.83013,3,340,-0.933,3.015,9.435,0
520,35.23294779,-97.45105837,270.4,13.800612,3,341,-1.052,2.992,9.584,0
521,35.23295582,-97.45120161,270.2,13.710014,3,340,-0.832,2.971,9.05,0
522,35.23296367,-97.4513505,270.8,13.610059,3,340,-1.292,3.797,9.032,0
523,35.23297418,-97.45150455,271.4,13.770295,3,339,-0.893,3.708,9.614,0
524,35.23298772,-97.45166341,271.7,14.190426,3,338,-0.809,3.511,9.335,0
525,35.23299162,-97.4518224,272.9,14.210088,3,339,-0.831,3.556,9.195,0
526,35.23300408,-97.45197778,274.2,14.110797,3,339,-1.202,3.39,9.486,0
527,35.23301298,-97.45213017,273.4,14.011574,3,339,-1.234,3.23,9.169,0
528,35.23301839,-97.45228263,272.4,13.803047,3,339,-1.153,3.35,9.355,0
529,35.23301976,-97.45243762,271.8,13.611326,3,340,-1.239,3.881,9.412,0
530,35.23302071,-97.45259109,270.9,13.761922,3,341,-1.169,4.111,9.325,0
531,35.23301894,-97.4527512,270.1,14.092399,3,342,-0.934,3.481,9.443,0
532,35.23301758,-97.45290014,269.6,13.741761,3,342,-0.913,2.672,9.425,0
533,35.23301779,-97.45304461,271.4,13.1667,3,343,-0.581,1.891,9.689,0
534,35.23302853,-97.45316861,273.7,11.428863,4,343,1.475,1.712,9.85,0
535,35.23305101,-97.45325154,281.7,7.923339,3,342,3.199,3.522,9.285,0
536,35.2330743,-97.45333025,287.4,7.4513154,3,341,2.394,4.621,8.757,0
537,35.2331585,-97.45332606,337.2,7.7250757,3,341,1.53,5.071,8.793,0
538,35.23327397,-97.4533586,349.2,10.520475,3,341,0.002,4.919,8.844,0
539,35.23340135,-97.45336923,356.4,11.90015,3,340,-0.707,4.718,8.972,0
540,35.23351811,-97.45336573,358.2,13.160061,3,340,-1.21,4.653,9.155,0
541,35.23364986,-97.45336712,358.1,14.370004,3,340,-1.553,4.309,9.032,0
542,35.23380228,-97.45338112,357.1,15.470029,3,340,-1.728,4.18,8.993,0
543,35.2339543,-97.45340053,355.5,16.540049,3,340,-1.771,4.135,9.084,0
544,35.23411461,-97.45342668,353.7,17.520002,3,340,-2.011,3.968,9.026,0
545,35.2342825,-97.45346147,351.2,18.400011,3,339,-1.575,4.076,9.011,0
546,35.23445875,-97.45350328,349.8,19.220041,3,339,-1.373,3.647,9.11,0
547,35.23463801,-97.45354627,348.9,20.03004,3,339,-1.642,3.331,9.231,0
548,35.23481432,-97.45359469,347.8,20.190039,3,339,-1.871,3.241,9.212,0
549,35.23498959,-97.45364314,346.6,20.300245,3,339,-1.754,3.187,9.338,0
550,35.23516711,-97.45370232,344.2,20.19,3,339,-1.343,3.18,9.484,0
551,35.23533622,-97.45376126,343.2,20.12001,3,339,-1.258,3.301,9.316,0
552,35.23548988,-97.45382195,342.8,19.770063,3,339,-1.214,3.32,9.436,0
553,35.23566826,-97.4538873,342.9,20.11001,4,339,-1.073,3.322,9.319,0
554,35.23584157,-97.45395437,343,20.22006,4,340,-1.151,3.626,9.426,0
555,35.23603349,-97.45401641,343.3,20.660088,4,340,-0.99,3.414,9.333,0
556,35.23623067,-97.45409009,342.9,21.100021,4,339,-0.851,3.567,9.364,0
557,35.23642309,-97.45416832,342.5,21.46,4,339,-0.62,3.483,9.469,0
558,35.23661455,-97.45424059,342.6,21.580036,3,338,-0.732,3.364,9.459,0
559,35.23681422,-97.45432135,342.4,21.890036,4,338,-0.997,3.285,9.422,0
560,35.2369997,-97.45440792,341,22.351183,3,338,-0.921,3.336,9.374,0
562,35.23718319,-97.45448636,340.5,22.100183,3,338,-0.907,3.373,9.461,0
563,35.2373509,-97.45455953,339.5,22.19,3,338,-0.619,3.394,9.43,0
564,35.23751242,-97.45462253,339,22.190056,3,337,-0.748,3.103,9.168,0
565,35.23769891,-97.45471175,338.7,22.180183,3,337,-1.02,3.318,9.311,0
566,35.23788976,-97.45481302,337.4,22.28002,4,337,-1.014,3.274,9.446,0
567,35.23807497,-97.45491077,336.3,22.250225,4,336,-0.801,3.388,9.207,0
568,35.23825975,-97.45501107,335.3,22.19008,5,336,-0.641,3.289,9.494,0
569,35.23844562,-97.45511054,334.8,22.36001,4,336,-0.883,3.243,9.435,0
570,35.23863567,-97.45521418,334.3,22.33,4,336,-0.842,3.091,9.73,0
571,35.23882133,-97.4553256,333.2,22.34002,4,336,-0.735,3.299,9.55,0
572,35.23918253,-97.45555798,332.4,22.360224,4,336,-0.654,3.238,9.461,0
573,35.23935642,-97.45565876,332.6,22.170057,4,335,-0.861,3.381,9.285,0
574,35.23952967,-97.45577555,332.8,22.140036,4,336,-1.077,3.507,9.407,0
575,35.23970779,-97.4558838,332.8,22.240019,4,336,-1.048,3.376,9.263,0
576,35.23990108,-97.45600605,333,22.15002,3,335,-1.21,3.29,9.062,0
577,35.24008421,-97.45611576,332.9,22.16,3,335,-1.174,3.28,9.33,0
578,35.24026347,-97.45623263,332.9,22.19,3,336,-1.251,3.332,9.408,0
579,35.24044246,-97.45634468,332.5,22.240002,3,335,-1.12,3.287,9.289,0
580,35.24060748,-97.45644366,332.6,22.300009,3,336,-1.151,3.32,9.385,0
581,35.24078884,-97.45656604,332.6,22.320019,3,335,-1.214,3.221,9.441,0
582,35.24096766,-97.45668074,332.4,22.250002,3,334,-1.115,3.308,9.273,0
583,35.24113814,-97.4567841,332.6,22.28002,3,335,-1.115,3.3,9.544,0
584,35.24131593,-97.45689555,332.7,22.270002,3,335,-1.315,3.182,9.423,0
585,35.24149207,-97.45700721,332.3,22.320002,3,335,-1.075,3.236,9.311,0
586,35.24166529,-97.45712509,332.4,22.33001,3,335,-1.03,3.331,9.372,0
587,35.24184361,-97.4572342,332.7,22.310009,3,335,-1.079,3.224,9.495,0
588,35.2420246,-97.45734717,332.8,22.330002,3,334,-1.317,3.235,9.482,0
589,35.24219804,-97.45745273,332.4,22.370037,3,334,-1.229,3.221,9.518,0
590,35.24238121,-97.45757927,332.2,22.35002,3,332,-1.148,3.278,9.417,0
591,35.24255823,-97.4576922,332.2,22.360037,3,332,-1.212,3.273,9.289,0
592,35.24273734,-97.45780763,332.3,22.32001,3,331,-1.045,3.108,9.639,0
593,35.24291596,-97.4579247,332.4,22.320019,3,331,-1.153,3.173,9.499,0
594,35.2430979,-97.45803667,332.6,22.290003,3,331,-1.146,3.252,9.51,0
595,35.2432743,-97.45814837,332.7,22.27,3,331,-1.25,3.359,9.436,0
596,35.24345675,-97.45826442,332.8,22.28,3,331,-1.152,3.153,9.352,0
597,35.24363717,-97.45838908,332.8,22.31,3,330,-1.204,3.173,9.423,0
598,35.24381601,-97.45849985,332.7,22.29002,3,330,-1.234,3.328,9.325,0
599,35.24399263,-97.4586124,332.7,22.240002,3,330,-0.944,3.082,9.43,0
600,35.24416792,-97.45872404,332.5,22.28,3,329,-1.021,3.238,9.216,0
