time,lat,lng,bearing,spd,acc,alt,accx,accy,accz,stable,
0,35.502,-97.514,357.7,2.43,4,343,-2.779,-2.067,8.821,1
1,35.502,-97.514,357.7,2.43,4,343,-3.052,-2.391,8.583,1
2,35.502,-97.514,358.2,1.0508,5,343,-2.639,-1.963,8.945,1
3,35.502,-97.514,357.9,1.78,4,344,-1.455,-0.684,9.336,1
4,35.502,-97.514,357.9,1.9,4,344,-2.36,-1.624,9.424,1
5,35.502,-97.514,357.9,1.67,5,344,-2.493,-1.8,8.886,1
6,35.502,-97.514,357.9,1.84,4,343,-2.381,-1.609,9.215,1
7,35.502,-97.514,357.8,2.0601,4,343,-2.341,-1.786,9.345,1
8,35.502,-97.514,357.8,2,5,343,-2.507,-1.71,8.754,1
9,35.502,-97.514,357.8,2.0801,4,344,-2.407,-1.787,9.149,1
10,35.502,-97.514,357.8,2.23,5,344,-2.224,-1.511,9.122,1
11,35.502,-97.514,357.8,2.28,5,344,-2.68,-2.038,8.47,1
12,35.502,-97.514,357.8,2.38,5,344,-2.461,-1.81,8.946,1
13,35.502,-97.514,357.9,2.81,5,345,-2.563,-1.92,8.994,1
14,35.502,-97.514,358.1,3.35,4,345,-2.94,-2.284,8.513,1
15,35.502,-97.514,358.5,4.0003,4,345,-2.621,-1.82,8.727,1
16,35.502,-97.514,358.9,4.9401,4,346,-2.62,-2.264,8.727,1
17,35.502,-97.514,359.2,5.6601,4,346,-2.326,-1.619,8.968,1
18,35.502,-97.514,359.2,6.15,4,346,-2.251,-1.558,9.368,1
19,35.502,-97.514,358.9,6.1,4,347,-2.226,-1.483,9.114,1
20,35.503,-97.514,358.7,5.97,4,347,-1.756,-0.916,9.253,1
21,35.503,-97.514,358.4,5.7,3,347,-2.196,-1.461,8.97,1
22,35.503,-97.514,358.3,5.04,4,347,-2.246,-1.444,9.043,1
24,35.503,-97.514,358.2,4.83,4,348,-2.207,-1.519,8.957,1
25,35.503,-97.514,358.6,4.61,4,347,-2.445,-1.803,9.023,1
26,35.503,-97.514,358.9,4.45,3,347,-2.425,-1.557,9.108,1
27,35.503,-97.514,359.1,4.44,3,347,-2.254,-1.581,9.065,1
28,35.503,-97.514,359.1,4.4,3,347,-2.824,-2.334,8.88,1
29,35.503,-97.514,359.1,4.3,3,347,-1.998,-1.26,9.231,1
30,35.503,-97.514,359,4.64,3,347,-1.776,-1.028,9.482,1
31,35.503,-97.514,359,4.1917,3,348,-2.072,-1.497,9.145,1
32,35.503,-97.514,359,2.5712,3,349,-2.372,-1.706,9.119,1
33,35.503,-97.514,358.9,2.5324,3,349,-2.269,-1.776,8.606,0
34,35.503,-97.514,358.7,2.6007,3,349,-2.369,-1.693,8.977,1
35,35.503,-97.514,358.4,2.6101,3,349,-2.123,-1.448,9.179,1
36,35.503,-97.514,358.4,2.471,3,349,-2.397,-1.679,8.756,1
37,35.503,-97.514,358.1,2.43,3,349,-2.441,-1.665,8.91,1
38,35.503,-97.514,357.8,2.49,3,348,-2.39,-1.729,9.219,1
39,35.503,-97.514,357.7,2.5401,3,348,-2.366,-1.742,9.025,1
40,35.503,-97.514,357.6,2.61,3,348,-2.318,-1.609,8.932,1
41,35.503,-97.514,357.6,2.61,3,348,-2.373,-1.65,9.128,1
42,35.503,-97.514,357.5,2.66,3,348,-2.681,-1.946,8.864,1
43,35.503,-97.514,357.6,2.9101,3,348,-3.19,-2.708,8.553,1
44,35.503,-97.514,357.6,2.9101,3,348,-3.039,-2.417,8.777,1
45,35.503,-97.514,358,4.63,3,349,-2.86,-2.19,8.699,1
46,35.503,-97.514,358.3,5.1505,3,349,-2.365,-1.685,9.124,1
47,35.503,-97.514,358.7,5.1602,4,349,-2.532,-1.718,8.878,1
48,35.503,-97.514,357.6,5.3927,3,349,-2.36,-1.679,8.897,1
49,35.504,-97.514,358,5.6913,3,348,-2.395,-1.659,9.095,1
50,35.504,-97.514,358.3,5.6702,4,348,-2.296,-1.544,8.974,1
51,35.504,-97.514,358.4,5.6701,3,348,-1.825,-1.103,9.377,1
52,35.504,-97.514,358.4,5.32,3,348,-2.045,-1.339,9.381,1
53,35.504,-97.514,358.5,4.4902,3,348,-1.671,-0.894,9.373,0
54,35.504,-97.514,358.3,3.5001,4,348,-1.848,-1.24,9.222,1
55,35.504,-97.514,358.2,2.7303,4,348,-2.046,-1.457,9.05,1
56,35.504,-97.514,358.2,2.1802,4,348,-2.499,-1.887,8.994,1
57,35.504,-97.514,358,2.16,4,348,-2.386,-1.817,9.003,1
58,35.504,-97.514,357.9,2.2901,4,348,-2.34,-1.784,8.867,1
59,35.504,-97.514,357.9,2.36,5,349,-2.376,-1.687,9.298,1
60,35.504,-97.514,357.8,2.4101,5,349,-2.427,-1.75,8.955,1
61,35.504,-97.514,357.7,2.32,5,349,-2.305,-1.785,9.258,1
62,35.504,-97.514,357.7,2.37,4,348,-2.374,-1.807,9.128,1
63,35.504,-97.514,357.6,2.41,5,349,-2.409,-1.654,9.048,1
64,35.504,-97.514,357.6,2.4701,4,349,-2.011,-1.177,9.141,1
65,35.504,-97.514,357.6,2.22,5,350,-2.465,-1.738,8.479,1
66,35.504,-97.514,357.5,2.04,4,349,-2.561,-1.861,8.76,1
67,35.504,-97.514,357.5,2.33,4,350,-2.784,-2.211,8.81,0
68,35.504,-97.514,357.7,3.47,3,350,-2.497,-1.793,8.641,1
69,35.504,-97.514,357.7,4.5607,3,350,-2.402,-1.628,9.363,1
70,35.504,-97.514,357.6,4.8702,3,350,-2.606,-1.74,9.552,0
71,35.504,-97.514,357.8,4.8904,3,350,-2.624,-1.672,8.767,1
72,35.504,-97.514,357.9,5.2402,3,350,-2.554,-1.546,8.974,0
73,35.504,-97.514,358.2,5.3,3,351,-2.324,-1.415,9.15,1
74,35.504,-97.514,358.1,5.1402,3,351,-2.201,-1.235,8.97,1
75,35.504,-97.514,358.1,4.92,3,351,-2.32,-1.362,8.752,1
76,35.504,-97.514,358.1,4.57,3,352,-2.492,-1.371,9.313,1
77,35.504,-97.514,358,4.3803,3,352,-2.469,-1.266,9.153,1
78,35.504,-97.514,358.1,4.25,3,351,-2.541,-1.262,9.196,1
79,35.505,-97.514,358.2,4.07,3,352,-2.57,-1.254,9.034,1
80,35.505,-97.514,358.1,3.91,3,351,-2.903,-1.628,8.909,1
81,35.505,-97.514,358,3.9506,3,351,-2.652,-1.375,9.088,1
82,35.505,-97.514,358,4.3,3,352,-2.646,-1.242,9.126,1
84,35.505,-97.514,357.9,4.3,3,352,-2.507,-1.254,9.055,1
85,35.505,-97.514,357.8,4.18,3,352,-3.038,-1.844,8.658,1
86,35.505,-97.514,357.6,4.01,3,351,-2.635,-1.395,9.11,1
87,35.505,-97.514,357.4,4.39,3,351,-2.64,-1.237,9.229,1
88,35.505,-97.514,357.2,4.52,3,352,-2.669,-1.138,9.059,1
89,35.505,-97.514,357.1,4.45,3,351,-2.521,-1.235,9.178,1
90,35.505,-97.514,357,4.33,3,352,-2.639,-1.108,9.188,1
91,35.505,-97.514,356.9,4.2,3,351,-2.795,-1.074,9.006,1
92,35.505,-97.514,357,4.07,3,351,-2.886,-1.39,8.893,1
93,35.505,-97.514,357.2,3.9001,3,350,-2.809,-1.189,8.972,0
94,35.505,-97.514,357.4,4.06,3,349,-2.714,-1.142,9.326,1
95,35.505,-97.514,357.4,3.78,3,349,-2.217,-0.415,9.465,0
96,35.505,-97.514,357.4,3.0903,3,349,-2.618,-0.78,9.021,1
97,35.505,-97.514,357.4,2.4601,3,349,-2.534,-0.779,9.213,1
98,35.505,-97.514,357.3,2.06,3,349,-2.656,-1.044,9.065,0
99,35.505,-97.514,357.1,1.7904,3,349,-2.889,-1.188,8.603,0
100,35.505,-97.514,356.8,1.66,3,349,-2.726,-1.16,8.83,0
101,35.505,-97.514,356.4,1.7,3,348,-2.868,-1.274,8.746,1
102,35.505,-97.514,356.2,1.83,3,348,-2.958,-1.398,9.099,1
103,35.505,-97.514,356.2,2.03,3,347,-2.941,-1.334,9.02,1
104,35.505,-97.514,356.1,2.31,3,347,-2.852,-1.232,8.808,1
105,35.505,-97.514,355.9,2.53,3,347,-2.815,-1.259,9.024,1
106,35.505,-97.514,355.6,2.59,3,346,-2.715,-0.918,9.198,1
107,35.505,-97.514,355.4,2.36,3,346,-2.707,-1.127,9.349,1
108,35.505,-97.514,355.2,2.1804,3,346,-2.841,-1.224,9.118,0
109,35.505,-97.514,355,2.12,3,346,-2.866,-1.136,8.877,1
110,35.505,-97.514,354.8,2.2301,3,346,-2.692,-1.1,9.349,1
111,35.505,-97.514,354.7,2.1904,3,346,-2.784,-1.199,8.939,0
112,35.505,-97.514,354.5,2.2102,3,345,-2.842,-1.142,9.132,0
113,35.505,-97.514,354.3,2.1704,3,345,-2.833,-1.226,8.778,0
114,35.505,-97.514,354,2.2404,3,344,-2.879,-1.274,8.836,1
115,35.506,-97.514,353.6,2.4201,3,343,-2.899,-1.236,9.093,0
116,35.506,-97.514,353.4,2.6001,3,342,-2.828,-1.176,9.052,1
117,35.506,-97.514,353.2,2.71,3,342,-2.8,-1.193,8.972,1
118,35.506,-97.514,353,2.8203,3,341,-2.877,-1.215,8.997,0
119,35.506,-97.514,352.8,2.8701,3,341,-2.798,-1.186,8.909,1
120,35.506,-97.514,352.7,2.9201,3,340,-2.81,-1.191,8.693,1
121,35.506,-97.514,352.6,2.94,3,340,-2.826,-1.147,9.077,1
122,35.506,-97.514,352.5,2.99,3,340,-2.783,-1.153,8.853,1
123,35.506,-97.514,352.3,3.0401,3,339,-2.512,-0.633,9.25,1
124,35.506,-97.514,352.1,2.6907,3,337,-2.749,-1.117,9.056,1
125,35.506,-97.514,351.9,2.2208,3,336,-2.736,-1.108,8.746,1
126,35.506,-97.514,351.8,2.0802,3,336,-2.82,-1.257,8.996,0
127,35.506,-97.514,351.9,2.08,3,337,-2.886,-1.274,9.189,1
128,35.506,-97.514,351.9,2.24,3,336,-2.764,-1.266,8.882,1
129,35.506,-97.514,351.9,2.39,3,335,-2.525,-0.978,9.19,1
130,35.506,-97.514,351.8,2.38,3,334,-2.663,-1.247,9.124,0
131,35.506,-97.514,351.8,2.2004,3,334,-2.395,-0.847,9.246,1
132,35.506,-97.514,351.7,2.0502,3,333,-2.743,-1.389,9.155,0
133,35.506,-97.514,351.7,1.8702,3,333,-2.879,-1.363,8.661,1
134,35.506,-97.514,351.7,2.0101,3,332,-2.807,-1.357,8.844,1
135,35.506,-97.514,351.6,2.3002,3,330,-2.068,-0.519,9.694,0
136,35.506,-97.514,351.8,2.21,3,329,-2.908,-1.456,9.025,0
137,35.506,-97.514,351.5,1.7203,3,329,-2.824,-1.483,9.005,0
138,35.506,-97.514,351.5,1.8,3,328,-2.891,-1.464,9.067,1
139,35.506,-97.514,351.4,1.98,3,329,-2.719,-1.424,9.105,1
140,35.506,-97.514,351.4,2.01,3,328,-2.703,-1.408,8.741,1
141,35.506,-97.514,351.1,2.42,3,328,-2.648,-1.304,9.216,1
142,35.506,-97.514,351.1,2.5103,3,328,-2.537,-1.17,9.295,1
143,35.506,-97.514,351.2,2.72,3,327,-2.694,-1.487,9.105,1
144,35.506,-97.514,351.1,2.6601,3,328,-2.659,-1.502,8.818,1
146,35.506,-97.514,351,2.4503,3,328,-2.671,-1.364,8.844,1
147,35.506,-97.514,351.3,2.5703,3,328,-2.613,-1.387,8.985,0
148,35.506,-97.514,351.6,2.65,3,327,-2.614,-1.427,9.045,0
149,35.506,-97.514,351.7,2.8702,3,327,-2.53,-1.335,8.954,1
150,35.506,-97.514,351.8,2.92,3,327,-2.464,-1.302,9.114,1
151,35.506,-97.514,352.1,2.98,3,327,-2.062,-0.897,9.069,1
152,35.506,-97.514,352,2.83,3,327,-2.142,-1.068,9.424,1
153,35.506,-97.514,351.9,2.3005,3,328,-2.075,-0.856,8.942,0
154,35.506,-97.514,351.7,1.751,3,328,-1.958,-0.868,9.053,0
155,35.506,-97.514,351.5,1.1311,3,329,-2.433,-1.364,9.282,1
156,35.506,-97.514,351.5,1.1311,3,329,-2.824,-1.848,8.614,1
157,35.506,-97.514,351.9,0.74007,3,326,-2.794,-1.816,9.342,1
158,35.506,-97.514,352,1.28,3,326,-2.738,-1.67,8.653,1
159,35.506,-97.514,351.7,1.72,3,327,-2.567,-1.742,9.098,1
160,35.506,-97.514,351.6,2.06,3,327,-2.666,-1.64,8.92,1
161,35.506,-97.514,351.5,2.36,3,326,-2.952,-2.12,8.988,1
162,35.507,-97.514,351.5,3.1423,3,326,-3.077,-2.226,8.765,1
163,35.507,-97.514,351.8,3.9932,3,327,-2.655,-1.703,8.927,1
164,35.507,-97.514,352,4.4414,3,327,-2.757,-1.835,8.737,1
165,35.507,-97.514,352.3,5.0008,3,326,-2.805,-1.989,8.894,1
166,35.507,-97.514,352.5,5.3402,3,326,-2.389,-1.652,8.912,1
167,35.507,-97.514,352.7,5.46,3,326,-2.324,-1.475,9.153,1
168,35.507,-97.514,352.4,5.73,3,326,-2.237,-1.467,8.786,1
169,35.507,-97.514,352.4,5.75,4,326,-2.226,-1.569,9.33,1
170,35.507,-97.514,352,5.6301,3,326,-2.266,-1.464,9.182,1
171,35.507,-97.514,351.9,5.49,3,326,-2.125,-1.451,9.322,1
172,35.507,-97.514,351.9,5.26,3,324,-1.933,-0.998,9.305,1
173,35.507,-97.514,351.9,4.59,3,325,-2.108,-1.393,9.181,1
174,35.507,-97.514,352,3.92,3,325,-2.235,-1.512,9.374,0
175,35.507,-97.514,352.1,3.68,3,325,-2.241,-1.512,9.158,1
176,35.507,-97.514,351.9,3.5201,3,324,-2.219,-1.472,8.998,1
177,35.507,-97.514,352,3.2801,3,324,-2.61,-1.951,8.786,1
178,35.507,-97.514,352.2,3.18,3,324,-2.852,-2.287,8.839,1
179,35.507,-97.514,352.3,3.59,3,324,-2.22,-1.618,8.962,1
180,35.507,-97.514,352.3,4.1704,3,324,-2.266,-1.541,9.199,1
181,35.507,-97.514,352.3,4.15,3,325,-2.35,-1.681,8.877,1
182,35.507,-97.514,352.4,4.03,3,325,-2.177,-1.727,8.971,1
183,35.507,-97.514,352.5,4.0201,3,325,-2.273,-1.478,9.041,1
184,35.507,-97.514,352.5,3.9201,3,325,-1.848,-1.146,9.283,1
185,35.507,-97.514,352.3,3.71,3,325,-1.714,-0.918,9.466,1
186,35.507,-97.514,352.1,2.9703,3,326,-1.785,-0.868,9.476,1
187,35.507,-97.514,352,1.9704,3,327,-2.226,-1.356,8.675,1
188,35.507,-97.514,352,1.9704,3,327,-1.884,-1.03,9.4,1
189,35.507,-97.514,351.8,0.59304,3,327,-2.413,-1.635,9.115,1
190,35.507,-97.514,351.8,0.59304,3,327,-2.333,-1.611,9.065,1
191,35.507,-97.514,351.8,0.59304,3,327,-2.356,-1.57,9.07,1
192,35.507,-97.514,351.8,0.59304,3,327,-2.647,-1.853,8.906,1
193,35.507,-97.514,351.8,0.59304,3,327,-2.586,-1.932,9.063,1
194,35.507,-97.514,351.8,0.59304,3,327,-2.587,-1.93,9.144,1
195,35.507,-97.514,351.7,0.81394,3,326,-2.611,-1.912,9.265,1
196,35.508,-97.514,351.6,1.1942,3,326,-2.519,-1.918,9.082,1
197,35.508,-97.514,351.6,1.6008,3,326,-3.182,-2.609,8.714,1
198,35.508,-97.514,351.4,1.9701,3,326,-2.48,-1.675,8.976,1
199,35.508,-97.514,351.1,2.8204,3,326,-2.682,-1.905,8.842,1
200,35.508,-97.514,351,3.0311,3,326,-2.849,-2.036,8.503,1
201,35.508,-97.514,350.7,3.56,3,324,-2.84,-1.955,8.89,1
202,35.508,-97.514,350.6,4.1702,3,324,-2.756,-1.966,8.815,1
203,35.508,-97.514,351.1,4.7707,3,325,-2.323,-1.623,8.994,1
204,35.508,-97.514,351.7,5.3102,3,325,-2.319,-1.552,9.334,0
206,35.508,-97.514,351.8,5.49,3,324,-2.145,-1.604,9.155,1
207,35.508,-97.514,351.8,5.42,3,324,-1.859,-1.132,9.525,1
208,35.508,-97.514,351.6,5.25,3,324,-1.572,-0.732,9.437,1
209,35.508,-97.514,351.7,4.62,3,325,-1.933,-1.204,9.29,0
210,35.508,-97.514,351.9,3.7703,3,324,-2.272,-1.545,8.262,1
211,35.508,-97.514,352,3.2402,3,325,-2.56,-1.563,9.395,0
212,35.508,-97.514,352.1,3.0603,3,324,-2.302,-1.464,9.054,1
213,35.508,-97.514,352.3,2.87,3,324,-2.554,-1.902,9.004,1
214,35.508,-97.514,352.4,2.8,3,325,-2.402,-1.555,9.08,1
215,35.508,-97.514,352.4,3.09,3,325,-2.359,-1.535,9.289,1
216,35.508,-97.514,352.5,3.0601,3,325,-1.792,-1.074,9.425,1
217,35.508,-97.514,352.6,2.68,3,325,-1.793,-0.896,9.207,1
218,35.508,-97.514,352.7,1.86,3,326,-1.562,-0.641,9.182,1
219,35.508,-97.514,352.7,1.86,3,326,-2.191,-1.561,9.584,1
220,35.508,-97.514,352.7,1.86,3,326,-2.299,-1.529,9.03,1
221,35.508,-97.514,352.7,1.86,3,326,-2.341,-1.51,8.972,1
222,35.508,-97.514,352.7,1.86,3,326,-2.254,-1.58,9.152,1
223,35.508,-97.514,352.7,1.86,3,326,-2.274,-1.638,9.204,1
224,35.508,-97.514,352.7,1.86,3,326,-2.638,-1.978,8.865,1
225,35.508,-97.514,352.7,1.86,3,326,-2.594,-1.946,8.943,1
226,35.508,-97.514,352.7,1.86,3,326,-2.493,-2.014,9.151,1
227,35.508,-97.514,352.8,1.3124,3,327,-2.557,-1.895,8.703,1
228,35.508,-97.514,352.7,1.9901,3,326,-2.779,-1.944,8.819,1
229,35.508,-97.514,352.7,2.491,3,326,-2.289,-1.602,9.035,1
230,35.508,-97.514,352.6,2.77,3,326,-2.346,-1.655,9.024,1
231,35.508,-97.514,352.4,2.85,3,326,-2.141,-1.667,9.214,1
232,35.508,-97.514,352.2,2.8802,3,327,-2.118,-1.569,9.152,1
233,35.508,-97.514,351.9,2.8602,3,327,-2.091,-1.502,9.496,1
234,35.508,-97.514,351.9,2.8401,3,327,-2.368,-1.432,8.974,0
235,35.508,-97.514,351.9,2.77,3,326,-2.355,-1.56,8.963,1
236,35.508,-97.515,351.8,2.8,3,326,-2.218,-1.586,9.196,1
237,35.508,-97.515,351.7,2.7802,3,327,-2.233,-1.57,9.112,1
238,35.508,-97.515,351.7,2.8201,3,326,-2.117,-1.615,9.077,1
239,35.509,-97.515,351.6,2.86,3,327,-2.216,-1.57,9.128,1
240,35.509,-97.515,351.6,2.91,3,328,-2.191,-1.536,9.028,1
241,35.509,-97.515,351.8,2.93,3,328,-2.454,-1.86,8.804,0
242,35.509,-97.515,352.2,2.9701,3,328,-2.926,-2.427,9.036,1
243,35.509,-97.515,352.4,3.4501,3,328,-2.257,-1.497,9.059,0
244,35.509,-97.515,352.5,3.7901,3,328,-2.297,-1.615,9.11,1
245,35.509,-97.515,352.6,3.9708,3,328,-2.154,-1.479,8.694,1
246,35.509,-97.515,352.7,4.11,3,328,-1.782,-1.407,9.362,0
247,35.509,-97.515,352.6,4,3,329,-1.503,-0.493,9.419,0
248,35.509,-97.515,352.4,3.2004,3,328,-2.179,-1.421,9.06,1
249,35.509,-97.515,352.3,2.4007,3,329,-2.168,-1.557,9.069,1
250,35.509,-97.515,351.9,2.3308,3,326,-2.365,-1.745,9.13,1
251,35.509,-97.515,351.7,2.3203,3,325,-2.275,-1.618,9.026,1
252,35.509,-97.515,351.6,2.32,3,325,-2.301,-1.601,9.076,1
253,35.509,-97.515,351.5,2.55,3,327,-2.324,-1.546,9.368,0
254,35.509,-97.515,351.5,2.64,3,327,-2.096,-1.54,9.05,0
255,35.509,-97.515,351.5,2.61,3,328,-2.25,-1.497,8.994,1
256,35.509,-97.515,351.4,2.7,3,328,-2.194,-1.567,9.05,1
257,35.509,-97.515,351.5,2.8702,3,328,-2.147,-1.536,9.154,1
258,35.509,-97.515,351.5,2.91,3,328,-2.276,-1.502,9.02,1
259,35.509,-97.515,351.5,2.94,3,329,-2.166,-1.443,9.025,0
260,35.509,-97.515,351.6,2.9601,3,328,-2.189,-1.505,8.772,1
261,35.509,-97.515,351.6,2.89,3,328,-2.264,-1.519,9.057,0
262,35.509,-97.515,351.6,2.76,3,328,-2.272,-1.486,9.064,0
263,35.509,-97.515,351.6,2.8502,3,328,-2.247,-1.573,8.99,0
264,35.509,-97.515,351.6,2.91,3,328,-2.291,-1.461,8.789,0
266,35.509,-97.515,351.5,2.96,3,328,-2.291,-1.475,9.189,1
267,35.509,-97.515,351.4,3,3,328,-2.975,-2.278,8.819,1
268,35.509,-97.515,351.3,3.06,3,328,-2.302,-1.459,9.216,1
269,35.509,-97.515,351.3,3.4801,3,327,-2.995,-2.446,8.605,1
270,35.509,-97.515,351.3,3.6401,3,328,-2.382,-1.477,9.153,1
271,35.509,-97.515,351.3,4.18,3,328,-2.667,-1.99,8.779,1
272,35.509,-97.515,351.6,4.49,3,328,-2.863,-2.198,8.561,1
273,35.509,-97.515,351.9,5,3,327,-2.429,-1.553,8.931,1
274,35.51,-97.515,352,5.96,3,327,-2.539,-1.826,8.833,1
275,35.51,-97.515,352.2,6.7801,3,326,-2.273,-1.499,9.148,1
276,35.51,-97.515,352.2,6.98,3,327,-2.222,-1.487,8.905,1
277,35.51,-97.515,352.2,7.0901,3,326,-2.159,-1.386,9.419,1
278,35.51,-97.515,352.2,6.9201,3,327,-1.461,-0.442,9.607,0
279,35.51,-97.515,352.1,5.2538,3,327,-1.678,-0.897,9.303,1
280,35.51,-97.515,352,4.4022,3,327,-1.505,-0.496,9.639,1
281,35.51,-97.515,351.9,3.1926,3,326,-1.405,-0.505,9.232,1
282,35.51,-97.515,351.8,2.0225,3,327,-1.511,-0.554,9.582,0
283,35.51,-97.515,351.7,0.97417,3,326,-1.745,-0.833,9.622,1
284,35.51,-97.515,351.7,0.97417,3,326,-1.905,-1.049,9.17,1
285,35.51,-97.515,0,0.06,4,330,-2.207,-1.413,9.208,1
286,35.51,-97.515,0,0.06,4,330,-2.639,-1.927,8.854,1
287,35.51,-97.515,0,0.06,4,330,-2.545,-1.833,8.828,1
288,35.51,-97.515,351,1.42,4,329,-2.524,-1.74,8.687,1
289,35.51,-97.515,350.9,1.8902,3,329,-2.413,-1.73,9.293,1
290,35.51,-97.515,350.9,2.2511,3,329,-2.691,-1.971,8.647,1
291,35.51,-97.515,350.9,2.8109,3,329,-2.404,-1.63,8.669,0
292,35.51,-97.515,350.9,3.0713,3,329,-2.224,-1.317,9.041,1
293,35.51,-97.515,350.9,3.1313,3,328,-2.198,-1.339,8.95,1
294,35.51,-97.515,351,3.1419,3,328,-2.222,-1.359,8.889,1
295,35.51,-97.515,351.2,3.1619,3,327,-2.15,-1.42,9.02,1
296,35.51,-97.515,351.3,3.1919,3,326,-2.255,-1.426,9.08,0
297,35.51,-97.515,351.3,3.2219,3,326,-2.21,-1.445,9.026,0
298,35.51,-97.515,351.3,3.3018,3,326,-2.31,-1.438,9.154,1
299,35.51,-97.515,351,3.3521,3,326,-2.522,-1.782,9.08,0
300,35.51,-97.515,350.8,3.6914,3,326,-2.513,-1.643,8.956,1
301,35.51,-97.515,351.1,4.131,3,326,-2.505,-1.483,8.924,1
302,35.51,-97.515,351.2,4.4314,3,326,-2.37,-1.342,9.075,1
303,35.51,-97.515,351.4,4.5411,3,326,-2.39,-1.305,9.192,1
304,35.51,-97.515,351.6,4.5311,3,325,-2.24,-1.004,9.098,1
305,35.511,-97.515,351.8,4.1814,3,325,-2.447,-1.268,9.298,1
306,35.511,-97.515,351.9,4.141,3,325,-2.489,-1.225,9.027,0
307,35.511,-97.515,351.9,4.1408,3,325,-2.461,-1.22,9.153,1
308,35.511,-97.515,352,4.1306,3,324,-2.237,-0.966,9.482,1
309,35.511,-97.515,352,3.7409,3,324,-2.377,-1.089,9.058,1
310,35.511,-97.515,351.9,3.5307,3,324,-2.428,-1.167,9.269,1
311,35.511,-97.515,351.7,3.4709,3,323,-2.449,-1.151,8.868,0
312,35.511,-97.515,351.6,3.4412,3,324,-2.523,-1.112,9.136,1
313,35.511,-97.515,351.5,3.3907,3,323,-2.547,-1.192,9.251,1
314,35.511,-97.515,351.4,3.3507,3,323,-2.501,-1.187,9.031,1
315,35.511,-97.515,351.4,3.3007,3,323,-2.603,-1.063,8.957,1
316,35.511,-97.515,351.4,3.2904,3,323,-2.635,-1.072,9.093,1
317,35.511,-97.515,351.3,3.3205,3,323,-2.599,-1.103,9.107,0
318,35.511,-97.515,351.4,3.3405,3,323,-2.833,-1.349,8.995,1
319,35.511,-97.515,351.4,3.6209,3,323,-2.58,-1.03,9.517,1
320,35.511,-97.515,351.3,3.6509,3,323,-2.671,-0.976,8.733,0
321,35.511,-97.515,351.5,3.4309,3,323,-2.623,-1.052,9.089,1
322,35.511,-97.515,351.8,3.4007,3,323,-2.573,-1.005,9.018,1
323,35.511,-97.515,352,3.3605,3,322,-2.645,-0.999,9.013,1
324,35.511,-97.515,352.1,3.3007,3,322,-2.706,-1.003,8.736,1
325,35.511,-97.515,352.3,3.2905,3,322,-2.593,-1.061,9.152,1
326,35.511,-97.515,352.5,3.3105,3,322,-2.65,-1.085,9.016,1
328,35.511,-97.515,352.2,3.3107,3,322,-2.678,-1.079,9.015,1
329,35.511,-97.515,351.4,3.321,3,322,-2.728,-0.987,8.839,1
330,35.511,-97.515,351,3.341,3,322,-2.699,-0.95,8.861,1
331,35.511,-97.515,350.5,3.3707,3,322,-2.723,-0.966,9.338,1
332,35.511,-97.515,350.1,3.3407,3,322,-2.643,-0.955,9.101,1
333,35.511,-97.515,349.9,3.311,3,322,-2.83,-0.963,9.056,1
334,35.511,-97.515,349.7,3.2907,3,321,-2.73,-1.014,9.085,1
335,35.511,-97.515,349.6,3.311,3,321,-2.779,-1.024,9.282,1
336,35.511,-97.515,349.4,3.331,3,321,-2.713,-0.953,9.041,1
337,35.511,-97.515,349.1,3.3107,3,321,-2.706,-0.903,8.97,1
338,35.512,-97.515,348.7,3.1204,3,321,-2.396,-0.603,8.941,1
339,35.512,-97.515,348.3,2.6107,3,321,-2.375,-0.452,9.335,0
340,35.512,-97.515,348.1,1.8607,3,321,-2.561,-0.794,9.236,1
341,35.512,-97.515,348,1.3701,3,321,-2.672,-0.843,9.122,1
342,35.512,-97.515,347.9,1.31,3,321,-2.882,-1.091,9.141,1
343,35.512,-97.515,347.8,1.5201,3,321,-2.872,-1.119,8.838,1
344,35.512,-97.515,347.7,1.8501,3,321,-3.034,-1.218,8.946,1
345,35.512,-97.515,347.6,2.1904,3,321,-2.957,-1.198,9.189,1
346,35.512,-97.515,347.5,2.4503,3,321,-2.93,-1.125,9.224,1
347,35.512,-97.515,347.4,2.6202,3,322,-2.869,-1.065,8.87,1
348,35.512,-97.515,347.3,2.7302,3,322,-2.799,-1.074,8.971,1
349,35.512,-97.515,347.2,2.8403,3,322,-2.883,-0.982,9.054,1
350,35.512,-97.515,347.2,2.9104,3,322,-2.843,-1.035,9.093,1
351,35.512,-97.515,347.3,2.9504,3,322,-2.448,-0.608,9.225,1
352,35.512,-97.515,347.3,2.6,3,322,-2.628,-0.772,9.268,1
353,35.512,-97.515,347.2,2.4,3,322,-2.588,-0.785,9.312,1
354,35.512,-97.515,347,2.15,3,322,-2.695,-0.86,9.408,0
355,35.512,-97.515,346.8,1.6901,3,322,-2.438,-0.601,9.526,1
356,35.512,-97.515,346.9,1.211,3,321,-2.79,-1.07,9.305,1
357,35.512,-97.515,346.8,1.0907,3,321,-2.754,-0.84,8.846,1
358,35.512,-97.515,346.8,1.0907,3,321,-2.808,-0.909,9.225,1
359,35.512,-97.515,346.5,0.8,3,321,-3.123,-1.371,8.99,1
360,35.512,-97.515,346.4,1.32,3,321,-3.047,-1.362,8.958,1
361,35.512,-97.515,346.2,1.8301,3,321,-3.061,-1.286,8.933,1
362,35.512,-97.515,346,2.2502,3,321,-2.469,-0.597,9.382,1
363,35.512,-97.515,345.8,1.9101,3,321,-2.651,-0.772,9.302,1
364,35.512,-97.515,345.7,1.6,3,321,-2.506,-0.707,9.12,1
365,35.512,-97.515,345.7,1.2502,3,321,-2.63,-0.787,9.28,1
366,35.512,-97.515,345.6,1.18,3,321,-2.941,-1.373,8.941,1
367,35.512,-97.515,345.6,1.5903,3,320,-2.861,-1.277,9.318,0
368,35.512,-97.515,345.5,1.8207,3,320,-2.988,-1.236,8.865,1
369,35.512,-97.515,345.4,2.1701,3,321,-2.65,-0.855,8.987,1
370,35.512,-97.515,345.4,2.1201,3,321,-2.653,-0.965,9.25,0
371,35.512,-97.515,345.4,1.9502,3,321,-2.867,-1.209,8.659,1
372,35.512,-97.515,345.4,2.1204,3,321,-2.863,-1.282,9.089,1
373,35.512,-97.515,345.4,2.4002,3,321,-2.871,-1.216,9.21,1
374,35.512,-97.515,345.5,2.5805,3,321,-2.79,-1.177,8.861,1
375,35.512,-97.515,345.5,2.7303,3,321,-2.765,-1.15,9.09,0
376,35.512,-97.515,345.5,2.8004,3,321,-2.665,-1.052,9.126,1
377,35.512,-97.515,345.3,2.5902,3,321,-2.652,-1.176,9.192,1
378,35.512,-97.515,345.2,2.6402,3,321,-2.759,-1.187,9.315,1
379,35.512,-97.515,345,2.7202,3,320,-2.635,-1.183,8.99,1
380,35.512,-97.515,344.9,2.7703,3,320,-2.66,-1.166,8.762,1
381,35.512,-97.515,344.8,2.7804,3,320,-2.621,-1.231,9.264,1
382,35.512,-97.515,344.7,2.8402,3,320,-2.63,-1.235,9.11,1
383,35.512,-97.515,344.7,2.8902,3,320,-2.649,-1.259,9.061,0
384,35.512,-97.515,344.7,2.9301,3,320,-2.467,-1.253,9.08,1
385,35.512,-97.515,344.7,2.9402,3,320,-2.586,-1.243,8.91,1
386,35.512,-97.515,344.8,2.9502,3,320,-2.571,-1.234,9.074,1
388,35.512,-97.515,344.8,2.9701,3,321,-2.627,-1.354,8.755,1
389,35.512,-97.515,344.9,3.24,3,322,-2.987,-1.889,8.727,1
390,35.513,-97.515,344.8,3.6803,3,322,-2.642,-1.427,9.116,1
391,35.513,-97.515,344.7,4.4102,3,322,-2.427,-1.331,9.07,1
392,35.513,-97.515,344.7,4.4802,3,322,-2.496,-1.272,9.253,1
393,35.513,-97.515,344.8,4.48,3,323,-2.424,-1.307,9.185,1
394,35.513,-97.515,344.9,4.45,3,324,-2.014,-0.86,9.204,1
395,35.513,-97.515,345.1,3.9001,3,323,-2.074,-0.977,8.928,1
396,35.513,-97.515,345.2,3.3902,3,323,-2.241,-1.327,9.035,1
397,35.513,-97.515,345.2,3.1204,3,324,-2.254,-1.408,9.164,1
398,35.513,-97.515,345.3,2.8902,3,325,-2.337,-1.366,9.226,1
399,35.513,-97.515,345.3,2.8302,3,325,-2.428,-1.31,8.986,1
400,35.513,-97.515,345.3,2.8302,3,325,-2.37,-1.43,9.034,1
401,35.513,-97.515,345.3,2.8303,3,325,-2.29,-1.532,9.332,1
402,35.513,-97.515,345.3,2.8606,3,325,-2.387,-1.449,9.151,1
403,35.513,-97.516,345.3,3.0804,3,324,-2.546,-1.574,8.862,1
404,35.513,-97.516,345.3,3.1203,3,324,-2.339,-1.478,9.026,1
405,35.513,-97.516,345.2,3.1203,3,324,-2.381,-1.484,9.183,1
406,35.513,-97.516,345.2,3.2003,3,324,-2.493,-1.666,8.999,1
407,35.513,-97.516,345.1,3.3304,3,324,-2.354,-1.485,8.974,0
408,35.513,-97.516,345,3.5405,3,324,-3.158,-2.487,8.524,0
409,35.513,-97.516,344.9,4.7303,3,324,-2.63,-1.955,8.901,1
410,35.513,-97.516,345,5.1302,3,323,-2.417,-1.672,8.851,0
411,35.513,-97.516,345,5.4301,3,323,-2.312,-1.57,9.201,1
412,35.513,-97.516,345.1,5.4801,3,323,-2.367,-1.685,9.138,1
413,35.513,-97.516,345.1,5.5501,3,323,-2.323,-1.595,9.31,1
414,35.513,-97.516,345.1,5.5904,3,323,-2.379,-1.471,8.917,1
415,35.513,-97.516,345,5.5802,3,323,-2.26,-1.593,9.288,1
416,35.513,-97.516,344.9,5.5702,3,324,-2.269,-1.382,8.922,1
417,35.513,-97.516,344.9,5.6102,3,324,-2.697,-2.171,9.264,1
418,35.514,-97.516,345,6.3504,3,323,-2.699,-2.062,8.778,1
419,35.514,-97.516,344.9,6.9403,3,323,-2.349,-1.615,9.24,1
420,35.514,-97.516,344.8,7.0203,3,323,-2.611,-2.045,9.196,1
421,35.514,-97.516,344.8,7.4503,3,323,-2.267,-1.588,8.914,1
422,35.514,-97.516,344.8,7.6203,3,323,-2.723,-1.885,8.569,1
423,35.514,-97.516,344.9,8.0703,3,323,-2.322,-1.604,8.766,1
424,35.514,-97.516,344.9,8.1906,3,323,-2.374,-1.634,9.257,1
425,35.514,-97.516,344.9,8.3004,3,323,-2.245,-1.577,9.237,0
426,35.514,-97.516,345,8.3305,3,323,-2.346,-1.65,9.25,1
427,35.514,-97.516,345,8.3405,3,323,-2.237,-1.52,9.192,1
428,35.514,-97.516,345.1,8.3205,3,322,-1.495,-0.642,9.475,1
429,35.514,-97.516,345.1,7.4808,3,322,-0.673,0.305,10.032,0
430,35.514,-97.516,345.2,5.0304,3,322,-1.792,-0.999,9.361,0
431,35.514,-97.516,345.2,3.0404,3,322,-1.655,-0.816,9.504,1
432,35.514,-97.516,345.2,2.2805,3,322,-2.103,-1.277,9.116,1
433,35.514,-97.516,345.2,1.9304,3,322,-1.93,-1.16,9.731,1
434,35.514,-97.516,345.2,1.3803,3,322,-2.014,-1.235,8.941,1
435,35.514,-97.516,345.2,0.93022,3,322,-2.131,-1.382,9.07,1
436,35.514,-97.516,345.2,0.93022,3,322,-1.884,-1.073,9.327,1
437,35.514,-97.516,345.2,0.16,3,322,-2.49,-1.808,8.974,1
438,35.514,-97.516,345.2,0.16,3,322,-2.602,-1.939,9.008,1
439,35.514,-97.516,345.2,0.16,3,322,-2.882,-2.323,8.66,1
440,35.514,-97.516,345,1.53,3,322,-2.462,-1.885,8.843,1
441,35.514,-97.516,344.9,2.1,3,322,-2.489,-1.726,8.828,1
442,35.514,-97.516,344.7,2.44,3,322,-3.053,-2.437,8.604,1
443,35.515,-97.516,344.5,3.36,3,322,-2.375,-1.611,9.156,1
444,35.515,-97.516,344.5,3.7601,3,322,-2.229,-1.522,9.007,1
445,35.515,-97.516,344.4,3.77,3,322,-2.679,-2.152,8.506,1
446,35.515,-97.516,344.5,4.2801,3,322,-2.943,-2.346,8.827,1
447,35.515,-97.516,344.6,5.1,3,323,-3.009,-2.409,8.762,1
448,35.515,-97.516,344.8,6.21,3,323,-2.897,-2.33,8.781,1
450,35.515,-97.516,345.3,7.28,3,323,-2.145,-1.613,9.046,1
451,35.515,-97.516,345.6,7.52,4,323,-2.128,-1.592,9.09,1
452,35.515,-97.516,345.7,7.52,4,323,-2.24,-1.628,8.86,1
453,35.515,-97.516,345.6,7.5201,4,322,-2.134,-1.648,9.117,0
454,35.515,-97.516,345.2,7.4701,3,322,-2.194,-1.604,9.299,1
455,35.515,-97.516,344.9,7.4201,3,322,-2.383,-1.483,9.124,1
456,35.515,-97.516,344.8,7.3902,3,322,-2.244,-1.54,8.916,1
457,35.515,-97.516,344.8,7.3401,3,322,-2.396,-1.681,8.846,1
458,35.515,-97.516,344.9,7.4702,3,322,-2.407,-1.84,8.684,1
459,35.515,-97.516,345.1,8.3401,3,322,-2.931,-2.091,9.001,1
460,35.516,-97.516,345.2,9.2703,3,321,-2.921,-2.533,8.461,1
461,35.516,-97.516,345.3,10.22,3,321,-2.772,-2.417,8.217,1
462,35.516,-97.516,345.3,10.56,3,321,-2.055,-1.315,9.078,1
463,35.516,-97.516,345.5,10.31,3,320,-2.075,-1.208,8.838,1
464,35.516,-97.516,345.5,9.9802,3,320,-1.878,-1.273,9.036,1
465,35.516,-97.516,345.5,9.6202,3,320,-2.323,-1.515,8.92,1
466,35.516,-97.517,345.4,9.6002,3,320,-2.432,-1.917,9.022,1
467,35.516,-97.517,345.1,10.13,3,320,-2.574,-2.26,8.516,0
468,35.516,-97.517,344.8,10.64,3,320,-2.037,-1.325,8.78,0
469,35.516,-97.517,344.5,10.41,3,320,-1.73,-0.878,9.18,1
470,35.516,-97.517,344.5,9.4406,3,320,-1.412,-0.315,9.91,0
471,35.516,-97.517,344.8,7.7805,3,320,-1.149,-0.422,9.757,1
472,35.517,-97.517,345,6.1707,3,319,-1.3,-0.308,9.657,0
473,35.517,-97.517,345.1,4.7707,3,322,-1.654,-0.767,9.597,1
474,35.517,-97.517,345.3,3.7105,3,322,-1.764,-0.953,9.594,1
475,35.517,-97.517,345.4,2.8802,3,322,-2.065,-1.243,9.381,1
476,35.517,-97.517,345.4,2.5102,3,322,-2.022,-1.361,9.441,1
477,35.517,-97.517,345.4,2.2402,3,322,-1.951,-1.217,9.466,1
478,35.517,-97.517,345.3,1.7503,3,322,-2.172,-1.305,9.14,1
479,35.517,-97.517,345.3,1.47,3,321,-2.204,-1.586,9.031,1
480,35.517,-97.517,345.3,1.45,3,321,-2.073,-1.21,9.123,1
481,35.517,-97.517,345.3,1.12,3,321,-2.054,-1.285,9.209,1
482,35.517,-97.517,345.3,1.12,3,321,-2.082,-1.396,9.227,1
483,35.517,-97.517,345.3,0.5,3,321,-2.143,-1.354,9.081,1
484,35.517,-97.517,345.3,0.5,3,321,-2.363,-1.633,8.931,1
485,35.517,-97.517,345.3,0.5,3,321,-2.091,-1.319,9.125,1
486,35.517,-97.517,345.3,0.5,3,321,-2.263,-1.533,9.038,1
487,35.517,-97.517,345.3,0.5,3,321,-2.627,-1.98,8.773,1
488,35.517,-97.517,345.3,0.67007,3,322,-2.559,-1.95,8.945,1
489,35.517,-97.517,345.3,1.21,3,321,-2.529,-1.856,9.071,1
490,35.517,-97.517,345.3,1.65,3,321,-2.478,-1.831,9.248,1
491,35.517,-97.517,345.3,2.0301,3,321,-2.531,-1.957,9.004,1
492,35.517,-97.517,345.2,2.5203,3,321,-3.124,-2.548,8.652,1
493,35.517,-97.517,345.2,3.7605,3,321,-2.871,-2.324,8.823,1
494,35.517,-97.517,345.2,4.8504,3,320,-2.816,-2.121,8.735,1
495,35.517,-97.517,345.1,5.6607,3,320,-2.279,-1.647,9.201,1
496,35.517,-97.517,345.2,5.8107,3,320,-2.174,-1.519,9.039,1
497,35.517,-97.517,345.4,5.8507,3,320,-2.192,-1.552,9.069,1
498,35.517,-97.517,345.7,5.8605,3,320,-2.287,-1.491,9.184,1
499,35.517,-97.517,346,5.8509,3,319,-2.147,-1.485,8.808,1
500,35.517,-97.517,346.2,5.8512,3,320,-2.228,-1.519,9.174,0
501,35.517,-97.517,345.9,5.8405,3,320,-2.681,-2.121,8.769,1
502,35.517,-97.517,345.5,6.2008,3,319,-2.293,-1.835,9.043,1
503,35.517,-97.517,345.2,6.8714,3,319,-2.192,-1.63,9.127,1
504,35.517,-97.517,345.1,6.9912,3,319,-2.163,-1.596,9.093,1
505,35.517,-97.517,345.1,7.0612,3,319,-2.184,-1.602,9.199,1
506,35.518,-97.517,345.2,7.091,3,319,-2.041,-1.795,9.246,1
507,35.518,-97.517,345.4,7.1314,3,319,-2.04,-1.611,9.162,1
509,35.518,-97.517,345.6,7.1414,3,319,-1.909,-1.683,9.083,1
510,35.518,-97.517,345.8,7.1623,3,318,-2.127,-1.625,9.246,1
511,35.518,-97.517,346.2,7.2116,3,318,-1.903,-1.722,8.686,0
512,35.518,-97.517,346.6,7.2514,3,318,-2.095,-1.732,9.12,1
513,35.518,-97.517,347,7.2602,3,318,-1.94,-1.747,9.09,1
514,35.518,-97.517,347.4,7.2601,3,318,-1.634,-1.205,8.87,1
515,35.518,-97.517,347.9,6.8401,3,318,-1.179,-0.724,9.493,1
516,35.518,-97.517,348.3,6.0102,3,318,-0.851,-0.668,9.602,1
517,35.518,-97.517,348.7,4.6205,3,318,-1.192,-0.864,9.47,1
518,35.518,-97.517,349.1,2.2402,3,318,-1.338,-1.094,9.234,1
519,35.518,-97.517,349.2,1.74,3,317,-2.032,-1.747,9.043,1
520,35.518,-97.517,349.3,1.9602,3,317,-2.114,-2.019,8.821,1
521,35.518,-97.517,349.5,2.2502,3,317,-2.034,-1.898,9.09,1
522,35.518,-97.517,349.6,2.2406,3,317,-1.87,-1.81,8.868,1
523,35.518,-97.517,349.8,2.3303,3,317,-2.057,-1.87,9.224,1
524,35.518,-97.517,350,2.4902,3,317,-1.996,-1.932,8.961,1
525,35.518,-97.517,350.2,2.7802,3,317,-2.659,-2.542,8.697,1
526,35.518,-97.517,350.7,3.3804,3,317,-2.072,-1.995,9.11,1
527,35.518,-97.517,351.3,3.6803,3,317,-2.261,-2.235,8.627,1
528,35.518,-97.517,351.7,4.0902,3,317,-1.991,-1.806,9.15,1
529,35.518,-97.517,352.1,4.1202,3,317,-1.927,-1.798,9.04,1
530,35.518,-97.517,352.5,4.12,3,317,-1.839,-1.831,9.266,1
531,35.519,-97.517,352.8,4.0704,3,317,-1.837,-1.711,9.31,1
532,35.519,-97.517,353,4.0002,3,317,-1.972,-1.73,9.412,1
533,35.519,-97.517,353.2,4.34,3,316,-1.901,-1.989,9.081,1
534,35.519,-97.517,353.5,4.7607,3,316,-2.501,-2.528,8.832,1
535,35.519,-97.517,354,5.4008,3,316,-2.614,-2.544,8.722,1
536,35.519,-97.517,354.4,6.1308,3,316,-2.162,-1.9,9.134,1
537,35.519,-97.517,354.9,6.361,3,316,-2.155,-1.778,8.762,1
538,35.519,-97.517,355.5,6.6409,3,316,-2.03,-1.77,8.976,1
539,35.519,-97.517,355.9,6.7305,3,316,-1.889,-1.762,8.329,1
540,35.519,-97.517,356,6.9607,3,316,-2.173,-1.936,8.605,1
541,35.519,-97.517,356.6,7.3208,3,316,-2.245,-1.938,8.953,0
542,35.519,-97.517,357.4,7.7413,3,316,-2.135,-1.633,8.932,1
543,35.519,-97.517,358,7.9309,3,316,-2.674,-2.416,9.179,0
544,35.519,-97.517,358.7,8.3802,3,315,-2.11,-1.812,9,1
545,35.519,-97.517,359.3,8.6207,3,316,-2.065,-1.71,8.987,1
546,35.519,-97.517,0,8.7713,3,315,-2.249,-2.25,9.18,1
547,35.519,-97.517,0.7,9.1812,3,315,-2.481,-2.246,8.792,1
548,35.52,-97.517,1.2,9.6013,3,314,-2.182,-1.741,8.571,1
549,35.52,-97.517,1.8,9.6813,3,314,-2.079,-1.949,9.116,1
550,35.52,-97.517,2.5,9.8818,3,314,-2.041,-1.699,9.237,1
551,35.52,-97.517,3.2,10.022,3,314,-2.189,-1.688,9.031,1
552,35.52,-97.517,4,10.071,3,314,-2.044,-1.636,8.993,0
553,35.52,-97.517,4.7,10.162,3,314,-2.104,-1.847,8.9,1
554,35.52,-97.517,5.4,10.442,3,313,-2.104,-1.733,9.025,1
555,35.52,-97.517,6.3,10.492,3,313,-2.059,-1.724,8.964,1
556,35.52,-97.517,6.9,10.521,3,313,-2.182,-1.743,9.014,1
557,35.52,-97.517,7.7,10.591,3,313,-2.129,-1.631,9.034,1
558,35.52,-97.517,8.5,10.672,3,313,-2.159,-1.497,8.576,0
559,35.521,-97.517,9.2,10.742,3,313,-1.126,-0.145,9.714,1
560,35.521,-97.517,10.1,10.251,3,313,-1.175,-0.467,9.79,0
561,35.521,-97.517,11.2,8.4102,3,314,-2.03,-1.58,8.904,1
562,35.521,-97.517,12.1,8.291,3,314,-1.923,-1.699,8.872,1
563,35.521,-97.517,12.8,8.2307,3,314,-2.032,-1.682,9.198,1
564,35.521,-97.517,12.9,8.1004,3,314,-2.112,-1.73,9.174,1
565,35.521,-97.517,13,8.0802,3,314,-2.11,-1.734,9.189,1
566,35.521,-97.517,13.1,8.0301,3,314,-2.059,-1.553,8.902,1
567,35.521,-97.517,13.3,8.11,3,315,-2.13,-1.607,9.077,1
568,35.521,-97.517,13.5,8.06,3,315,-2.17,-1.592,9.213,1
570,35.521,-97.517,13.6,8.01,3,315,-2.249,-1.662,9.246,1
571,35.521,-97.517,13.8,7.97,3,315,-2.281,-1.754,9.419,1
572,35.521,-97.517,14.1,7.99,3,315,-2.388,-1.822,9.017,1
573,35.522,-97.517,14.4,8.16,3,315,-2.377,-1.813,8.88,1
574,35.522,-97.517,14.7,8.39,3,315,-2.531,-1.861,9.051,1
575,35.522,-97.517,15.1,8.61,3,315,-2.742,-2.107,8.703,0
576,35.522,-97.517,15.6,9.0801,3,315,-2.696,-2.296,8.827,1
577,35.522,-97.517,15.9,9.6103,3,315,-2.681,-2.035,8.651,0
578,35.522,-97.517,16.2,9.9701,3,315,-2.899,-2.375,9.161,0
579,35.522,-97.517,16.6,10.61,3,315,-2.504,-1.889,8.753,1
580,35.522,-97.517,17.2,11.25,3,316,-2.316,-1.516,8.949,0
581,35.522,-97.517,17.5,11.13,3,315,-2.467,-1.969,9.02,0
582,35.522,-97.517,17.9,11.4,3,316,-2.528,-1.83,9.072,1
583,35.523,-97.517,18.2,11.531,3,316,-2.29,-1.617,9.452,1
584,35.523,-97.517,18.8,11.42,3,316,-2.349,-1.598,9.414,1
585,35.523,-97.517,19.2,11.301,3,316,-2.427,-1.969,8.883,1
586,35.523,-97.516,19.6,11.522,3,317,-2.676,-2.08,9.055,0
587,35.523,-97.516,20.1,11.902,3,317,-2.239,-1.661,9.366,0
588,35.523,-97.516,20.2,11.812,3,317,-2.421,-2.118,9.68,0
589,35.523,-97.516,20.3,11.742,3,317,-2.427,-1.716,9.587,0
590,35.523,-97.516,20.6,11.542,3,318,-2.434,-1.569,9.534,0
591,35.523,-97.516,21.4,11.041,3,318,-1.917,-1.036,9.466,0
592,35.523,-97.516,22.2,10.022,3,318,-1.463,-0.706,9.326,1
593,35.523,-97.516,22.9,9.1824,3,318,-2.277,-1.56,9.056,1
594,35.524,-97.516,23.5,8.831,3,318,-1.83,-1.176,9.053,0
595,35.524,-97.516,23.8,7.9209,3,318,-1.546,-0.909,9.376,1
596,35.524,-97.516,23.7,6.7506,3,319,-2.154,-1.565,9.114,1
597,35.524,-97.516,23.6,6.4208,3,319,-2.234,-1.519,9.064,1
598,35.524,-97.516,23.5,6.1508,3,319,-2.367,-1.788,8.924,1
599,35.524,-97.516,23.4,5.6206,3,319,-1.344,-0.73,9.616,1
600,35.524,-97.516,23.4,4.1806,3,319,-1.664,-1.119,9.263,1
