time,lat,lng,bearing,spd,acc,alt,accx,accy,accz,stable,
0,35.502,-97.514,357.8,3.8301,3,337,0.657,1.46,10.12,0
1,35.502,-97.514,357.8,2.4002,3,337,-0.01,0.775,9.97,0
2,35.502,-97.514,357.8,0.26077,3,337,-1.332,-0.955,9.367,1
3,35.502,-97.514,357.9,0.95131,3,337,-0.867,-0.416,9.725,1
4,35.502,-97.514,358,1.7229,3,337,-0.823,-0.199,9.8,1
5,35.502,-97.514,358,1.8902,3,337,-0.538,0.115,9.495,0
6,35.502,-97.514,358,1.65,3,337,-0.776,-0.23,9.578,0
7,35.502,-97.514,358,1.86,3,337,-0.752,-0.208,9.699,1
8,35.502,-97.514,357.9,2.06,3,337,-0.434,0.11,9.934,0
9,35.502,-97.514,357.8,1.9912,3,337,-0.678,-0.214,9.77,0
10,35.502,-97.514,357.8,2.1001,3,337,-0.689,-0.207,9.657,0
11,35.502,-97.514,357.8,2.26,3,337,-0.595,-0.197,9.737,1
12,35.502,-97.514,357.8,2.361,3,337,-0.651,-0.176,9.895,1
13,35.502,-97.514,357.8,2.361,3,338,-0.74,-0.259,9.561,1
14,35.502,-97.514,358,2.82,3,337,-1,-0.643,9.709,1
15,35.502,-97.514,358.2,3.34,3,338,-1.155,-0.834,9.568,1
16,35.502,-97.514,358.5,3.8813,3,338,-1.262,-0.856,9.57,1
17,35.502,-97.514,359.1,4.6835,3,339,-1.135,-0.885,9.531,1
18,35.502,-97.514,359.6,5.4911,3,338,-0.634,-0.021,9.782,1
19,35.502,-97.514,359.5,5.9441,3,339,-0.514,0.021,9.599,0
20,35.502,-97.514,358.7,6.0505,3,339,-0.364,-0.06,9.756,1
21,35.503,-97.514,358.1,6.0303,3,339,-0.297,0.094,9.599,0
22,35.503,-97.514,358,5.73,3,340,-0.329,0.281,9.805,0
23,35.503,-97.514,357.6,5.07,3,340,-0.481,0.041,9.789,0
24,35.503,-97.514,357.9,4.74,3,339,-0.523,0.044,9.714,1
25,35.503,-97.514,358,4.58,3,340,-0.506,0.108,9.801,1
26,35.503,-97.514,358.5,4.4102,3,339,-0.592,-0.121,9.64,1
27,35.503,-97.514,358.4,4.42,3,339,-0.511,0.04,9.805,1
28,35.503,-97.514,358.8,4.3702,3,339,-0.736,-0.239,9.679,1
29,35.503,-97.514,359.2,4.4314,3,339,-0.402,0.274,9.826,1
30,35.503,-97.514,359.1,4.7205,3,339,-0.172,0.425,9.913,0
31,35.503,-97.514,358.9,4.3,3,339,0.327,0.989,9.904,0
32,35.503,-97.514,358.9,3.26,3,338,-0.588,-0.103,9.713,0
33,35.503,-97.514,358.9,2.54,3,338,-0.552,-0.114,9.759,1
34,35.503,-97.514,358.9,2.452,3,337,-0.694,-0.005,10.017,0
35,35.503,-97.514,358.8,2.5903,3,338,-0.56,-0.083,9.571,1
36,35.503,-97.514,358.7,2.5158,3,338,-0.484,-0.057,9.611,1
37,35.503,-97.514,358.7,2.4805,3,339,-0.681,-0.149,9.752,1
38,35.503,-97.514,358.6,2.4025,3,339,-0.677,-0.087,9.819,1
39,35.503,-97.514,358.6,2.4705,3,339,-0.723,-0.049,9.68,1
40,35.503,-97.514,358.5,2.54,3,339,-0.566,-0.102,9.652,1
41,35.503,-97.514,358.5,2.59,3,339,-0.611,-0.09,9.671,1
42,35.503,-97.514,358.5,2.61,3,339,-0.632,-0.084,9.739,1
43,35.503,-97.514,358.5,2.6407,3,339,-0.849,-0.451,9.627,1
44,35.503,-97.514,358.5,2.9,3,339,-0.967,-0.588,9.313,1
45,35.503,-97.514,358.6,3.7201,3,339,-0.947,-0.378,9.646,1
46,35.503,-97.514,358.7,4.5902,3,339,-0.599,-0.093,9.745,1
47,35.503,-97.514,358.9,1.2981,3,339,-0.711,-0.082,9.764,1
48,35.503,-97.514,358.9,1.2981,3,339,-0.678,-0.074,9.737,0
49,35.503,-97.514,359.6,0.89275,6,338,-0.706,-0.43,9.592,0
50,35.503,-97.514,356.9,5.0817,4,338,-0.531,-0.005,9.816,0
52,35.504,-97.514,358.5,5.34,4,338,-0.516,0.095,9.826,0
53,35.504,-97.514,359.3,5.58,4,338,0.149,0.765,9.977,0
54,35.504,-97.514,359.2,5.2716,3,338,0.276,0.824,9.842,0
55,35.504,-97.514,359.1,4.41,3,338,-0.233,0.437,9.812,0
56,35.504,-97.514,357.7,3.6101,3,338,-0.279,0.305,9.771,0
57,35.504,-97.514,359.1,2.8204,3,338,-0.686,-0.308,9.653,0
58,35.504,-97.514,359.1,2.2208,3,339,-0.659,-0.258,9.473,0
59,35.504,-97.514,359,2.15,3,339,-0.605,-0.226,9.821,0
60,35.504,-97.514,358.9,2.2411,3,339,-0.702,-0.178,9.519,0
61,35.504,-97.514,358.8,2.2801,3,339,-0.159,0.244,9.868,0
62,35.504,-97.514,358.7,2.39,3,339,-0.703,-0.194,9.669,0
63,35.504,-97.514,358.7,2.2811,3,339,-0.65,-0.195,9.788,1
64,35.504,-97.514,358.6,2.4205,3,339,-0.662,-0.153,9.728,0
65,35.504,-97.514,358.5,2.49,3,339,-0.219,0.399,10.09,0
66,35.504,-97.514,358.3,2.2502,3,339,-0.776,-0.238,9.768,0
67,35.504,-97.514,358.3,2.0301,3,338,-0.865,-0.542,9.657,1
68,35.504,-97.514,358.1,2.34,3,339,-2.133,-1.774,9.436,1
69,35.504,-97.514,358.1,3.2706,3,338,-1.611,-1.338,9.33,0
70,35.504,-97.514,358.1,4.3855,3,337,-0.629,-0.049,9.417,0
71,35.504,-97.514,357.9,4.8703,3,336,-0.648,-0.113,9.812,0
72,35.504,-97.514,358,4.9704,3,336,-1.25,-0.399,9.903,0
73,35.504,-97.514,357.9,5.2303,3,337,-0.66,0.08,9.995,0
74,35.504,-97.514,358.1,5.28,3,337,-0.561,0.096,9.721,0
75,35.504,-97.514,358,5.1902,3,337,-0.573,0.281,9.739,0
76,35.504,-97.514,358,4.8903,3,337,-0.453,0.366,9.602,0
77,35.504,-97.514,358.3,4.48,3,337,-0.614,0.248,9.912,0
78,35.504,-97.514,357.6,4.42,3,337,-0.681,0.258,9.782,0
79,35.504,-97.514,357.6,4.2502,3,336,-0.706,0.318,9.804,0
80,35.505,-97.514,358,4.1,3,337,-0.699,0.32,9.746,0
81,35.505,-97.514,358,3.9605,3,338,-1.014,-0.123,9.867,0
82,35.505,-97.514,357.9,3.9901,3,338,-0.871,0.063,9.796,1
83,35.505,-97.514,357.8,4.29,3,337,-0.755,0.316,9.858,0
84,35.505,-97.514,357.7,4.2802,3,337,-0.72,0.351,9.789,0
85,35.505,-97.514,357.6,4.22,3,337,-0.776,0.415,9.875,0
86,35.505,-97.514,357.3,4.011,3,337,-1.393,-0.458,9.493,0
87,35.505,-97.514,357.2,4.38,3,337,-0.853,0.365,9.937,0
88,35.505,-97.514,357,4.51,3,337,-0.842,0.36,9.926,0
89,35.505,-97.514,357,4.4401,3,337,-0.829,0.434,9.663,0
90,35.505,-97.514,356.9,4.3403,3,337,-0.775,0.417,9.614,0
91,35.505,-97.514,356.9,4.2101,3,336,-0.845,0.537,9.786,0
92,35.505,-97.514,356.9,4.04,3,336,-0.884,0.496,9.636,0
93,35.505,-97.514,357.2,3.91,3,336,-1.08,0.26,9.721,0
94,35.505,-97.514,357.3,4.0312,3,336,-0.968,0.547,9.699,0
95,35.505,-97.514,357.4,4.0602,3,336,-0.531,1.103,9.865,0
96,35.505,-97.514,357.4,3.79,3,336,-0.646,0.764,9.947,0
97,35.505,-97.514,357.4,2.9802,3,336,-0.762,0.871,9.682,0
98,35.505,-97.514,357.4,2.492,3,336,-1.003,0.491,9.707,0
99,35.505,-97.514,357.4,2.06,3,336,-0.637,0.852,9.667,0
100,35.505,-97.514,357.2,1.8,3,336,-1.008,0.478,9.548,0
101,35.505,-97.514,356.9,1.6903,3,336,-1.051,0.41,9.649,0
102,35.505,-97.514,356.5,1.7105,3,336,-0.995,0.438,9.891,0
103,35.505,-97.514,356.4,1.8407,3,336,-1.25,0.326,9.708,0
104,35.505,-97.514,356.4,2.0709,3,336,-1.142,0.319,9.625,1
105,35.505,-97.514,356.3,2.34,3,336,-1.071,0.406,9.895,0
106,35.505,-97.514,356.3,2.1901,3,336,-0.796,0.725,9.653,1
107,35.505,-97.514,356,2.5001,3,336,-0.824,0.662,9.714,0
108,35.505,-97.514,355.7,2.3601,3,337,-0.851,0.549,9.773,0
109,35.505,-97.514,355.4,2.15,3,337,-1.049,0.328,9.581,0
110,35.505,-97.514,355.2,2.14,3,337,-0.906,0.553,9.725,0
111,35.505,-97.514,355,2.2511,3,337,-0.97,0.397,9.606,0
112,35.505,-97.514,354.8,2.1704,3,337,-0.896,0.512,9.806,0
113,35.505,-97.514,354.7,2.1311,3,337,-0.987,0.452,9.588,0
114,35.505,-97.514,354.5,2.16,3,337,-1.121,0.318,9.474,0
115,35.506,-97.514,354.2,2.2414,3,338,-1.087,0.325,9.585,1
116,35.506,-97.514,353.9,2.4101,3,337,-1.038,0.407,9.756,0
117,35.506,-97.514,353.7,2.5903,3,338,-1.013,0.423,9.781,1
118,35.506,-97.514,353.6,2.71,3,338,-1.042,0.386,9.689,0
120,35.506,-97.514,353.3,2.7505,3,338,-0.978,0.443,9.785,0
121,35.506,-97.514,353.2,2.82,3,337,-0.977,0.436,9.862,0
122,35.506,-97.514,353.1,2.824,3,338,-0.952,0.498,9.731,0
123,35.506,-97.514,353,2.9401,3,338,-0.992,0.47,9.712,1
124,35.506,-97.514,352.9,2.9814,3,339,-0.612,0.933,9.844,0
125,35.506,-97.514,352.7,3.0301,3,340,-0.552,1,9.831,0
126,35.506,-97.514,352.6,2.6602,3,340,-0.84,0.536,9.777,0
127,35.506,-97.514,352.5,2.15,3,340,-0.968,0.435,9.699,0
128,35.506,-97.514,352.4,2.05,3,340,-0.994,0.295,9.726,0
129,35.506,-97.514,352.5,2.0712,3,340,-0.994,0.329,9.607,0
130,35.506,-97.514,352.6,2.2506,3,340,-0.828,0.404,9.788,0
131,35.506,-97.514,352.5,2.38,3,340,-0.757,0.65,10.028,0
132,35.506,-97.514,352.5,2.3602,3,340,-0.788,0.549,9.705,0
133,35.506,-97.514,352.5,2.02,3,340,-0.874,0.304,10.061,0
134,35.506,-97.514,352.4,1.84,3,341,-1.059,0.18,9.726,0
135,35.506,-97.514,352.4,2.0104,3,340,-1.007,0.232,9.9,0
136,35.506,-97.514,352.5,2.3108,3,341,-0.674,0.68,9.701,0
137,35.506,-97.514,352.5,2.2006,3,341,-0.716,0.536,9.874,0
138,35.506,-97.514,352.4,1.7407,3,341,-1.038,0.312,9.78,0
139,35.506,-97.514,352.4,1.9,3,341,-1.02,0.061,9.577,1
140,35.506,-97.514,352.4,2.1901,3,341,-0.925,0.153,9.551,1
141,35.506,-97.514,352.3,2.4502,3,341,-0.91,0.301,9.967,0
142,35.506,-97.514,352.2,2.63,3,341,-0.889,0.279,9.712,0
143,35.506,-97.514,352.1,2.7301,3,341,-0.787,0.292,9.916,0
144,35.506,-97.514,352.1,2.82,3,341,0.022,1.321,9.957,0
145,35.506,-97.514,352.3,2.4205,3,340,-0.937,0.134,9.797,1
146,35.506,-97.514,352.3,2.4002,3,340,-0.908,0.224,9.97,0
147,35.506,-97.514,352.2,2.571,3,341,-0.838,0.179,9.826,1
148,35.506,-97.514,352.1,2.75,3,340,-0.827,0.245,9.857,1
149,35.506,-97.514,352.1,2.8614,3,341,-0.854,0.289,9.805,0
150,35.506,-97.514,352.2,2.93,3,341,-0.75,0.229,9.649,1
151,35.506,-97.514,352.2,2.9801,3,341,-0.273,0.662,9.985,0
152,35.506,-97.514,352.2,2.8301,3,342,-0.358,0.71,9.926,0
153,35.506,-97.514,352.1,2.2301,3,342,-0.471,0.568,9.6,0
154,35.506,-97.514,352.1,1.7618,3,341,-0.146,0.869,10.306,0
155,35.506,-97.514,352.1,1.0907,3,341,-0.272,0.752,9.762,0
156,35.506,-97.514,352.1,1.0907,3,341,-1.102,-0.382,9.683,0
157,35.506,-97.514,352.1,1.0907,3,341,-0.927,-0.265,9.872,0
158,35.506,-97.514,352.1,0.78102,3,342,-0.911,-0.202,9.867,0
159,35.506,-97.514,352,1.28,3,342,-0.867,-0.195,9.484,0
160,35.506,-97.514,352,1.7207,3,342,-0.841,-0.007,9.541,0
161,35.506,-97.514,352,2.0601,3,342,-0.998,-0.302,9.717,1
162,35.506,-97.514,351.9,2.4121,3,342,-0.92,-0.282,9.462,0
163,35.506,-97.514,352,3.2905,3,342,-0.796,0.013,9.878,1
164,35.507,-97.514,352.1,4.1404,3,341,-0.997,-0.427,9.54,1
165,35.507,-97.514,352.2,4.53,3,341,-0.973,-0.381,9.69,1
166,35.507,-97.514,352.4,5.0708,3,342,-1.068,-0.352,9.832,1
167,35.507,-97.514,352.5,5.6401,3,342,-0.585,0.089,9.721,0
168,35.507,-97.514,352.5,5.88,3,342,-0.461,0.047,9.713,1
169,35.507,-97.514,352.5,5.85,3,343,-0.519,0.115,9.896,0
170,35.507,-97.514,352.5,5.7701,3,342,-0.475,0.076,9.576,0
171,35.507,-97.514,352.2,5.6404,3,342,-0.491,0.047,9.92,1
172,35.507,-97.514,352.1,5.4801,3,342,-0.172,0.537,9.844,0
173,35.507,-97.514,352.1,5.25,3,342,-0.033,0.687,9.87,0
174,35.507,-97.514,352.2,4.5907,3,341,-0.441,0.092,9.641,0
175,35.507,-97.514,352.2,3.921,3,341,-0.421,0.224,9.981,0
176,35.507,-97.514,352.2,3.67,3,341,-0.444,0.075,9.604,0
177,35.507,-97.514,352.3,3.46,3,340,-0.441,0.116,9.639,0
178,35.507,-97.514,352.3,3.23,3,340,-0.74,-0.245,9.479,0
179,35.507,-97.514,352.6,3.1704,3,340,-1.064,-0.744,9.693,0
180,35.507,-97.514,352.6,3.6105,3,340,-0.533,-0.074,9.734,0
181,35.507,-97.514,352.7,4.19,3,339,-0.535,-0.032,9.933,1
182,35.507,-97.514,352.7,4.14,3,339,-0.618,-0.064,9.782,0
183,35.507,-97.514,352.8,4.0221,3,339,-0.519,0.054,9.813,0
185,35.507,-97.514,352.8,4.0001,3,339,-0.425,0.126,9.787,0
186,35.507,-97.514,352.7,3.9402,3,339,-0.095,0.686,10.147,0
187,35.507,-97.514,352.6,3.66,3,339,0.015,0.643,9.918,0
188,35.507,-97.514,352.4,2.87,3,338,-0.002,0.701,10.005,0
189,35.507,-97.514,352.3,1.9526,3,338,-0.304,0.285,9.931,0
190,35.507,-97.514,352.3,1.0904,3,338,-0.011,0.666,9.916,0
191,35.507,-97.514,352.3,1.0904,3,338,-0.6,-0.007,9.703,1
192,35.507,-97.514,352.3,1.0904,3,338,-0.604,0.031,9.762,1
193,35.507,-97.514,352.3,1.0904,3,338,-0.586,0.021,9.753,1
194,35.507,-97.514,352.3,1.0904,3,338,-0.871,-0.335,9.656,1
195,35.507,-97.514,352.3,1.0904,3,338,-0.838,-0.387,9.572,1
196,35.507,-97.514,352.3,1.0904,3,338,-0.833,-0.301,9.542,1
197,35.507,-97.514,351.8,1.2526,3,339,-0.789,-0.267,9.968,0
198,35.508,-97.514,351.7,1.61,3,338,-0.757,-0.285,9.436,0
199,35.508,-97.514,351.5,1.9904,3,338,-1.251,-0.865,9.713,1
200,35.508,-97.514,351.3,2.8221,3,339,-0.735,-0.06,9.604,1
201,35.508,-97.514,351.1,3.1001,3,339,-0.924,-0.338,9.792,0
202,35.508,-97.514,350.9,3.58,3,339,-1.003,-0.433,9.553,0
203,35.508,-97.514,350.8,4.21,3,339,-1.103,-0.458,9.763,1
204,35.508,-97.514,351.4,4.81,3,339,-0.867,-0.448,9.758,0
205,35.508,-97.514,351.7,5.3502,3,339,-0.512,-0.036,9.529,0
206,35.508,-97.514,351.8,5.5,3,338,-0.451,0.111,9.734,0
207,35.508,-97.514,351.9,5.42,3,338,-0.45,0.053,10.126,0
208,35.508,-97.514,351.8,5.2501,3,338,0.024,0.673,9.774,0
209,35.508,-97.514,351.7,4.6009,3,338,-0.16,0.435,9.821,0
210,35.508,-97.514,351.9,3.69,3,338,-0.347,0.418,9.792,0
211,35.508,-97.514,352.1,3.2202,3,338,-0.361,0.274,9.826,0
212,35.508,-97.514,352.1,3.05,3,338,-0.333,0.125,9.714,0
213,35.508,-97.514,352.3,2.8602,3,337,-0.553,0.064,9.777,0
214,35.508,-97.514,352.4,2.7615,3,337,-0.724,-0.33,9.929,1
215,35.508,-97.514,352.3,2.98,3,337,-0.54,-0.033,9.71,0
216,35.508,-97.514,352.4,3.09,3,337,-0.45,0.027,9.79,1
217,35.508,-97.514,352.4,3.0428,3,337,-0.056,0.547,9.784,0
218,35.508,-97.514,352.5,2.67,3,337,0.347,0.974,10.178,0
219,35.508,-97.514,352.6,1.81,3,337,0.109,0.942,9.941,0
220,35.508,-97.514,352.6,1.81,3,337,-0.569,-0.067,10.005,0
221,35.508,-97.514,352.6,1.81,3,337,-0.681,-0.236,9.635,0
222,35.508,-97.514,352.6,1.81,3,337,-0.503,0.075,9.764,0
223,35.508,-97.514,352.6,1.81,3,337,-0.52,0,9.852,1
224,35.508,-97.514,352.6,1.81,3,337,-0.51,0.031,9.721,1
225,35.508,-97.514,352.6,1.81,3,337,-0.875,-0.412,9.535,1
226,35.508,-97.514,352.6,0.39051,3,337,-0.791,-0.313,9.811,1
227,35.508,-97.514,352.5,0.85,3,337,-1.097,-0.644,9.628,1
228,35.508,-97.514,352.5,1.41,3,337,-0.758,-0.293,9.714,1
229,35.508,-97.514,352.5,2.012,3,338,-0.659,-0.248,9.744,1
230,35.508,-97.514,352.5,2.5301,3,338,-0.642,0.011,9.844,0
231,35.508,-97.514,352.4,2.8,3,338,-0.549,0.095,9.705,0
232,35.508,-97.514,352.2,2.8703,3,338,-0.441,0.091,9.64,0
233,35.508,-97.514,352,2.87,3,337,-0.469,0.091,9.468,0
234,35.508,-97.515,351.8,2.8625,3,338,-0.547,0.038,9.642,0
235,35.508,-97.515,351.8,2.76,3,338,-0.4,0.11,9.665,0
236,35.508,-97.515,351.8,2.76,3,338,-0.556,0.019,9.876,1
237,35.508,-97.515,351.8,2.79,3,338,-0.577,-0.03,9.874,0
238,35.508,-97.515,351.8,2.7802,3,338,-0.577,0.148,9.677,0
239,35.509,-97.515,351.7,2.8101,3,338,-0.482,0.072,9.808,1
240,35.509,-97.515,351.7,2.8602,3,338,-0.502,0.076,9.915,0
241,35.509,-97.515,351.7,2.9211,3,338,-0.478,0.069,9.811,0
242,35.509,-97.515,351.9,2.9114,3,338,-0.783,-0.291,9.743,1
243,35.509,-97.515,352.2,3.002,3,338,-0.782,-0.241,9.723,0
244,35.509,-97.515,352.3,3.4804,3,338,-0.662,-0.16,9.768,1
245,35.509,-97.515,352.5,3.8501,3,338,-0.487,0.008,9.821,1
246,35.509,-97.515,352.5,4.0421,3,339,-0.469,0.028,9.955,1
248,35.509,-97.515,352.7,4.1302,3,339,0.431,1.123,9.777,0
249,35.509,-97.515,352.6,4.0401,3,339,0.218,0.846,9.988,0
250,35.509,-97.515,352.4,3.0106,3,339,-0.437,0.093,10.005,0
251,35.509,-97.515,352.3,2.21,3,338,-0.328,0.093,9.95,0
252,35.509,-97.515,352,2.2045,3,338,-0.597,-0.078,9.634,1
253,35.509,-97.515,351.9,2.2411,3,338,-0.483,-0.02,9.73,1
254,35.509,-97.515,351.7,2.41,3,338,-0.529,0.025,9.76,1
255,35.509,-97.515,351.8,2.5607,3,338,-0.56,0.172,9.949,0
256,35.509,-97.515,351.8,2.6505,3,338,-0.486,0.054,9.68,0
257,35.509,-97.515,351.8,2.73,3,338,-0.498,0.057,9.63,0
258,35.509,-97.515,351.8,2.8209,3,338,-0.435,0.072,9.895,0
259,35.509,-97.515,351.8,2.8804,3,338,-0.466,0.112,9.695,1
260,35.509,-97.515,351.8,2.9421,3,338,-0.449,0.074,9.794,1
261,35.509,-97.515,351.8,2.9603,3,338,-0.204,0.393,9.669,0
262,35.509,-97.515,351.9,2.7801,3,338,-0.545,0.087,9.836,0
263,35.509,-97.515,351.9,2.7418,3,338,-0.457,0.014,9.753,0
264,35.509,-97.515,351.9,2.84,3,338,-0.478,0.113,9.654,0
265,35.509,-97.515,351.8,2.9311,3,338,-0.516,0.151,9.924,0
266,35.509,-97.515,351.8,2.9604,3,337,-0.505,0.105,9.817,0
267,35.509,-97.515,351.7,2.9903,3,337,-0.497,0.106,9.745,0
268,35.509,-97.515,351.7,3.0628,3,337,-0.702,-0.089,9.751,0
269,35.509,-97.515,351.6,3.5611,3,337,-0.493,0.182,9.81,1
270,35.509,-97.515,351.6,3.6302,3,337,-1.132,-0.673,9.759,1
271,35.509,-97.515,351.7,4.21,3,337,-0.575,0.118,9.904,1
272,35.509,-97.515,351.8,4.5001,3,338,-1.017,-0.5,9.809,1
273,35.509,-97.515,352.1,5.0602,3,338,-1.214,-0.617,9.661,1
274,35.51,-97.515,352.4,5.9708,3,338,-0.452,-0.128,9.803,0
275,35.51,-97.515,352.4,6.3708,3,338,-0.754,-0.232,9.643,0
276,35.51,-97.515,352.4,6.8117,3,337,-0.515,0.037,9.882,0
277,35.51,-97.515,352.5,7.0121,3,337,-0.498,0.179,9.816,1
278,35.51,-97.515,352.4,7.1105,3,337,0.057,0.699,9.789,0
279,35.51,-97.515,352.4,6.9002,3,337,0.305,1.135,9.858,0
280,35.51,-97.515,352.5,5.4572,3,337,0.077,0.755,9.824,0
281,35.51,-97.515,352.5,4.753,4,337,0.371,1.2,10.014,0
282,35.51,-97.515,352.3,3.72,3,336,0.223,1.112,10.154,0
283,35.51,-97.515,352.1,3.2712,4,336,0.259,1.058,9.913,0
284,35.51,-97.515,352.2,2.9169,3,337,0.043,0.828,9.989,0
285,35.51,-97.515,352.2,2.9475,4,337,-0.42,0.215,9.636,0
286,35.51,-97.515,352.2,3.2235,4,337,-0.403,0.241,9.796,1
287,35.51,-97.515,352.2,3.1006,8,337,-0.861,-0.306,9.713,1
288,35.51,-97.515,357,0.74525,3,336,-0.733,-0.247,9.813,1
289,35.51,-97.515,357,0.74525,3,336,-0.697,-0.144,9.665,0
290,35.51,-97.515,352.1,1.0269,3,336,-0.632,-0.071,9.837,0
291,35.51,-97.515,352,1.3226,4,335,-0.861,-0.406,9.723,0
292,35.51,-97.515,351.9,1.118,9,334,-0.595,-0.011,9.461,0
293,35.51,-97.515,351.9,1.118,9,334,-0.432,0.246,9.565,1
294,35.51,-97.515,351.9,2.248,23,335,-0.439,0.215,9.691,1
295,35.51,-97.515,351.9,3.0827,30,335,-0.411,0.213,9.593,0
296,35.51,-97.515,352,3.121,4,335,-0.398,0.235,9.766,0
297,35.51,-97.515,352.1,3.1419,3,335,-0.455,0.187,9.687,1
298,35.51,-97.515,351.9,3.19,3,335,-0.55,0.265,9.694,0
299,35.51,-97.515,351.7,3.2404,3,335,-0.454,0.233,9.792,0
300,35.51,-97.515,351.5,3.3001,3,335,-0.846,-0.033,10.083,0
301,35.51,-97.515,351.4,3.4601,3,335,-0.785,-0.061,9.729,1
302,35.51,-97.515,351.5,3.8516,3,335,-0.616,0.141,9.794,0
303,35.51,-97.515,351.7,4.2807,3,334,-0.593,0.259,9.952,0
304,35.51,-97.515,351.8,4.45,3,334,-0.507,0.51,9.765,0
305,35.51,-97.515,352,4.55,3,334,-0.492,0.486,9.746,0
306,35.51,-97.515,352.1,4.33,3,335,-0.598,0.44,9.866,0
307,35.511,-97.515,352.3,4.171,3,334,-0.612,0.39,10.034,0
308,35.511,-97.515,352.2,4.1408,3,334,-0.603,0.481,9.891,0
309,35.511,-97.515,352.1,4.1402,3,334,-0.386,0.779,9.8,0
310,35.511,-97.515,352,3.9502,3,333,-0.572,0.461,10.061,0
311,35.511,-97.515,351.8,3.6223,3,333,-0.704,0.508,9.85,0
312,35.511,-97.515,351.7,3.49,3,333,-0.714,0.462,9.945,0
314,35.511,-97.515,351.5,3.4401,3,333,-0.657,0.473,9.813,0
315,35.511,-97.515,351.4,3.4101,3,333,-0.682,0.549,10.009,0
316,35.511,-97.515,351.3,3.36,3,333,-0.747,0.62,9.773,0
317,35.511,-97.515,351.2,3.3207,3,332,-0.759,0.476,9.802,0
318,35.511,-97.515,351.2,3.301,3,332,-0.763,0.52,9.747,0
319,35.511,-97.515,351.3,3.2901,3,332,-0.86,0.464,9.796,0
320,35.511,-97.515,351.3,3.3001,3,332,-0.991,0.299,9.773,0
321,35.511,-97.515,351.3,3.4009,3,331,-0.609,0.909,9.826,0
322,35.511,-97.515,351.3,3.6401,3,331,-0.854,0.547,9.656,0
323,35.511,-97.515,351.5,3.51,3,331,-0.784,0.591,9.72,0
324,35.511,-97.515,351.7,3.4002,3,331,-0.775,0.565,9.932,0
325,35.511,-97.515,351.9,3.3607,3,331,-0.856,0.662,9.794,1
326,35.511,-97.515,352.3,3.2601,3,332,-0.894,0.686,9.688,0
327,35.511,-97.515,352.1,3.2802,3,331,-0.853,0.611,9.796,0
328,35.511,-97.515,351.9,3.2915,3,331,-0.901,0.618,9.877,0
329,35.511,-97.515,351.6,3.31,3,331,-0.787,0.591,9.776,0
330,35.511,-97.515,351,3.3201,3,331,-0.928,0.656,9.713,0
331,35.511,-97.515,350.4,3.3404,3,331,-0.841,0.643,9.965,0
332,35.511,-97.515,350,3.35,3,331,-0.887,0.641,9.804,0
333,35.511,-97.515,349.8,3.3104,3,331,-0.885,0.713,9.767,0
334,35.511,-97.515,349.6,3.2801,3,331,-0.964,0.7,9.707,0
335,35.511,-97.515,349.5,3.2901,3,330,-0.972,0.661,9.939,0
336,35.511,-97.515,349.2,3.2901,3,330,-0.916,0.703,9.865,0
337,35.511,-97.515,349.1,3.3207,3,330,-0.894,0.684,9.845,0
338,35.511,-97.515,349,3.3101,3,330,-0.911,0.821,9.928,0
339,35.512,-97.515,348.6,3.291,3,330,-0.55,1.039,10.074,0
340,35.512,-97.515,348.2,2.85,3,330,-0.436,1.334,9.796,0
341,35.512,-97.515,348,2.255,3,330,-0.809,0.959,9.744,0
342,35.512,-97.515,347.9,1.6624,3,330,-0.857,0.841,9.916,0
343,35.512,-97.515,347.9,1.291,3,329,-1.143,0.374,9.559,0
344,35.512,-97.515,347.8,1.38,3,329,-1.052,0.545,9.745,1
345,35.512,-97.515,347.6,1.62,3,329,-1.139,0.389,9.775,1
346,35.512,-97.515,347.5,1.9621,3,329,-0.999,0.46,9.699,1
347,35.512,-97.515,347.4,2.32,3,328,-0.977,0.529,9.83,0
348,35.512,-97.515,347.4,2.561,3,328,-0.957,0.565,9.846,0
349,35.512,-97.515,347.5,2.67,3,328,-1.006,0.6,9.686,0
350,35.512,-97.515,347.5,2.8003,3,327,-0.976,0.645,9.899,1
351,35.512,-97.515,347.5,2.84,3,327,-1.016,0.577,9.566,1
352,35.512,-97.515,347.5,2.9102,3,327,-0.774,0.972,9.766,0
353,35.512,-97.515,347.5,2.71,3,326,-0.851,0.786,9.875,0
354,35.512,-97.515,347.3,2.4313,3,326,-0.865,0.851,9.625,0
355,35.512,-97.515,347.2,2.24,3,326,-0.713,0.983,9.857,0
356,35.512,-97.515,347,2.01,3,325,-0.643,1.014,9.857,0
357,35.512,-97.515,346.9,1.49,3,325,-1.01,0.616,9.626,0
358,35.512,-97.515,346.8,1.1102,3,325,-0.771,0.917,9.841,0
359,35.512,-97.515,346.7,1.0204,3,324,-1.123,0.444,9.696,1
360,35.512,-97.515,346.7,1.0204,3,324,-1.283,0.185,9.653,1
361,35.512,-97.515,346.4,0.9902,3,324,-1.215,0.285,9.757,0
362,35.512,-97.515,346.2,1.5412,3,325,-1.196,0.357,9.862,0
363,35.512,-97.515,345.9,1.9602,3,325,-0.562,1.132,9.608,0
364,35.512,-97.515,345.8,2.2302,3,325,-0.843,0.729,9.879,0
365,35.512,-97.515,345.8,1.781,3,325,-0.66,0.894,9.78,0
366,35.512,-97.515,345.7,1.4503,3,325,-0.914,0.573,9.806,0
367,35.512,-97.515,345.6,1.1207,3,324,-1.256,0.262,9.544,0
368,35.512,-97.515,345.5,1.32,3,324,-1.122,0.338,9.657,0
369,35.512,-97.515,345.5,1.7203,3,324,-1.17,0.433,9.93,0
370,35.512,-97.515,345.4,2.0535,3,324,-0.693,0.623,9.911,0
371,35.512,-97.515,345.5,2.1719,3,324,-0.781,0.822,9.672,0
372,35.512,-97.515,345.5,2.0302,3,323,-1.101,0.327,9.688,0
373,35.512,-97.515,345.5,2.02,3,323,-1.015,0.378,9.694,0
374,35.512,-97.515,345.6,2.2827,3,323,-0.978,0.417,9.754,0
375,35.512,-97.515,345.6,2.5101,3,323,-0.89,0.386,9.838,1
376,35.512,-97.515,345.6,2.6801,3,323,-0.861,0.583,9.792,0
377,35.512,-97.515,345.5,2.7705,3,323,-0.806,0.554,9.948,0
378,35.512,-97.515,345.4,2.6502,3,323,-0.847,0.489,9.8,0
379,35.512,-97.515,345.2,2.6227,3,323,-0.865,0.382,9.928,0
380,35.512,-97.515,345,2.6809,3,323,-0.762,0.503,9.926,0
382,35.512,-97.515,344.9,2.75,3,324,-0.871,0.46,10.029,0
383,35.512,-97.515,344.8,2.7412,3,323,-0.832,0.351,9.761,0
384,35.512,-97.515,344.7,2.7903,3,323,-0.835,0.417,9.966,0
385,35.512,-97.515,344.7,2.8501,3,323,-0.82,0.409,9.729,0
386,35.512,-97.515,344.7,2.9108,3,324,-0.81,0.424,9.938,1
387,35.512,-97.515,344.8,2.9403,3,324,-0.723,0.381,9.672,0
388,35.512,-97.515,344.9,2.9101,3,324,-0.723,0.354,9.567,0
389,35.512,-97.515,345,2.9824,3,324,-0.904,0.138,9.688,0
390,35.512,-97.515,345,3.0401,3,323,-1.439,-0.547,9.532,0
391,35.513,-97.515,345,3.45,3,323,-0.818,0.161,9.771,1
392,35.513,-97.515,344.9,4.182,3,324,-0.769,0.274,9.689,0
393,35.513,-97.515,344.9,4.43,3,324,-0.651,0.303,9.736,1
394,35.513,-97.515,345,4.2214,3,324,-0.629,0.452,9.858,0
395,35.513,-97.515,345.1,4.21,3,324,-0.245,0.792,9.885,0
396,35.513,-97.515,345.1,3.3921,3,324,-0.255,0.625,9.874,0
397,35.513,-97.515,345.2,3.1806,3,323,-0.582,0.398,9.868,0
398,35.513,-97.515,345.3,3.0801,3,323,-0.55,0.29,9.787,0
399,35.513,-97.515,345.3,2.9606,3,324,-0.578,0.246,9.835,1
400,35.513,-97.515,345.3,2.8506,3,323,-0.542,0.229,9.655,0
401,35.513,-97.515,345.3,2.8001,3,324,-0.594,0.183,9.69,0
402,35.513,-97.515,345.3,2.8101,3,323,-0.627,0.202,9.609,0
403,35.513,-97.515,345.3,2.8302,3,323,-0.591,0.215,9.882,0
404,35.513,-97.515,345.3,2.8814,3,323,-0.598,0.027,9.656,1
405,35.513,-97.515,345.3,3.1113,3,323,-0.54,0.179,9.842,0
406,35.513,-97.516,345.2,3.1201,3,324,-0.544,0.132,9.822,0
407,35.513,-97.516,345.1,3.13,3,323,-0.654,-0.072,9.7,0
408,35.513,-97.516,345,3.2619,3,324,-0.497,0.081,9.771,0
409,35.513,-97.516,344.9,3.37,3,324,-1.295,-0.879,9.552,1
410,35.513,-97.516,344.8,4.03,3,325,-0.782,-0.229,9.708,0
411,35.513,-97.516,344.8,5.02,3,325,-0.638,-0.273,9.845,0
412,35.513,-97.516,344.8,5.28,3,325,-0.57,0.006,9.763,0
413,35.513,-97.516,344.9,5.4715,3,324,-0.563,-0.01,9.527,0
414,35.513,-97.516,344.9,5.5101,3,325,-0.507,0.117,9.727,1
415,35.513,-97.516,345.1,5.55,3,325,-0.468,-0.018,9.908,0
416,35.513,-97.516,345,5.5901,3,325,-0.426,0.019,9.87,0
417,35.513,-97.516,345,5.5801,3,326,-0.426,0.097,9.94,0
418,35.513,-97.516,344.9,5.55,3,325,-1.057,-0.564,9.55,0
419,35.514,-97.516,344.8,6.0202,3,326,-0.81,-0.374,9.921,0
420,35.514,-97.516,344.8,6.8001,3,325,-0.555,0.006,9.626,1
421,35.514,-97.516,344.7,7.0307,3,326,-0.928,-0.407,9.638,1
422,35.514,-97.516,344.7,7.221,3,325,-0.619,0.102,9.466,0
423,35.514,-97.516,344.7,7.58,3,325,-0.92,-0.371,9.884,0
424,35.514,-97.516,344.8,7.82,3,325,-0.539,-0.047,9.564,0
425,35.514,-97.516,344.9,8.1404,3,326,-0.653,-0.013,9.548,1
426,35.514,-97.516,344.8,8.25,3,325,-0.586,-0.038,9.737,0
427,35.514,-97.516,344.8,8.29,3,325,-0.441,0.089,9.63,0
428,35.514,-97.516,344.9,8.3504,3,325,-0.57,0.087,9.636,0
429,35.514,-97.516,344.9,8.3302,3,325,0.589,1.314,9.878,0
430,35.514,-97.516,344.9,8.0909,3,325,1.242,1.942,10.085,0
431,35.514,-97.516,345,6.09,3,325,-0.16,0.505,9.88,0
432,35.514,-97.516,345.1,3.66,3,325,0.189,0.932,9.879,0
433,35.514,-97.516,345.1,2.7102,3,325,-0.243,0.306,9.731,0
434,35.514,-97.516,345.1,2.0712,3,325,-0.149,0.475,9.678,0
435,35.514,-97.516,345.1,1.61,3,325,-0.229,0.38,9.734,0
436,35.514,-97.516,345.1,1.1463,3,324,-0.33,0.21,9.816,0
437,35.514,-97.516,345.1,1.1463,3,324,-0.049,0.567,9.883,1
438,35.514,-97.516,345.1,0.43105,3,324,-0.756,-0.219,9.71,1
439,35.514,-97.516,345.1,0.43105,3,324,-0.831,-0.341,9.585,1
440,35.514,-97.516,345.1,0.43105,3,324,-1.076,-0.757,9.627,1
441,35.514,-97.516,345.1,0.43105,3,324,-0.75,-0.253,9.703,1
442,35.514,-97.516,344.7,1.8845,3,324,-0.705,-0.157,9.736,1
443,35.514,-97.516,344.5,2.2711,3,324,-1.174,-0.903,9.492,0
444,35.515,-97.516,344.3,2.7102,3,324,-0.454,-0.104,9.903,1
446,35.515,-97.516,344.4,3.4912,3,324,-0.557,0.081,9.486,0
447,35.515,-97.516,344.3,3.682,3,324,-0.829,-0.505,9.981,0
448,35.515,-97.516,344.4,3.8301,3,325,-1.167,-0.815,9.442,0
449,35.515,-97.516,344.5,4.51,3,324,-1.196,-0.851,9.555,1
450,35.515,-97.516,344.7,5.4611,3,324,-1.031,-0.722,9.8,1
451,35.515,-97.516,345.2,6.7601,3,324,-0.592,0.159,9.69,0
452,35.515,-97.516,345.5,7.4405,3,324,-0.359,-0.118,9.728,0
453,35.515,-97.516,345.6,7.5302,3,324,-0.42,0.062,9.859,0
454,35.515,-97.516,345.6,7.5301,3,324,-0.379,0.035,9.846,0
455,35.515,-97.516,345,7.4715,3,324,-0.4,0.082,9.509,0
456,35.515,-97.516,344.7,7.4103,3,324,-0.428,-0.036,9.851,0
457,35.515,-97.516,344.7,7.36,3,324,-0.374,0.02,9.828,0
458,35.515,-97.516,344.8,7.35,3,324,-0.61,-0.316,9.611,0
459,35.515,-97.516,344.9,7.59,3,324,-0.787,-0.319,9.609,0
460,35.515,-97.516,345,7.99,3,325,-1.167,-0.439,9.741,1
461,35.515,-97.516,345.1,8.67,3,324,-1.119,-1.007,9.652,1
462,35.516,-97.516,345.2,9.6603,3,324,-0.937,-0.548,9.905,0
463,35.516,-97.516,345.4,10.49,3,324,-0.338,0.306,9.974,0
464,35.516,-97.516,345.4,10.43,3,324,-0.322,0.377,9.791,0
465,35.516,-97.516,345.4,10.12,3,325,-0.386,0.404,9.918,0
466,35.516,-97.516,345.5,9.7803,3,325,-0.205,0.098,9.41,0
467,35.516,-97.517,345.4,9.5309,3,324,-0.687,-0.481,9.497,0
468,35.516,-97.517,345.2,9.8606,3,324,-1.086,-0.674,9.788,0
469,35.516,-97.517,344.8,10.5,3,324,-0.205,0.199,10.03,0
470,35.516,-97.517,344.5,10.55,3,324,0.051,0.791,9.974,0
471,35.516,-97.517,344.5,10.012,3,324,0.516,1.336,10.031,0
472,35.516,-97.517,344.7,8.5643,3,323,0.419,1.352,9.981,0
473,35.517,-97.517,344.7,7.0516,3,323,0.578,1.333,9.916,0
474,35.517,-97.517,345.1,5.3402,3,323,0.129,0.921,9.827,0
475,35.517,-97.517,345.3,4.201,3,322,0.02,0.784,10.088,0
476,35.517,-97.517,345.4,3.2615,3,323,-0.296,0.415,9.739,0
477,35.517,-97.517,345.4,2.5801,3,323,-0.228,0.301,9.663,0
478,35.517,-97.517,345.4,2.3401,3,323,-0.146,0.472,9.995,0
479,35.517,-97.517,345.4,1.9313,3,323,-0.352,0.334,9.722,0
480,35.517,-97.517,345.4,1.5803,3,324,-0.458,0.03,9.817,1
481,35.517,-97.517,345.4,1.44,3,324,-0.283,0.44,9.835,0
482,35.517,-97.517,345.4,1.28,3,323,-0.288,0.38,9.729,0
483,35.517,-97.517,345.4,1.28,3,323,-0.324,0.285,9.705,1
484,35.517,-97.517,345.3,0.59211,3,323,-0.382,0.27,9.736,1
485,35.517,-97.517,345.3,0.59211,3,323,-0.531,-0.039,9.825,1
486,35.517,-97.517,345.3,0.59211,3,323,-0.321,0.327,9.781,1
487,35.517,-97.517,345.3,0.27857,3,323,-0.48,0.069,9.827,1
488,35.517,-97.517,345.3,0.27857,3,323,-0.887,-0.434,9.637,1
489,35.517,-97.517,345.3,0.27857,3,323,-0.784,-0.38,9.775,1
490,35.517,-97.517,345.3,0.95,3,323,-0.773,-0.263,9.634,1
491,35.517,-97.517,345.2,1.44,3,323,-0.727,-0.149,9.714,0
492,35.517,-97.517,345.2,1.8717,3,323,-0.771,-0.331,9.722,1
493,35.517,-97.517,345.1,2.2232,3,323,-1.27,-0.962,9.51,1
494,35.517,-97.517,345,3.14,3,323,-1.202,-0.659,9.689,1
495,35.517,-97.517,344.9,4.32,3,323,-1.011,-0.719,9.494,1
496,35.517,-97.517,345,5.2708,3,323,-0.511,0.02,9.796,0
497,35.517,-97.517,345,5.7201,3,323,-0.511,0.033,9.659,0
498,35.517,-97.517,345.2,5.8402,3,323,-0.501,0.189,9.774,1
499,35.517,-97.517,345.5,5.8301,3,323,-0.472,0.222,9.71,1
500,35.517,-97.517,345.7,5.8303,3,323,-0.395,0.098,9.904,0
501,35.517,-97.517,345.9,5.8312,3,324,-0.432,0.03,9.798,0
502,35.517,-97.517,345.8,5.8407,3,323,-0.958,-0.564,9.786,0
503,35.517,-97.517,345.5,5.8801,3,323,-0.599,-0.31,9.799,0
504,35.517,-97.517,345.2,6.58,3,323,-0.472,-0.057,9.647,0
505,35.517,-97.517,345.1,6.9201,3,323,-0.428,0.077,9.972,0
506,35.517,-97.517,344.9,7.0203,3,322,-0.439,0.139,9.403,0
507,35.518,-97.517,345.1,7.0806,3,322,-0.453,0.012,9.94,0
508,35.518,-97.517,345.2,7.1002,3,322,-0.399,0.016,9.912,0
509,35.518,-97.517,345.4,7.131,3,322,-0.319,0.001,9.81,0
510,35.518,-97.517,345.6,7.1618,3,321,-0.29,-0.018,10.035,0
512,35.518,-97.517,346,7.1906,3,321,-0.135,-0.18,9.748,0
513,35.518,-97.517,346.4,7.2202,3,321,-0.389,0.01,10.133,0
514,35.518,-97.517,346.8,7.2501,3,321,-0.177,-0.154,9.641,0
515,35.518,-97.517,347.2,7.2501,3,321,0.17,0.435,9.811,0
516,35.518,-97.517,347.6,7.0303,3,321,0.622,0.874,9.878,0
517,35.518,-97.517,348.1,6.4405,3,321,0.869,0.953,10.124,0
518,35.518,-97.517,348.3,5.2705,3,320,0.408,0.876,9.923,0
519,35.518,-97.517,348.8,3.8338,3,320,0.309,0.618,9.637,0
520,35.518,-97.517,349,2.6305,3,320,-0.154,-0.138,9.727,1
521,35.518,-97.517,349.1,1.92,3,320,-0.312,-0.465,9.806,0
522,35.518,-97.517,349.2,1.9213,3,321,-0.268,-0.292,9.708,1
523,35.518,-97.517,349.3,2.1124,3,321,-0.199,-0.185,9.575,1
524,35.518,-97.517,349.7,2.2903,3,321,-0.341,-0.227,9.945,1
525,35.518,-97.517,349.9,2.4201,3,321,-0.32,-0.235,9.723,1
526,35.518,-97.517,350.1,2.6403,3,321,-0.689,-0.805,9.424,1
527,35.518,-97.517,350.6,3.1523,3,321,-0.339,-0.544,9.751,1
528,35.518,-97.517,351.2,3.5803,3,320,-0.692,-0.821,9.856,1
529,35.518,-97.517,351.7,4.0301,3,320,-0.271,-0.194,9.531,1
530,35.518,-97.517,352.1,4.1503,3,320,-0.148,-0.147,9.796,1
531,35.518,-97.517,352.5,4.13,3,319,-0.11,-0.186,9.944,1
532,35.519,-97.517,352.8,4.1002,3,319,-0.08,-0.054,9.759,0
533,35.519,-97.517,353,4.0406,3,319,-0.054,-0.144,9.747,0
534,35.519,-97.517,353.1,4.0902,3,319,-0.254,-0.228,9.845,1
535,35.519,-97.517,353.5,4.4122,3,319,-0.791,-0.943,9.499,1
536,35.519,-97.517,353.7,5.1406,3,319,-0.879,-0.895,9.512,1
537,35.519,-97.517,354.1,5.8801,3,319,-0.4,-0.395,9.388,1
538,35.519,-97.517,354.6,6.26,3,319,-0.31,-0.303,9.66,1
539,35.519,-97.517,355.3,6.5802,3,319,-0.315,-0.157,9.768,1
540,35.519,-97.517,355.7,6.7003,3,319,-0.21,-0.364,9.892,0
541,35.519,-97.517,355.9,6.76,3,319,-0.586,-0.522,9.565,0
542,35.519,-97.517,356.2,7.14,3,320,-0.599,-0.14,9.337,0
543,35.519,-97.517,357,7.4101,3,320,-0.074,-0.299,9.327,0
544,35.519,-97.517,357.6,7.8211,3,319,-0.747,-0.653,9.677,0
545,35.519,-97.517,357.9,8.0901,3,318,-0.492,-0.23,9.65,1
546,35.519,-97.517,358.7,8.5201,3,318,-0.306,-0.297,9.746,0
547,35.519,-97.517,359.4,8.6803,3,318,-0.757,-0.575,9.386,0
548,35.519,-97.517,0.1,8.9701,3,318,-0.507,-0.58,9.734,0
549,35.52,-97.517,0.7,9.3402,3,318,-0.139,-0.159,9.546,0
550,35.52,-97.517,1.3,9.6203,3,318,-0.186,-0.232,9.763,0
551,35.52,-97.517,1.9,9.7203,3,317,-0.397,-0.014,9.756,0
552,35.52,-97.517,2.7,9.9408,3,317,-0.331,-0.115,9.869,0
553,35.52,-97.517,3.2,10.062,3,317,-0.316,-0.071,9.715,0
554,35.52,-97.517,4.2,10.07,3,317,-0.499,-0.274,9.818,0
555,35.52,-97.517,4.8,10.34,3,316,-0.418,-0.032,9.928,0
556,35.52,-97.517,5.7,10.43,3,316,-0.336,-0.027,9.838,0
557,35.52,-97.517,6.4,10.531,3,316,-0.37,-0.12,9.79,1
558,35.52,-97.517,7.5,10.55,3,315,-0.345,-0.113,10.019,0
559,35.52,-97.517,8.1,10.61,3,315,-0.372,-0.018,9.873,0
560,35.521,-97.517,8.8,10.681,3,315,0.465,1.102,10.241,0
561,35.521,-97.517,9.6,10.672,3,314,0.816,1.36,10.156,0
562,35.521,-97.517,10.5,9.2011,3,314,-0.302,0.046,9.908,0
563,35.521,-97.517,11.7,8.4004,3,313,-0.331,-0.158,9.716,0
564,35.521,-97.517,12,8.2401,3,313,-0.255,-0.036,9.739,1
565,35.521,-97.517,11.9,7.7226,3,313,-0.244,-0.14,9.807,0
566,35.521,-97.517,12.7,7.9802,3,313,-0.286,-0.072,9.7,0
567,35.521,-97.517,12.7,7.9001,3,313,-0.406,-0.058,9.75,0
568,35.521,-97.517,12.9,8.0906,3,315,-0.387,0.018,9.711,0
569,35.521,-97.517,12.9,8.05,3,314,-0.356,-0.02,9.764,0
570,35.521,-97.517,13.1,7.9902,3,313,-0.451,0.103,9.676,0
571,35.521,-97.517,13.5,8.0002,3,312,-0.581,-0.262,9.818,0
572,35.521,-97.517,13.6,8.0001,3,311,-0.668,-0.204,10.05,0
573,35.522,-97.517,13.6,8.3404,3,312,-0.702,-0.095,10.031,0
574,35.522,-97.517,14,8.2201,3,311,-0.728,-0.19,9.654,0
575,35.522,-97.517,14.5,8.56,3,311,-0.972,-0.516,9.796,0
576,35.522,-97.517,15.2,8.8803,3,311,-0.85,-0.724,9.628,0
577,35.522,-97.517,15.7,9.35,3,312,-0.758,-0.467,9.911,0
579,35.522,-97.517,15.9,9.9002,3,312,-0.948,-0.694,9.672,0
580,35.522,-97.517,16.3,10.31,3,312,-0.906,-0.337,9.675,0
581,35.522,-97.517,16.6,10.94,3,313,-0.462,0.055,9.745,0
582,35.522,-97.517,17,11.241,3,313,-0.516,-0.001,9.689,0
583,35.522,-97.517,17.3,11.181,3,313,-0.704,-0.201,9.946,0
584,35.522,-97.517,17.6,11.33,3,313,-0.573,-0.03,9.498,0
585,35.523,-97.517,18,11.28,3,312,-0.438,-0.094,9.597,0
586,35.523,-97.517,18.3,11.6,3,311,-0.707,-0.207,9.592,0
587,35.523,-97.517,18.9,11.481,3,312,-0.824,-0.407,9.895,0
588,35.523,-97.516,19.4,11.36,3,312,-0.429,-0.139,9.654,0
589,35.523,-97.516,19.8,11.801,3,312,-0.572,-0.145,9.501,0
590,35.523,-97.516,20.2,11.763,3,312,-0.452,-0.119,9.507,0
591,35.523,-97.516,20.4,11.671,3,313,-0.71,0.07,10.26,0
592,35.523,-97.516,21.1,11.371,3,313,-0.09,0.392,10.033,0
593,35.523,-97.516,21.7,10.611,3,313,-0.017,1.06,10.218,0
594,35.523,-97.516,22.5,9.4609,3,313,-0.361,0.086,9.57,1
595,35.524,-97.516,23.1,8.97,3,313,-0.075,0.351,9.749,0
596,35.524,-97.516,23.6,8.4404,3,313,0.311,0.726,10.035,0
597,35.524,-97.516,23.6,7.3203,3,314,-0.376,0.046,9.734,0
598,35.524,-97.516,23.6,6.6017,3,314,-0.406,0.104,9.719,0
599,35.524,-97.516,23.5,6.2518,3,314,-0.808,-0.369,9.721,0
