time,lat,lng,bearing,spd,acc,alt,accx,accy,accz,stable,
0,35.21,-97.439,0,0,3,325,-2.925,-0.561,9.166,0
1,35.21,-97.439,0,0,3,325,-2.922,-0.577,9.146,0
2,35.21,-97.439,0,0,3,325,-2.942,-0.576,9.148,0
3,35.21,-97.439,0,0,3,325,-2.935,-0.576,9.164,1
5,35.21,-97.439,0,0,3,325,-3.119,-0.665,9.014,1
6,35.21,-97.439,0,0,3,325,-3.525,-0.997,8.868,1
7,35.21,-97.439,1.2,1.0226,3,322,-4.149,-1.301,8.741,1
8,35.21,-97.439,355.7,2.5805,3,321,-3.929,-1.003,8.936,1
9,35.21,-97.439,355.5,3.5102,3,321,-3.827,-0.852,8.959,1
10,35.21,-97.439,357.5,4.4809,3,323,-3.592,-0.757,8.89,1
11,35.21,-97.439,358.5,4.9904,3,324,-3.373,-0.536,8.997,1
12,35.21,-97.439,358.8,5.3021,3,323,-2.977,-0.75,8.864,1
13,35.21,-97.439,358.7,5.3824,3,323,-2.791,-0.515,9.048,1
14,35.21,-97.439,0.1,5.3824,3,323,-3.01,-0.611,9.108,1
15,35.21,-97.439,0,5.24,3,323,-3.164,-0.707,8.988,1
16,35.211,-97.439,0.2,5.7407,3,323,-2.842,-0.59,9.211,1
17,35.211,-97.439,0.1,5.6406,3,323,-3.118,-0.686,9.199,1
18,35.211,-97.439,0,5.6804,3,323,-3.152,-0.749,9.232,1
19,35.211,-97.439,0.2,5.7917,3,323,-3.15,-1.012,9.254,0
20,35.211,-97.439,0.1,6.02,3,323,-2.775,-0.613,9.061,0
21,35.211,-97.439,359.9,5.8502,3,323,-2.426,-0.56,9.48,0
22,35.211,-97.439,359.7,5.53,3,323,-1.474,0.11,9.592,0
23,35.211,-97.439,359.5,4.19,3,323,-1.511,0.129,9.519,0
24,35.211,-97.439,359,2.3702,3,323,-2.288,-0.289,9.394,0
25,35.211,-97.439,359,1.1602,3,324,-2.866,-0.571,9.186,0
26,35.211,-97.439,359,1.1602,3,324,-3.41,-0.866,9.059,1
27,35.211,-97.439,0.1,1.0617,3,323,-3.932,-1.066,8.814,1
28,35.211,-97.439,358.6,2.8404,3,323,-2.788,-0.157,9.333,1
29,35.211,-97.439,355.5,2.28,3,323,-2.552,-0.036,9.348,1
30,35.211,-97.439,356.3,1.6605,3,324,-1.995,0.225,9.576,1
31,35.211,-97.439,356.3,1.6605,3,324,-2.389,0.142,9.289,1
32,35.211,-97.439,356.3,1.6605,3,324,-2.793,-0.079,9.331,1
33,35.211,-97.439,356.3,1.6605,3,324,-2.916,-0.183,9.231,1
34,35.211,-97.439,0,0,3,325,-2.943,-0.198,9.252,1
36,35.211,-97.439,0,0,3,325,-2.895,-0.159,9.262,1
37,35.211,-97.439,0,0,3,325,-2.906,-0.156,9.235,1
38,35.211,-97.439,0,0,3,325,-2.907,-0.158,9.234,1
39,35.211,-97.439,0,0,3,325,-2.899,-0.157,9.219,1
40,35.211,-97.439,0,0,3,325,-2.904,-0.162,9.214,1
41,35.211,-97.439,0,0,3,325,-2.913,-0.15,9.215,1
42,35.211,-97.439,0,0,3,325,-2.897,-0.167,9.243,1
43,35.211,-97.439,0,0,3,325,-2.905,-0.156,9.234,1
44,35.211,-97.439,0,0,3,325,-2.895,-0.143,9.222,1
45,35.211,-97.439,0,0,3,325,-3.012,-0.209,9.184,1
46,35.211,-97.439,0,0,3,325,-4.516,-0.74,8.694,1
47,35.211,-97.439,4.9,1.2604,3,325,-4.558,-0.276,8.722,1
48,35.211,-97.439,4.9,1.58,3,325,-2.844,-2.236,9.064,1
49,35.211,-97.439,0.8,3.8313,3,325,-1.861,-3.144,8.768,1
50,35.211,-97.439,344.8,4.5902,3,326,-1.505,-3.601,9.119,1
51,35.211,-97.439,321.3,5.021,3,326,-2.962,-2.31,8.843,1
52,35.211,-97.439,299.3,5.6385,3,328,-3.766,-1.438,8.797,1
53,35.211,-97.439,268.8,7.87,3,327,-3.711,-1.184,8.912,1
54,35.211,-97.439,268.7,9.0201,3,327,-3.533,-0.978,8.833,1
55,35.211,-97.439,269.6,9.76,3,327,-3.429,-0.975,8.959,1
56,35.211,-97.439,270.3,10.39,3,327,-3.443,-0.912,8.865,1
57,35.211,-97.44,271,10.87,3,327,-3.613,-1.064,9.222,1
58,35.211,-97.44,271.1,11.35,4,328,-3.149,-0.846,8.55,1
59,35.211,-97.44,271.5,11.74,5,328,-3.236,-0.711,8.841,1
60,35.211,-97.44,271.3,12.19,5,328,-3.315,-0.791,8.918,1
61,35.211,-97.44,272.2,13.03,5,329,-3.134,-0.807,9.103,1
62,35.211,-97.44,272.6,13.192,4,330,-2.774,-0.68,9.293,1
63,35.211,-97.441,271.9,13.23,3,330,-2.828,-0.765,9.363,1
64,35.211,-97.441,271.6,13.241,3,329,-2.898,-0.873,8.888,1
65,35.211,-97.441,270.5,13.28,3,328,-2.857,-0.878,9.022,1
66,35.211,-97.441,270.1,13.41,3,327,-2.88,-0.633,9.101,1
67,35.211,-97.441,270.3,13.52,3,327,-3.044,-0.758,9.027,1
68,35.211,-97.441,270.2,13.69,3,328,-2.936,-0.833,9.164,1
70,35.211,-97.441,269.8,13.95,3,328,-2.944,-0.751,8.927,1
71,35.211,-97.442,270.1,14.1,3,328,-2.986,-1.003,9.058,1
72,35.211,-97.442,269.7,14.36,3,329,-2.926,-0.819,9.128,1
73,35.211,-97.442,268.7,14.67,3,328,-2.859,-0.838,9.382,1
74,35.211,-97.442,267.9,14.94,3,329,-2.858,-0.639,8.977,1
75,35.211,-97.442,268.5,14.81,3,329,-2.751,-0.513,9.201,1
76,35.211,-97.442,268.7,14.51,3,328,-2.705,-0.319,9.527,1
77,35.211,-97.443,269.3,14.16,3,327,-2.673,-0.268,9.193,1
78,35.211,-97.443,270,13.8,3,327,-1.997,-0.179,8.993,1
79,35.211,-97.443,270.2,13.08,3,328,-1.519,0.24,9.39,1
80,35.211,-97.443,270,11.62,3,327,-1.288,0.388,9.753,1
81,35.211,-97.443,270.1,9.91,3,327,-0.927,1.101,9.206,1
82,35.211,-97.443,270.2,7.99,3,328,-1.461,0.257,9.417,1
83,35.211,-97.443,267.5,6.8206,3,327,-2.197,-0.243,9.364,1
84,35.211,-97.443,270.2,5.2901,3,327,-1.95,-0.066,9.427,1
85,35.211,-97.443,270.4,4.42,3,327,-2.063,-0.075,9.467,1
86,35.211,-97.443,269.9,3.32,3,327,-2.336,-0.345,9.35,1
87,35.211,-97.443,270.5,2.68,3,327,-2.524,-0.415,9.364,1
88,35.211,-97.443,270.5,2.2606,3,328,-2.532,-0.434,9.291,1
89,35.211,-97.443,270,1.91,3,328,-2.264,-0.211,9.376,1
90,35.211,-97.443,270,1.4901,3,329,-2.063,-0.069,9.34,1
91,35.211,-97.443,270,1.4901,3,329,-2.729,-0.512,9.277,1
92,35.211,-97.443,270,1.4901,3,329,-2.833,-0.579,9.134,1
93,35.211,-97.443,270,1.4901,3,329,-2.873,-0.633,9.181,1
94,35.211,-97.443,270,1.4901,3,329,-2.861,-0.615,9.189,1
95,35.211,-97.443,270,1.4901,3,329,-2.859,-0.61,9.177,1
96,35.211,-97.443,270,1.4901,3,329,-2.862,-0.616,9.18,1
97,35.211,-97.443,270,1.4901,3,329,-2.864,-0.601,9.15,1
98,35.211,-97.443,270,1.4901,3,329,-2.855,-0.604,9.167,1
99,35.211,-97.443,270,1.4901,3,329,-2.861,-0.599,9.157,1
100,35.211,-97.443,270,1.4901,3,329,-2.847,-0.6,9.195,1
101,35.211,-97.443,270,1.4901,3,329,-2.853,-0.613,9.17,1
102,35.211,-97.443,0,0,3,331,-2.856,-0.61,9.158,1
103,35.211,-97.443,0,0,3,331,-2.863,-0.6,9.154,1
104,35.211,-97.443,0,0,3,331,-2.863,-0.609,9.187,1
106,35.211,-97.443,0,0,3,331,-2.864,-0.613,9.185,1
107,35.211,-97.443,0,0,3,331,-2.865,-0.599,9.152,1
108,35.211,-97.443,0,0,3,331,-2.873,-0.602,9.183,1
109,35.211,-97.443,0,0,3,331,-2.855,-0.601,9.192,1
110,35.211,-97.443,0,0,3,331,-2.861,-0.603,9.17,1
111,35.211,-97.443,0,0,3,331,-2.864,-0.604,9.181,1
112,35.211,-97.443,0,0,3,331,-2.856,-0.597,9.165,1
113,35.211,-97.443,0,0,3,331,-2.856,-0.609,9.181,1
114,35.211,-97.443,0,0,3,331,-2.853,-0.602,9.183,1
115,35.211,-97.443,0,0,3,331,-2.859,-0.609,9.163,1
116,35.211,-97.443,0,0,3,331,-2.867,-0.608,9.178,1
117,35.211,-97.443,0,0,3,331,-2.955,-0.666,9.137,1
118,35.211,-97.443,0,0,3,331,-3.618,-1.101,8.843,1
119,35.211,-97.443,272.6,0.88142,3,331,-3.756,-1.211,8.733,1
120,35.211,-97.443,270.2,1.9601,3,331,-3.806,-1.249,8.735,1
121,35.211,-97.443,270.6,3.2004,3,331,-3.828,-1.239,8.674,1
122,35.211,-97.444,270.2,4.38,3,332,-3.786,-1.277,8.951,1
123,35.211,-97.444,269.9,5.49,3,331,-3.355,-1.133,8.446,0
124,35.211,-97.444,269.2,6.45,3,332,-3.563,-0.944,8.775,0
125,35.211,-97.444,270.2,7.2702,3,331,-2.867,-1.252,8.534,0
126,35.211,-97.444,270.4,8.1,3,332,-3.457,-1.374,8.93,0
127,35.211,-97.444,270.4,8.8905,3,331,-3.522,-1.234,8.804,0
128,35.211,-97.444,270.3,9.84,3,331,-3.441,-1.097,8.894,0
129,35.211,-97.444,270.1,10.71,3,330,-3.433,-1.132,8.947,0
130,35.211,-97.444,270.2,11.49,3,330,-3.331,-1.083,8.954,1
131,35.211,-97.444,270.1,12.2,3,330,-3.294,-1.104,8.972,1
132,35.211,-97.445,270.1,12.9,3,330,-2.818,-0.846,8.874,1
133,35.211,-97.445,269.9,13.43,3,330,-2.62,-0.447,9.221,1
134,35.211,-97.445,269.8,13.3,3,330,-2.913,-0.688,9.174,1
135,35.211,-97.445,270.5,13.02,3,330,-3.386,-0.758,9.408,0
136,35.211,-97.445,270.8,13.61,3,329,-3.157,-0.947,9.139,0
137,35.211,-97.445,270.3,13.93,3,329,-2.692,-0.795,8.83,0
138,35.211,-97.446,270.6,13.73,3,329,-2.547,-0.504,8.731,0
139,35.211,-97.446,270.6,13.42,3,329,-2.422,-0.455,8.972,0
140,35.211,-97.446,270.3,13.26,3,329,-2.66,-0.575,8.884,0
141,35.211,-97.446,269.9,13.27,3,329,-2.906,-0.69,9.126,0
142,35.211,-97.446,269.9,13.35,3,329,-2.682,-0.618,9.114,0
143,35.211,-97.446,269.8,13.12,3,328,-2.551,-0.406,9.265,1
144,35.211,-97.447,269.2,12.932,3,328,-2.63,-0.38,9.292,1
145,35.211,-97.447,269.7,12.55,3,328,-2.482,-0.479,9.341,1
147,35.211,-97.447,270.3,12.13,3,328,-2.118,-0.274,9.088,1
148,35.211,-97.447,270.6,11.42,3,328,-1.783,-0.139,9.617,1
149,35.211,-97.447,270.3,10.56,3,328,-2.539,-0.57,9.45,1
150,35.211,-97.447,272.1,10.052,3,329,-3.095,-1.099,9.08,1
151,35.211,-97.447,270.4,10.64,3,329,-3.063,-0.917,8.81,1
152,35.211,-97.447,269.6,11.22,3,330,-3.076,-0.939,9.097,1
153,35.211,-97.447,270,11.63,3,330,-3.045,-1.088,9.147,1
154,35.211,-97.448,270.2,12.02,3,330,-3.179,-1.088,9.178,1
155,35.211,-97.448,270.2,12.43,3,329,-2.936,-0.628,9.197,1
156,35.211,-97.448,269.8,12.49,3,328,-2.285,-0.212,9.543,1
157,35.211,-97.448,269.6,11.87,3,328,-1.822,-0.107,9.581,1
158,35.211,-97.448,269.7,10.55,3,328,-2.463,-0.473,9.394,1
159,35.211,-97.448,269.7,10.14,3,328,-2.469,-0.428,9.661,1
160,35.211,-97.448,269.3,9.82,3,328,-2.687,-0.469,9.185,1
161,35.211,-97.448,269.1,9.74,3,328,-2.763,-0.681,9.09,1
162,35.211,-97.449,269.8,9.7603,3,327,-3.199,-0.822,8.987,1
163,35.211,-97.449,270.3,9.9104,3,328,-3.41,-1.008,8.82,1
164,35.211,-97.449,270.1,10.91,3,328,-4.302,-1.324,9.954,0
165,35.211,-97.449,270,11.74,3,328,-3.594,-1.245,8.94,0
166,35.211,-97.449,271.8,12.246,3,329,-3.465,-1.063,8.746,0
167,35.211,-97.449,269.6,13.35,3,329,-3.364,-1.028,8.793,0
168,35.211,-97.449,269.9,13.93,3,329,-3.536,-0.726,9.093,0
169,35.211,-97.45,270.1,14.27,3,329,-3.311,-0.689,9.291,0
170,35.211,-97.45,270.1,14.39,3,329,-2.889,-0.655,8.999,0
171,35.211,-97.45,270,14.581,3,329,-2.716,-0.811,8.821,0
172,35.211,-97.45,270.4,14.64,3,329,-2.773,-0.642,8.95,1
173,35.211,-97.45,270.9,14.72,3,329,-2.46,-0.663,8.972,1
174,35.211,-97.45,270.3,14.6,3,329,-2.629,-0.864,9.153,1
175,35.211,-97.451,270.1,14.521,3,329,-2.812,-0.823,9.152,1
176,35.211,-97.451,270.5,14.46,3,328,-2.815,-0.693,8.912,1
177,35.211,-97.451,270.7,14.61,3,328,-2.587,-0.751,8.704,1
178,35.211,-97.451,270.8,14.76,3,328,-2.751,-0.866,9.092,1
179,35.211,-97.451,271,14.88,3,328,-2.872,-0.89,9.399,1
180,35.211,-97.451,270.5,15.05,3,329,-2.494,-0.61,9.091,1
181,35.211,-97.451,270.4,14.92,3,329,-2.404,-0.14,8.435,1
182,35.211,-97.452,270.4,14.61,3,329,-2.51,-0.645,9.099,1
183,35.211,-97.452,270.4,14.612,3,328,-2.341,-0.676,9.303,1
184,35.211,-97.452,270,14.04,3,328,-2.404,-0.656,9.392,1
185,35.211,-97.452,271.4,13.66,3,327,-2.428,-0.496,9.093,1
186,35.211,-97.452,270.4,13.611,3,327,-2.437,-0.606,9.13,1
187,35.211,-97.453,270.7,13.52,3,327,-2.407,-0.599,9.176,1
188,35.211,-97.453,270.7,13.32,3,326,-2.416,-0.67,9.218,1
189,35.211,-97.453,270.9,13.256,3,328,-2.573,-0.597,9.374,1
190,35.211,-97.453,269.5,13.21,3,327,-2.637,-0.702,9.418,1
191,35.211,-97.453,270.1,13.062,3,326,-2.44,-0.544,8.89,1
193,35.211,-97.453,270,12.752,3,325,-2.517,-0.749,9.438,1
194,35.211,-97.453,269.5,12.741,3,325,-2.617,-0.857,9.244,1
195,35.211,-97.454,270.2,12.902,3,325,-2.488,-0.846,9.256,1
196,35.211,-97.454,270.2,12.86,3,324,-2.515,-0.499,9.388,1
197,35.211,-97.454,270.4,12.74,3,324,-2.431,-0.561,9.447,1
198,35.211,-97.454,270.9,12.62,4,324,-2.695,-0.721,9.541,1
199,35.211,-97.454,269.4,12.87,3,324,-2.707,-0.909,9.535,1
200,35.211,-97.454,270.6,12.84,3,325,-2.547,-1.01,9.13,1
201,35.211,-97.454,271,12.811,3,325,-2.602,-0.85,8.655,1
202,35.211,-97.455,269.9,12.883,3,324,-2.665,-0.6,9.03,1
203,35.211,-97.455,270.1,12.98,3,325,-2.361,-0.797,9.241,0
204,35.211,-97.455,270.2,13.03,3,323,-2.66,-0.74,9.355,0
205,35.211,-97.455,270.3,12.83,3,323,-2.755,-0.694,9.149,0
206,35.211,-97.455,270.4,12.67,3,323,-2.762,-0.882,9.213,0
207,35.211,-97.455,270.1,12.511,3,322,-2.992,-1.087,9.244,0
208,35.211,-97.455,270,12.492,3,321,-3.133,-1.056,9.201,0
209,35.211,-97.456,270,12.72,3,321,-3.172,-0.961,9.029,0
210,35.211,-97.456,270.1,12.7,3,322,-3.171,-1.008,9.083,0
211,35.211,-97.456,270.4,12.704,3,322,-3.148,-1.102,8.964,1
212,35.211,-97.456,270.8,12.842,3,323,-3.061,-1.266,8.958,1
213,35.211,-97.456,268.9,12.8,3,323,-3.134,-0.965,8.801,1
214,35.211,-97.456,271.6,12.846,3,324,-3.112,-0.99,8.929,1
215,35.211,-97.456,267.5,13.711,3,324,-2.968,-1.023,8.623,1
216,35.211,-97.457,268.5,13.801,3,323,-2.617,-0.759,9.222,1
217,35.211,-97.457,269.3,13.75,3,324,-2.776,-0.724,9.081,1
218,35.211,-97.457,270.3,13.63,3,325,-2.721,-0.608,9.047,1
219,35.211,-97.457,270,13.183,3,326,-2.788,-0.633,9.231,1
220,35.211,-97.457,270.3,13.4,3,326,-2.558,-0.604,9.314,1
221,35.211,-97.457,270.4,13.09,3,326,-2.487,-0.576,9.242,1
222,35.211,-97.457,270.4,12.74,3,326,-2.714,-0.636,9.445,1
223,35.211,-97.458,270.3,12.46,3,326,-3.002,-0.648,9.218,1
224,35.211,-97.458,270.2,12.51,3,326,-2.537,-0.579,9.198,1
225,35.211,-97.458,270.2,12.31,3,326,-2.415,-0.523,9.199,1
226,35.211,-97.458,270.6,11.9,3,326,-1.981,-0.242,9.404,1
227,35.211,-97.458,270,11.482,3,326,-1.555,0.035,9.743,1
228,35.211,-97.458,267.2,9.9807,3,326,-1.649,0.019,9.599,1
229,35.211,-97.458,268.1,8.73,3,326,-1.745,0.063,9.44,1
230,35.211,-97.458,267.4,7.3604,3,326,-1.889,-0.06,9.605,1
231,35.211,-97.458,267.2,6.06,3,326,-1.839,0.153,9.533,1
232,35.211,-97.458,268.7,4.74,3,326,-2.114,0.116,9.474,1
233,35.211,-97.459,269,2.5703,3,326,-2.388,-0.158,9.385,1
234,35.211,-97.459,269.1,1.94,3,326,-2.473,-0.301,9.32,1
235,35.211,-97.459,269.1,1.3124,3,325,-2.472,-0.31,9.268,1
236,35.211,-97.459,269.1,1.3124,3,325,-2.239,-0.113,9.336,1
237,35.211,-97.459,0,0.03,3,325,-2.763,-0.489,9.243,1
238,35.211,-97.459,0,0.03,3,325,-2.878,-0.603,9.181,1
239,35.211,-97.459,0,0.03,3,325,-2.868,-0.564,9.076,1
240,35.211,-97.459,0,0.03,3,325,-2.883,-0.582,9.169,1
241,35.211,-97.459,0,0.03,3,325,-2.905,-0.607,9.166,1
242,35.211,-97.459,0,0.03,3,325,-2.906,-0.607,9.143,1
243,35.211,-97.459,0,0.03,3,325,-2.895,-0.618,9.161,1
244,35.211,-97.459,0,0.03,3,325,-2.899,-0.6,9.143,1
245,35.211,-97.459,0,0.03,3,325,-3.052,-0.718,9.09,1
246,35.211,-97.459,268.5,0.25962,3,326,-3.169,-0.812,9.033,1
248,35.211,-97.459,268.5,0.25962,3,326,-3.186,-0.822,9.034,1
249,35.211,-97.459,268.5,0.25962,3,326,-3.166,-0.759,9.004,1
250,35.211,-97.459,269.6,1.3545,3,325,-3.148,-0.749,9.04,1
251,35.211,-97.459,271.5,1.6976,3,326,-3.908,-1.152,8.809,1
252,35.211,-97.459,270.1,2.84,3,326,-4.05,-1.271,8.711,1
253,35.211,-97.459,271.3,4.233,3,326,-3.973,-1.253,8.81,1
254,35.211,-97.459,271.6,5.4205,3,326,-3.686,-0.995,8.854,1
255,35.211,-97.459,270.4,6.2708,3,327,-2.535,-0.953,8.925,1
256,35.211,-97.459,266.7,6.32,3,327,-1.341,-1.959,9.367,1
257,35.211,-97.459,250.2,6.1412,3,326,-0.984,-2.807,9.213,1
258,35.211,-97.459,227,5.98,3,326,-0.605,-3.154,9.028,1
259,35.211,-97.459,198.7,6.2901,3,327,-1.753,-2.133,9.009,1
260,35.211,-97.459,191.4,6.422,3,327,-3.046,-1.313,8.933,1
261,35.211,-97.459,177.4,7.43,3,328,-3.223,-0.655,8.677,1
262,35.211,-97.459,178.1,8.0402,3,327,-3.368,-0.529,8.877,1
263,35.211,-97.459,179,8.6001,3,327,-3.413,-0.876,9.166,1
264,35.211,-97.459,178.2,9.1507,3,328,-2.914,-1.229,8.95,0
265,35.211,-97.459,175.7,9.8643,3,328,-3.223,-0.934,9.053,0
266,35.21,-97.459,174.3,10.051,3,328,-3.161,-0.797,8.996,0
267,35.21,-97.459,176.4,10.391,3,328,-3.366,-0.592,9.209,0
268,35.21,-97.459,178.6,10.731,3,328,-3.213,-0.883,9.102,0
269,35.21,-97.459,179.6,11.02,3,328,-3.222,-0.922,9.14,0
270,35.21,-97.459,179.7,11.45,3,329,-3.203,-0.896,9.094,0
271,35.21,-97.459,180,11.321,3,328,-3.181,-0.822,9.256,1
272,35.21,-97.459,179.4,12.07,3,327,-3.17,-0.94,8.897,1
273,35.21,-97.459,180.2,12.46,3,327,-3.08,-0.919,8.956,1
274,35.21,-97.459,179.6,12.69,3,326,-2.947,-0.852,9.193,1
275,35.21,-97.459,179,12.81,3,325,-2.684,-0.558,9.02,1
276,35.209,-97.459,180.2,12.92,3,325,-2.671,-0.715,9.284,1
277,35.209,-97.459,180,12.631,3,325,-2.725,-0.627,9.341,1
278,35.209,-97.459,179.7,12.29,3,325,-2.573,-0.453,9.088,1
279,35.209,-97.459,179.8,12.18,3,325,-2.659,-0.54,9.11,1
280,35.209,-97.459,181.1,12.351,3,326,-2.638,-0.553,9.049,1
281,35.209,-97.459,180.2,12.16,3,326,-2.806,-0.821,9.276,1
282,35.209,-97.459,180.1,12.261,3,328,-2.947,-0.696,9.153,1
283,35.209,-97.459,180,12.08,3,326,-2.882,-0.825,9.307,1
284,35.209,-97.459,180.2,12.15,3,326,-2.876,-0.96,9.208,0
285,35.208,-97.459,180,12.16,3,325,-2.876,-0.758,9.178,0
286,35.208,-97.459,179.4,12.27,3,325,-2.758,-0.91,9.098,0
287,35.208,-97.459,179.4,12.25,3,325,-2.982,-0.601,9.121,0
288,35.208,-97.459,180.2,12.315,3,325,-2.853,-0.771,9.117,0
289,35.208,-97.459,180,12.412,3,326,-2.662,-0.699,8.833,0
290,35.208,-97.459,178.9,12.78,3,324,-2.951,-0.827,9.325,0
291,35.208,-97.459,179.5,12.761,3,324,-2.909,-0.664,9.228,1
292,35.208,-97.459,180.1,12.622,3,326,-2.76,-0.592,9.105,1
293,35.207,-97.459,178.9,12.285,3,327,-2.788,-0.787,9.005,1
294,35.207,-97.459,179.4,12.29,3,327,-2.946,-0.668,9.329,1
295,35.207,-97.459,179,13.23,3,327,-2.986,-0.723,9.266,1
296,35.207,-97.459,178.6,13.231,3,328,-2.977,-0.704,9.056,1
297,35.207,-97.459,177.5,13.43,3,328,-2.836,-0.692,9.145,1
298,35.207,-97.459,182.1,12.89,3,329,-2.814,-0.685,9.001,1
299,35.207,-97.459,179.9,13.17,3,329,-2.939,-0.717,9.313,1
300,35.207,-97.459,179.6,13.305,3,330,-2.816,-0.754,9.138,1
301,35.206,-97.459,178.9,13.62,3,330,-3.119,-0.965,9.145,1
303,35.206,-97.459,180.1,13.19,3,331,-3.012,-0.786,8.76,1
304,35.206,-97.459,180.4,13.122,3,330,-2.848,-0.636,9.016,1
305,35.206,-97.459,179.6,12.76,3,330,-2.478,-0.728,8.932,1
306,35.206,-97.459,180.6,12.604,3,330,-2.518,-0.592,9.208,1
307,35.206,-97.459,179.8,12.48,3,330,-2.581,-0.741,9.29,1
308,35.206,-97.459,179.6,12.311,3,330,-2.483,-0.543,9.117,1
309,35.206,-97.459,179.5,12.212,3,328,-2.675,-0.495,9.66,0
310,35.206,-97.459,179.4,12.314,3,327,-2.619,-0.339,9.255,0
311,35.205,-97.459,179.8,12.201,3,327,-2.543,-0.374,8.872,0
312,35.205,-97.459,179.9,12.351,3,326,-2.859,-0.63,9.721,0
313,35.205,-97.459,180.6,12.581,3,326,-2.869,-0.809,9.097,0
314,35.205,-97.459,178.2,12.512,3,326,-3.099,-0.833,8.949,0
315,35.205,-97.459,178.5,13.522,3,324,-2.969,-0.268,9.064,0
316,35.205,-97.459,180.7,14.085,3,324,-3.022,-0.404,9.497,0
317,35.205,-97.459,182.2,14.582,3,323,-3.108,-0.362,8.846,0
318,35.205,-97.459,183.4,14.891,3,323,-2.68,-0.529,9.398,0
319,35.204,-97.459,182.8,14.82,3,323,-2.056,-0.847,9.273,0
320,35.204,-97.459,182,14.431,3,323,-1.075,0.117,9.753,0
321,35.204,-97.459,180.6,12.49,3,323,-0.921,0.377,9.641,0
322,35.204,-97.459,180,10.2,3,322,-1.824,1.303,9.4,0
323,35.204,-97.459,185.6,8.0705,3,323,-4.384,3.246,9.057,0
324,35.204,-97.459,213.9,7.0131,3,323,-5.681,3.487,9.425,0
325,35.204,-97.459,231.3,6.5908,3,322,-4.451,-0.1,8.96,0
326,35.204,-97.459,243.8,7.5632,3,324,-3.805,-1.052,8.811,0
327,35.204,-97.459,268.6,9.3503,3,325,-3.762,-1.198,8.982,0
328,35.204,-97.459,269.8,10.3,3,326,-3.28,-1.025,8.961,0
329,35.204,-97.46,270.7,10.94,3,326,-3.067,-1.27,8.934,0
330,35.204,-97.46,271.2,11.361,3,326,-3.32,-1.369,9.076,0
331,35.204,-97.46,270.9,11.811,3,325,-2.952,-1.065,8.604,0
332,35.204,-97.46,270,12.29,3,325,-3.227,-1.323,9.064,0
333,35.204,-97.46,269.8,12.74,3,325,-3.039,-1.081,8.919,0
334,35.204,-97.46,269.8,13.13,3,324,-3.013,-1.031,8.929,0
335,35.204,-97.46,269.9,13.32,3,324,-2.818,-0.898,9.033,0
336,35.204,-97.461,270,13.46,3,324,-2.728,-0.87,9.133,0
337,35.204,-97.461,269.8,13.44,3,324,-2.717,-1.026,9.185,0
338,35.204,-97.461,269.5,13.36,3,323,-2.756,-0.789,9.138,0
339,35.204,-97.461,270,13.28,3,324,-2.606,-0.803,9.391,1
340,35.204,-97.461,270,13.04,3,324,-2.324,-0.73,8.952,1
341,35.204,-97.461,270.5,12.75,3,323,-2.428,-0.983,9.243,1
342,35.204,-97.461,270.1,12.47,3,323,-2.47,-0.872,9.254,1
343,35.204,-97.462,269.8,12.21,3,323,-2.53,-0.731,9.169,1
344,35.204,-97.462,269.9,11.92,3,323,-2.419,-0.857,9.205,1
345,35.204,-97.462,269.9,11.63,3,323,-2.418,-0.848,9.201,1
346,35.204,-97.462,270.2,11.28,3,322,-2.348,-0.908,9.144,1
347,35.204,-97.462,269.9,10.92,3,323,-2.524,-0.722,9.13,1
348,35.204,-97.462,269.7,10.61,3,323,-2.48,-0.706,9.118,1
349,35.204,-97.462,269.8,10.29,3,324,-2.597,-0.882,9.171,1
350,35.204,-97.462,270.1,10.05,3,325,-2.798,-0.933,8.806,1
351,35.204,-97.463,270.5,10.25,3,325,-2.907,-1.08,8.78,1
352,35.204,-97.463,270.5,10.57,3,324,-3.105,-1.136,8.958,1
353,35.204,-97.463,270.6,11.1,3,324,-3.225,-1.243,8.914,1
354,35.204,-97.463,270.4,11.68,3,324,-3.049,-1.237,8.798,1
355,35.204,-97.463,270.1,12.18,3,323,-2.87,-1.038,8.813,1
356,35.204,-97.463,269.4,12.411,3,323,-2.862,-0.785,8.767,1
357,35.204,-97.463,269.8,12.56,3,324,-2.928,-1.119,8.928,1
358,35.204,-97.464,270,12.86,3,324,-2.589,-1.068,8.923,1
359,35.204,-97.464,270.2,12.81,3,324,-2.757,-1.011,9.18,1
360,35.204,-97.464,270,12.71,3,324,-2.825,-0.917,9.107,1
361,35.204,-97.464,269.9,12.62,3,324,-2.717,-0.952,9.066,1
362,35.204,-97.464,269.6,12.59,3,324,-2.802,-1.043,9.084,1
363,35.204,-97.464,269.8,12.62,3,323,-2.938,-0.971,8.88,1
364,35.204,-97.464,269.8,12.79,3,323,-3.005,-0.96,8.681,1
365,35.204,-97.465,270.1,13.13,3,323,-3.147,-1.215,9.05,1
367,35.204,-97.465,270.2,13.45,3,323,-3.095,-1.139,9.002,1
368,35.204,-97.465,270.3,13.83,3,323,-3.075,-1.204,8.973,1
369,35.204,-97.465,270.1,14.2,3,323,-3.028,-1.142,9,1
370,35.204,-97.465,269.8,14.44,3,323,-2.4,-0.702,8.971,1
371,35.204,-97.465,269.6,14.24,3,322,-2.686,-0.922,9.152,1
372,35.204,-97.465,269.5,14.16,3,322,-2.847,-0.856,9.335,1
373,35.204,-97.466,269.7,14.1,3,323,-2.724,-0.851,9.071,1
374,35.204,-97.466,270.1,14.07,3,323,-2.743,-0.916,8.892,1
375,35.204,-97.466,270.2,14.05,3,323,-2.906,-0.967,9.328,0
376,35.204,-97.466,270.2,14.06,3,323,-2.583,-0.873,9.103,0
377,35.204,-97.466,270.3,13.82,3,323,-2.448,-0.764,9.336,0
378,35.204,-97.466,270,13.51,3,323,-2.431,-0.764,9.192,0
379,35.204,-97.467,270.1,13.24,3,323,-2.481,-0.53,8.995,0
380,35.204,-97.467,270.1,12.97,3,323,-2.45,-0.778,9.169,0
381,35.204,-97.467,270,12.67,3,323,-2.537,-0.73,9.055,0
382,35.204,-97.467,270.2,12.34,3,323,-2.242,-0.613,9.35,1
383,35.204,-97.467,270.1,11.69,3,322,-1.4,0,9.383,1
384,35.204,-97.467,270.1,9.9802,3,323,-1.12,0.174,9.684,1
385,35.204,-97.467,270.2,7.97,3,323,-1.456,-0.021,9.571,1
386,35.204,-97.467,269.7,6.3311,3,323,-2.152,-0.529,9.446,1
387,35.204,-97.467,269.5,5.5501,3,323,-1.9,-0.304,9.519,1
388,35.204,-97.467,270,4.56,3,323,-1.794,-0.279,9.532,1
389,35.204,-97.467,270.2,3.17,3,323,-2.215,-0.544,9.402,1
390,35.204,-97.468,270,2.32,3,323,-2.739,-0.871,9.123,1
391,35.204,-97.468,270.4,2.2901,3,323,-3.303,-1.356,8.893,1
392,35.204,-97.468,270.1,2.8602,3,323,-3.933,-1.916,8.484,1
393,35.204,-97.468,270.7,4.3101,3,323,-4.151,-2.095,8.414,1
394,35.204,-97.468,269.9,6.1801,3,323,-4.03,-2.037,8.483,1
395,35.204,-97.468,270.6,7.75,3,322,-3.613,-1.759,8.45,1
396,35.204,-97.468,269.9,9.1901,3,323,-3.501,-1.45,8.875,1
397,35.204,-97.468,269.8,10.07,3,323,-3.534,-1.39,8.718,0
398,35.204,-97.468,269.6,10.94,3,323,-3.496,-1.523,8.719,0
399,35.204,-97.468,269.9,11.79,3,324,-3.515,-1.435,8.635,0
400,35.204,-97.468,270.1,12.67,3,325,-3.381,-1.401,8.837,0
401,35.204,-97.469,270.1,13.57,3,325,-2.949,-1.097,9.037,0
402,35.204,-97.469,270.2,13.82,3,325,-3.161,-1.333,8.89,0
403,35.204,-97.469,270.1,14.19,3,325,-3.138,-1.328,8.677,0
404,35.204,-97.469,270,14.84,3,325,-3.352,-1.476,8.977,0
405,35.204,-97.469,270,15.5,3,325,-3.223,-1.489,8.86,0
406,35.204,-97.469,269.9,16.15,3,325,-3.224,-1.141,8.782,0
407,35.204,-97.47,269.7,16.71,3,325,-2.629,-1.035,9.06,0
408,35.204,-97.47,270.1,16.7,3,325,-2.702,-1.109,9.197,0
409,35.204,-97.47,270.2,16.57,3,325,-3.062,-1.06,8.667,0
410,35.204,-97.47,269.8,16.62,3,326,-2.959,-1.131,8.805,0
411,35.204,-97.47,269.8,16.77,3,326,-2.924,-1.053,9.137,1
412,35.204,-97.47,270,16.82,3,326,-2.578,-0.809,9.022,1
413,35.204,-97.471,270.1,16.7,3,326,-2.662,-0.858,8.484,1
414,35.204,-97.471,270.1,16.55,3,327,-2.499,-0.898,9.031,1
415,35.204,-97.471,270.2,16.55,3,327,-2.691,-1.007,8.997,1
416,35.204,-97.471,269.9,16.36,3,326,-2.88,-0.858,9.038,1
417,35.204,-97.472,269.9,16.38,3,327,-2.918,-1.038,9.345,1
418,35.204,-97.472,269.9,16.38,3,327,-2.773,-0.847,9.123,1
419,35.204,-97.472,270.1,16.21,3,326,-2.579,-0.763,8.909,1
420,35.204,-97.472,270.1,15.95,3,327,-2.878,-0.879,9.311,1
421,35.204,-97.472,270.1,15.851,3,326,-2.733,-0.88,9.128,1
422,35.204,-97.472,269.9,15.63,3,326,-2.725,-0.815,9.172,1
423,35.204,-97.473,270,15.51,3,327,-2.744,-0.968,8.827,1
424,35.204,-97.473,269.9,15.54,3,327,-2.767,-0.989,9.146,1
425,35.204,-97.473,269.9,15.62,3,327,-2.901,-1.082,9.135,1
426,35.204,-97.473,270,15.7,3,326,-2.73,-1.115,8.841,1
427,35.204,-97.473,270,15.67,3,326,-2.749,-1.023,9.26,1
428,35.204,-97.473,270,15.76,3,327,-2.724,-0.872,9.313,1
429,35.204,-97.474,270.6,15.71,3,326,-2.662,-0.766,9.16,1
430,35.204,-97.474,270.3,15.47,3,327,-2.588,-0.721,9.235,1
432,35.204,-97.474,270.3,15.21,3,327,-2.941,-0.802,9.57,0
433,35.204,-97.474,270.1,15.18,3,327,-2.731,-0.951,9.123,0
434,35.204,-97.474,270,15.07,3,327,-2.738,-0.98,9.068,0
435,35.204,-97.474,269.8,15.03,3,327,-2.65,-0.851,9.026,0
436,35.204,-97.475,269.7,14.8,3,326,-2.799,-0.89,9.005,0
437,35.204,-97.475,269.8,14.86,3,326,-2.579,-0.833,9.068,0
438,35.204,-97.475,269.9,14.7,3,326,-1.796,-0.214,9.305,0
439,35.204,-97.475,269.4,14.624,3,325,-2.157,-0.362,9.339,0
440,35.204,-97.475,270.1,12.47,3,326,-2.839,-1.003,9.324,1
441,35.204,-97.475,270.3,12.41,3,325,-3.142,-1.08,8.845,1
442,35.204,-97.476,270.4,12.9,3,325,-2.691,-0.908,9.345,1
443,35.204,-97.476,270.5,12.48,3,326,-2.218,-0.303,9.722,1
444,35.204,-97.476,270.4,11.25,3,326,-2.044,-0.244,9.1,1
445,35.204,-97.476,270.7,10.19,3,325,-2.13,-0.411,9.376,1
446,35.204,-97.476,271.1,9.0501,3,325,-1.969,-0.113,9.292,1
447,35.204,-97.476,271.6,7.8403,3,326,-2.266,-0.27,9.497,1
448,35.204,-97.476,271.5,6.8621,3,326,-2.413,-0.444,9.297,1
449,35.204,-97.476,272,6.1901,3,326,-2.642,-0.821,9.47,1
450,35.204,-97.476,272.5,5.74,3,326,-1.75,-0.267,9.658,1
451,35.204,-97.476,272.3,4.36,3,326,-1.897,-0.396,9.429,1
452,35.204,-97.476,272.1,3.06,3,325,-1.878,-0.277,9.529,1
453,35.204,-97.476,272.1,1.86,3,326,-1.903,-0.316,9.444,1
454,35.204,-97.476,272.1,1.86,3,326,-2.479,-0.759,9.206,1
455,35.204,-97.476,272.1,1.86,3,326,-2.747,-0.944,9.106,1
456,35.204,-97.476,272.1,1.86,3,326,-2.79,-0.967,9.054,1
457,35.204,-97.476,272.1,1.86,3,326,-2.813,-0.957,9.107,1
458,35.204,-97.476,272.1,1.86,3,326,-2.807,-0.974,9.072,1
459,35.204,-97.476,272.1,1.86,3,326,-2.805,-0.983,9.098,1
460,35.204,-97.476,272.1,1.86,3,326,-2.81,-0.987,9.077,1
461,35.204,-97.476,272.1,1.86,3,326,-2.808,-0.99,9.074,1
462,35.204,-97.476,272.1,1.86,3,326,-2.807,-0.993,9.082,1
463,35.204,-97.476,272.1,1.86,3,326,-2.805,-0.998,9.095,1
464,35.204,-97.476,272.1,1.86,3,326,-2.806,-0.988,9.083,1
465,35.204,-97.476,272.1,1.86,3,326,-2.811,-0.992,9.092,1
466,35.204,-97.476,272.1,1.86,3,326,-2.806,-1.003,9.082,1
467,35.204,-97.476,272.1,1.86,3,326,-2.8,-0.996,9.106,1
468,35.204,-97.476,272.1,1.86,3,326,-2.81,-0.983,9.09,1
469,35.204,-97.476,272.1,1.86,3,326,-2.802,-0.982,9.078,1
470,35.204,-97.476,272.1,1.86,3,326,-2.787,-0.983,9.091,1
471,35.204,-97.476,272.1,1.86,3,326,-2.796,-0.984,9.105,1
472,35.204,-97.476,272.1,1.86,3,326,-2.794,-0.987,9.101,1
473,35.204,-97.476,272.1,1.86,3,326,-2.81,-0.994,9.094,1
474,35.204,-97.476,272.1,1.86,3,326,-2.804,-0.994,9.089,1
475,35.204,-97.476,272.1,1.86,3,326,-2.8,-0.996,9.112,1
476,35.204,-97.476,272.1,1.86,3,326,-2.8,-1,9.078,1
477,35.204,-97.476,272.1,1.86,3,326,-2.805,-0.991,9.093,1
478,35.204,-97.476,272.1,1.86,3,326,-2.807,-1.001,9.076,1
479,35.204,-97.476,272.1,1.86,3,326,-2.798,-1.005,9.109,1
480,35.204,-97.476,272.1,1.86,3,326,-2.808,-0.98,9.096,1
481,35.204,-97.476,272.1,1.86,3,326,-2.798,-0.974,9.075,1
482,35.204,-97.476,272.1,1.86,3,326,-2.798,-0.981,9.093,1
483,35.204,-97.476,272.1,1.86,3,326,-2.8,-0.985,9.112,1
484,35.204,-97.476,272.1,1.86,3,326,-2.8,-0.994,9.106,1
485,35.204,-97.476,272.1,1.86,3,326,-2.801,-0.991,9.082,1
486,35.204,-97.476,272.1,1.86,3,326,-2.81,-0.983,9.076,1
487,35.204,-97.476,272.1,1.86,3,326,-2.801,-0.985,9.109,1
488,35.204,-97.476,272.1,1.86,3,326,-2.798,-0.984,9.103,1
489,35.204,-97.476,272.1,1.86,3,326,-2.796,-0.993,9.104,1
490,35.204,-97.476,272.1,1.86,3,326,-2.796,-0.987,9.068,1
491,35.204,-97.476,272.1,1.86,3,326,-3.194,-1.255,8.89,1
492,35.204,-97.476,271.4,1.1904,3,325,-5.052,-2.62,8.073,1
493,35.204,-97.476,271.4,4.4003,3,325,-5.21,-2.886,8.372,0
494,35.204,-97.477,270.3,7.19,3,324,-5.097,-2.349,8.472,0
495,35.204,-97.477,269.8,9.81,3,325,-4.303,-2.025,8.347,0
496,35.204,-97.477,269.8,11.64,3,324,-4.066,-1.751,8.462,0
497,35.204,-97.477,269.7,13.23,3,324,-3.769,-1.294,8.364,0
499,35.204,-97.477,269.8,14.38,3,324,-3.55,-1.289,8.68,0
500,35.204,-97.477,269.7,15.051,3,324,-3.268,-1.161,8.664,0
501,35.204,-97.477,269.8,15.602,3,323,-3.339,-1.273,8.955,0
502,35.204,-97.478,270,16.171,3,324,-3.392,-1.327,9.075,0
503,35.204,-97.478,270.1,16.691,3,324,-3.118,-1.133,8.968,0
504,35.204,-97.478,270.2,16.921,3,324,-2.789,-0.998,9.289,1
505,35.204,-97.478,270.2,16.711,3,325,-2.817,-0.787,9.061,1
506,35.204,-97.478,270.1,16.271,3,325,-2.722,-0.809,9.322,1
507,35.204,-97.478,270,15.8,3,325,-2.685,-0.471,8.835,1
508,35.204,-97.479,271.1,15.331,3,325,-3.472,0.637,9.101,1
509,35.204,-97.479,277.4,14.913,3,327,-4.093,1.673,9.054,0
510,35.204,-97.479,280.8,14.4,3,327,-4.807,2.445,9.078,0
511,35.204,-97.479,292.2,13.421,4,327,-5.126,2.556,9.579,0
512,35.204,-97.479,319.7,13.7,3,326,-5.112,1.737,8.797,0
513,35.204,-97.479,332.8,13.982,3,326,-4.597,-0.372,8.593,0
514,35.205,-97.479,340.1,15.26,3,326,-3.962,-1.126,8.354,0
515,35.205,-97.479,341.3,16.635,3,326,-3.811,-1.426,8.747,0
516,35.205,-97.479,341.2,17.935,3,326,-3.462,-1.474,8.788,0
517,35.205,-97.479,341.1,19.137,3,325,-3.185,-1.292,8.902,0
518,35.205,-97.48,341.1,19.947,3,323,-3.171,-1.164,8.961,0
519,35.205,-97.48,341,20.726,3,322,-3.388,-1.473,9.218,0
520,35.206,-97.48,341,21.516,3,321,-3.323,-1.324,8.951,1
521,35.206,-97.48,341.1,22.333,3,321,-3.399,-1.219,9.012,1
522,35.206,-97.48,341.1,23.08,3,321,-3.432,-1.222,9.154,1
523,35.206,-97.48,341,23.75,3,320,-3.106,-0.812,9.345,1
524,35.206,-97.48,340.6,23.98,3,320,-3.228,-0.81,9.355,1
525,35.207,-97.48,340.4,24.14,3,320,-3.151,-1.106,8.98,1
526,35.207,-97.48,339.5,24.37,3,320,-3.203,-1.278,8.894,1
527,35.207,-97.48,338.1,24.94,3,321,-3.49,-1.001,8.936,1
528,35.207,-97.48,337,25.34,3,321,-3.586,-0.89,8.707,1
529,35.207,-97.481,336.8,25.84,3,320,-3.572,-1.089,8.83,1
530,35.208,-97.481,336.4,26.42,3,320,-3.459,-1.117,8.818,1
531,35.208,-97.481,335.5,26.991,3,320,-3.326,-1.409,8.762,1
532,35.208,-97.481,334.2,27.513,3,320,-3.25,-1.316,8.793,1
533,35.208,-97.481,332.8,28.071,3,320,-3.041,-1.157,8.834,1
534,35.208,-97.481,331.3,28.231,3,319,-3.273,-0.698,8.796,1
535,35.209,-97.481,330.7,28.32,3,319,-3.509,-0.715,8.749,1
536,35.209,-97.482,330.8,28.51,3,319,-3.483,-0.928,9.001,1
537,35.209,-97.482,331.1,28.85,3,319,-3.037,-1.367,8.807,1
538,35.209,-97.482,330.8,29.22,3,320,-3.062,-1.061,9.049,1
539,35.21,-97.482,330.1,29.45,3,320,-3.257,-0.595,8.981,1
540,35.21,-97.482,330.8,29.531,3,320,-2.802,-0.708,8.922,1
541,35.21,-97.482,331.4,29.39,3,320,-2.781,-0.908,8.904,1
542,35.21,-97.482,331.7,29.19,3,320,-2.672,-1.656,8.756,1
543,35.211,-97.483,331.4,29.49,3,320,-3.138,-1.283,8.828,1
544,35.211,-97.483,330.1,29.93,3,321,-3.472,-0.932,8.938,1
545,35.211,-97.483,330,30.48,3,320,-3.465,-0.668,8.968,1
546,35.211,-97.483,331,30.89,3,320,-2.761,-0.795,9.102,1
547,35.211,-97.483,331.6,30.82,3,320,-2.451,-1.962,8.806,1
548,35.212,-97.483,330.8,30.811,3,320,-3.602,-1.01,9.001,1
549,35.212,-97.484,329,31.131,3,321,-3.982,-0.146,9.442,0
550,35.212,-97.484,331.7,31.87,3,320,-3.329,-0.259,9.035,0
551,35.213,-97.484,332.6,31.74,3,320,-3.309,-0.403,9.322,0
552,35.213,-97.484,333.6,31.601,3,321,-3.263,-0.43,9.294,0
553,35.213,-97.484,335.2,31.49,3,321,-3.521,-0.199,9.322,0
554,35.214,-97.485,337.4,31.55,3,321,-3.406,-0.282,9.15,0
555,35.214,-97.485,339,31.53,3,321,-3.205,-0.532,8.953,0
556,35.214,-97.485,340.1,31.491,3,321,-3.395,-0.348,8.989,0
557,35.214,-97.485,341.9,31.65,3,322,-3.474,-0.458,9.139,1
558,35.215,-97.485,343.5,31.78,3,323,-3.388,-0.428,8.926,1
559,35.215,-97.485,344,32.012,3,323,-3.361,-0.53,8.75,1
560,35.215,-97.485,345.8,32.181,3,323,-3.373,-0.232,8.846,1
561,35.215,-97.485,348.4,32.05,3,324,-3.342,-0.461,9.312,1
562,35.216,-97.485,349.9,32.171,3,325,-3.41,-0.407,9.227,0
563,35.216,-97.485,351.3,32.14,3,325,-3.41,-0.486,8.924,0
564,35.216,-97.485,352.8,32.16,3,327,-3.169,-0.062,9.189,0
566,35.217,-97.485,354.6,31.82,3,327,-3.073,-0.111,9.13,0
567,35.217,-97.485,356.3,31.41,3,327,-3.061,-0.141,9.299,0
568,35.217,-97.485,357.8,30.92,3,327,-3.053,-0.131,9.305,0
569,35.217,-97.485,359.3,30.56,3,328,-2.712,-0.548,9.026,0
570,35.218,-97.485,359.9,30.17,3,329,-2.647,-0.684,9.104,1
571,35.218,-97.485,359.8,29.83,3,329,-2.669,-0.669,9.136,1
572,35.218,-97.485,358.8,30.32,3,329,-2.934,-0.344,9.298,1
573,35.218,-97.485,358.9,29.77,5,329,-3.053,-0.548,9.212,1
574,35.219,-97.485,359.4,29.05,7,329,-3.308,-0.649,9.06,1
575,35.219,-97.485,359.5,29.08,7,330,-3.213,-0.879,9.076,1
576,35.219,-97.485,359.5,29.221,5,329,-3.333,-0.643,9.211,1
577,35.22,-97.485,359.8,29.42,4,328,-3.418,-0.791,9.021,1
578,35.22,-97.485,359.9,29.78,3,327,-3.485,-0.882,9.128,1
579,35.22,-97.485,359.9,30.16,3,327,-3.663,-0.871,9.107,1
580,35.22,-97.485,0.1,30.58,3,326,-3.616,-0.895,8.683,1
581,35.221,-97.485,0.3,31.24,3,325,-3.494,-0.96,8.802,1
582,35.221,-97.485,0,31.77,3,325,-3.663,-0.798,8.826,1
583,35.221,-97.485,0,32.23,3,326,-3.6,-0.888,8.876,1
584,35.221,-97.485,0.1,32.73,3,326,-3.596,-1.028,8.881,1
585,35.222,-97.485,359.9,33.231,3,326,-3.58,-0.908,8.889,1
586,35.222,-97.485,0,33.741,3,326,-3.597,-0.902,8.95,1
587,35.222,-97.485,0.1,34.24,3,327,-3.423,-0.972,8.78,1
588,35.223,-97.485,359.9,34.68,3,327,-3.482,-0.749,8.901,1
589,35.223,-97.485,0,35.11,3,327,-2.932,-0.461,9.248,1
590,35.223,-97.485,359.9,34.73,3,327,-3.118,-0.494,9.417,1
591,35.224,-97.485,359.9,34.49,3,328,-3.093,-0.537,9.189,1
592,35.224,-97.485,359.9,34.39,3,328,-3.019,-0.497,9.035,1
593,35.224,-97.485,0,34.27,3,327,-3.219,-0.571,9.494,0
594,35.225,-97.485,359.7,34.151,3,328,-3.1,-0.559,9.312,0
595,35.225,-97.485,359.7,34.06,3,328,-3.07,-0.384,9.045,0
596,35.225,-97.485,359.9,33.98,3,328,-2.963,-0.526,8.972,0
597,35.226,-97.485,359.9,33.85,3,329,-3.101,-0.575,9.255,0
598,35.226,-97.485,0,33.81,3,329,-3.188,-0.451,9.071,0
599,35.226,-97.485,359.9,33.76,3,328,-3.134,-0.636,9.21,0
600,35.226,-97.485,0,33.72,3,329,-3.217,-0.589,9.047,0
601,35.227,-97.485,0,33.74,3,329,-3.183,-0.61,9.078,1
602,35.227,-97.485,359.9,33.76,3,328,-3.184,-0.599,9.122,1
603,35.227,-97.485,359.9,33.76,3,328,-3.112,-0.52,8.904,1
604,35.228,-97.485,359.8,33.76,3,328,-3.165,-0.606,9.024,1
605,35.228,-97.485,359.8,33.74,3,328,-3.141,-0.44,8.756,1
606,35.228,-97.485,359.9,33.74,3,328,-3.112,-0.401,8.962,1
607,35.229,-97.485,0,33.72,3,328,-3.282,-0.286,9.028,1
608,35.229,-97.485,359.8,33.67,3,328,-3.143,-0.266,9.105,1
609,35.229,-97.485,0.1,33.58,3,328,-3.146,-0.557,8.959,1
610,35.229,-97.485,0.2,33.39,3,329,-3.124,-0.617,8.936,1
611,35.23,-97.485,359.9,33.44,3,329,-3.197,-0.593,9.138,1
612,35.23,-97.485,359.8,33.43,3,329,-3.102,-0.561,9.115,1
613,35.23,-97.485,359.9,33.48,3,330,-3.128,-0.665,8.992,1
614,35.231,-97.485,359.9,33.53,3,330,-3.302,-0.454,9.266,1
615,35.231,-97.485,0.1,33.61,3,330,-3.182,-0.384,8.891,1
616,35.232,-97.485,359.9,33.61,3,330,-3.278,-0.416,9.034,1
617,35.232,-97.485,359.8,33.59,3,330,-3.22,-0.537,8.902,1
618,35.232,-97.485,359.9,33.65,3,331,-3.236,-0.527,9.138,1
619,35.232,-97.485,0,33.69,3,331,-3.26,-0.438,9.112,1
620,35.233,-97.485,0.1,33.73,3,331,-3.245,-0.526,9.215,1
621,35.233,-97.485,0.4,33.522,3,331,-3.231,-0.606,9.173,1
622,35.233,-97.485,359.9,33.88,3,330,-3.202,-0.504,9.16,1
623,35.234,-97.485,359.9,33.78,3,331,-3.28,-0.517,9.083,1
624,35.234,-97.485,0,33.72,3,330,-3.2,-0.554,9.217,1
625,35.234,-97.485,359.9,33.65,3,331,-3.07,-0.489,8.849,1
626,35.235,-97.485,359.9,33.62,3,332,-3.145,-0.598,9.163,1
627,35.235,-97.485,359.9,33.62,3,332,-3.173,-0.572,9.046,1
628,35.235,-97.485,359.9,33.58,3,332,-3.203,-0.476,9.065,1
630,35.236,-97.485,359.9,33.58,3,332,-3.092,-0.555,8.954,1
631,35.236,-97.485,359.8,33.61,3,333,-3.178,-0.527,9.082,1
632,35.236,-97.485,359.9,33.63,3,333,-3.191,-0.495,9.08,1
633,35.236,-97.485,0.3,33.71,3,333,-3.23,-0.571,9.227,1
634,35.237,-97.485,0.2,33.73,3,332,-3.167,-0.714,9.125,1
635,35.237,-97.485,359.9,33.75,3,332,-3.176,-0.589,9.284,1
636,35.237,-97.485,359.8,33.76,3,333,-3.137,-0.409,9.043,1
637,35.238,-97.485,359.7,33.77,3,333,-3.227,-0.319,9.084,1
638,35.238,-97.485,359.7,33.74,3,333,-3.175,-0.556,9.106,1
639,35.238,-97.485,359.8,33.78,3,334,-3.134,-0.362,8.793,1
640,35.239,-97.485,359.9,33.76,3,333,-3.062,-0.268,9.274,1
641,35.239,-97.485,0,33.49,3,333,-2.773,-0.29,9.149,1
642,35.239,-97.485,0.1,33.08,3,332,-2.919,-0.252,9.224,1
643,35.239,-97.485,0,32.63,3,332,-2.754,-0.294,9.36,1
644,35.24,-97.485,359.9,32.21,3,332,-2.845,-0.431,9.48,1
645,35.24,-97.485,359.7,31.8,3,332,-2.897,-0.317,9.41,1
646,35.24,-97.485,359.9,31.41,3,332,-2.875,-0.225,9.125,1
647,35.241,-97.485,359.8,30.98,3,333,-2.912,-0.373,9.403,1
648,35.241,-97.485,359.8,30.6,3,332,-3.182,-0.441,9.035,1
649,35.241,-97.485,359.9,30.56,3,332,-3.133,-0.512,8.903,1
650,35.241,-97.485,0.1,30.67,3,332,-3.219,-0.509,9.125,1
651,35.242,-97.485,0.1,30.78,3,332,-3.26,-0.387,8.991,1
652,35.242,-97.485,0.1,30.82,3,332,-3.338,-0.349,8.983,1
