time,lat,lng,bearing,spd,acc,alt,accx,accy,accz,stable,
0,35.352,-97.495,359.6,28.37,3,358,-0.846,-0.599,9.585,0
1,35.352,-97.495,359.5,28.06,3,359,-1.171,-0.508,9.433,0
2,35.353,-97.495,359.6,27.871,3,359,-1.276,-0.613,9.323,0
3,35.353,-97.495,359.8,27.721,3,359,-1.444,-0.797,9.374,0
4,35.353,-97.495,359.8,27.871,3,359,-1.206,-0.973,9.493,0
5,35.353,-97.495,359.7,28.151,3,360,-1.391,-1.05,9.886,0
6,35.354,-97.495,359.7,28.571,3,360,-1.637,-1.063,9.068,0
8,35.354,-97.495,359.8,29.251,3,360,-1.67,-1.118,9.105,0
8,35.354,-97.495,359.8,29.251,3,360,-1.67,-1.118,9.105,0
9,35.354,-97.495,359.8,29.571,3,360,-1.601,-1.132,9.495,0
10,35.354,-97.495,359.6,30.431,3,360,-1.488,-1.183,9.915,0
11,35.355,-97.495,359.4,31.01,3,360,-1.21,-0.942,9.547,0
12,35.355,-97.495,359.4,31.481,3,358,-1.189,-0.77,9.272,0
13,35.355,-97.495,359.7,31.841,3,359,-0.964,-0.562,9.673,0
14,35.356,-97.495,359.6,32.1,3,360,-0.928,-0.547,9.572,0
15,35.356,-97.495,359.6,31.75,3,361,-1.093,-0.422,9.295,0
16,35.356,-97.495,359.6,31.63,3,362,-1.191,-0.599,9.636,0
17,35.356,-97.495,359.6,31.561,3,362,-1.252,-0.742,9.171,0
18,35.357,-97.495,359.5,31.721,3,362,-1.121,-0.41,9.217,0
19,35.357,-97.495,359.6,31.85,3,362,-1.01,-0.329,9.676,0
20,35.357,-97.495,359.3,31.61,3,363,-1.144,-0.67,9.283,0
21,35.358,-97.495,359.4,31.45,3,363,-1.257,-0.605,9.552,0
22,35.358,-97.495,359.5,31.4,3,364,-1.008,-0.622,9.333,0
23,35.358,-97.495,359.3,31.33,3,364,-0.982,-0.753,9.628,0
24,35.359,-97.495,359.1,31.37,3,365,-1.189,-0.769,9.634,0
25,35.359,-97.495,359.1,31.47,3,365,-1.26,-0.599,9.69,0
26,35.359,-97.495,359.4,31.641,3,365,-1.294,-0.733,9.44,0
27,35.359,-97.495,359.3,31.84,3,365,-1.164,-0.744,9.546,0
28,35.36,-97.495,359.2,32.071,3,366,-1.066,-1.115,9.494,0
29,35.36,-97.495,359.1,32.271,3,366,-1.176,-0.762,9.592,0
30,35.36,-97.495,359.4,32.441,3,367,-1.258,-0.848,9.69,0
31,35.361,-97.495,359.4,32.462,3,367,-0.97,-0.71,9.878,0
32,35.361,-97.495,359.4,32.202,3,367,-1.146,-0.566,9.888,1
33,35.361,-97.495,359.4,32.003,3,368,-1.255,-0.772,9.833,1
34,35.362,-97.495,359.3,32.045,3,369,-1.444,-0.754,9.679,0
35,35.362,-97.495,359.3,32.124,3,369,-1.294,-0.845,10.002,0
36,35.362,-97.495,359.3,32.064,3,370,-1.42,-0.693,9.585,0
37,35.362,-97.495,359.3,32.123,3,371,-1.18,-0.782,9.389,0
38,35.363,-97.495,359.3,32.292,3,371,-1.481,-0.903,9.894,0
39,35.363,-97.495,359.3,32.421,3,371,-1.172,-0.721,10.074,0
40,35.363,-97.495,359.4,32.25,3,371,-1.14,-1.053,10.938,0
41,35.364,-97.495,359.4,32.12,3,371,-1.105,-0.621,9.767,0
42,35.364,-97.495,359.7,32.171,3,371,-0.794,-0.506,9.94,0
43,35.364,-97.495,0.2,32.19,3,371,-0.626,-0.235,9.591,0
44,35.364,-97.495,0.5,32.14,3,371,-0.745,-0.641,9.291,0
45,35.365,-97.495,0.1,32.121,3,372,-0.849,-0.792,9.98,0
46,35.365,-97.495,359.5,32.27,3,372,-1.025,-0.625,9.654,0
47,35.365,-97.495,359.4,32.44,3,373,-1.017,-0.849,9.679,0
48,35.366,-97.495,359.3,32.53,3,371,-1.027,-0.55,9.578,0
49,35.366,-97.495,359.4,32.7,3,371,-1.011,-0.605,10.012,0
50,35.366,-97.495,359.3,32.711,3,372,-0.884,-0.661,9.718,0
51,35.366,-97.495,359.3,32.621,3,373,-0.936,-0.72,9.579,0
52,35.367,-97.495,359.2,32.482,3,373,-1.058,-0.688,9.397,0
53,35.367,-97.495,359.3,32.451,3,370,-1.217,-0.872,9.484,0
54,35.367,-97.495,359.3,32.622,3,372,-0.914,-0.693,9.653,0
55,35.368,-97.495,359,32.771,3,372,-1.184,-0.745,9.923,0
56,35.368,-97.495,359.4,32.883,3,373,-1.101,-0.663,9.265,0
57,35.368,-97.495,359.4,32.922,3,374,-0.754,-0.436,9.609,0
58,35.369,-97.495,359.3,32.642,3,374,-0.537,-0.266,9.57,0
59,35.369,-97.495,359.2,32.112,3,375,-0.92,-0.252,9.531,0
60,35.369,-97.495,359.3,31.632,3,375,-0.738,-0.255,9.829,0
61,35.369,-97.495,359.4,31.201,3,375,-0.912,-0.498,9.816,0
62,35.37,-97.495,359.4,30.941,3,376,-0.801,-0.564,9.606,0
63,35.37,-97.495,359.3,30.75,3,376,-0.861,-0.539,9.74,0
64,35.37,-97.495,359.3,30.61,3,376,-0.655,-0.312,9.437,0
65,35.37,-97.495,359.3,30.29,3,376,-0.673,-0.225,9.285,1
66,35.371,-97.495,359.2,29.93,3,377,-0.834,-0.29,9.406,1
67,35.371,-97.495,359.2,29.55,3,377,-0.756,-0.411,9.704,1
68,35.371,-97.495,359.3,29.24,3,377,-0.506,-0.367,9.546,1
69,35.372,-97.495,359.1,28.86,3,377,-0.727,-0.451,9.527,1
70,35.372,-97.495,359.1,28.53,3,377,-0.89,-0.415,10.038,0
71,35.372,-97.495,359.3,28.3,3,377,-1.13,-0.768,9.751,0
72,35.372,-97.495,359.5,28.46,3,377,-1.065,-0.805,9.12,0
73,35.373,-97.495,359.6,28.811,3,378,-0.93,-0.836,9.226,0
74,35.373,-97.495,359.5,29.12,3,378,-1.228,-0.844,9.915,0
76,35.373,-97.495,359.4,29.43,3,378,-1.192,-0.846,9.604,0
76,35.373,-97.495,359.4,29.43,3,378,-1.192,-0.846,9.604,0
77,35.373,-97.495,359.7,29.42,3,379,-1.241,-0.81,9.803,0
78,35.374,-97.495,359.1,30.041,3,378,-1.31,-0.829,9.564,0
79,35.374,-97.495,359.3,30.4,3,379,-1.076,-0.893,9.196,0
80,35.374,-97.495,359.4,30.79,3,379,-1.251,-0.935,9.102,0
81,35.374,-97.495,359.4,31.2,3,380,-1.252,-0.911,9.604,0
82,35.375,-97.495,359.6,31.65,3,380,-1.289,-0.869,8.981,0
83,35.375,-97.495,359.7,32.071,3,380,-1.27,-1.007,9.677,0
84,35.375,-97.495,359.7,32.332,3,381,-1.306,-0.968,10.142,0
85,35.376,-97.495,359.7,32.594,3,382,-1.302,-0.89,9.781,0
86,35.376,-97.495,359.7,32.804,3,382,-1.359,-0.891,9.722,0
87,35.377,-97.495,359.9,33.422,3,383,-1.26,-0.896,9.449,0
88,35.377,-97.495,359.6,33.555,3,384,-1.227,-0.729,9.804,0
89,35.377,-97.495,0,33.541,3,384,-0.794,-0.186,8.365,0
90,35.377,-97.495,0.1,33.25,3,384,-0.907,-0.205,8.826,0
91,35.378,-97.495,359.9,32.83,3,384,-0.378,-0.238,8.951,0
92,35.378,-97.495,0,32.51,3,384,-0.176,-0.124,9.398,0
93,35.378,-97.495,359.8,32.43,3,381,-0.82,-0.53,9.445,0
94,35.379,-97.495,359.6,32.44,3,382,-0.914,-0.486,8.956,0
95,35.379,-97.495,359.5,32.5,3,383,-0.616,-0.31,9.593,0
96,35.379,-97.495,359.7,32.52,3,383,-0.676,-0.144,9.943,0
97,35.379,-97.495,359.6,32.42,3,383,-0.831,-0.583,9.789,0
98,35.38,-97.495,359.6,32.81,3,382,-0.835,-0.881,10.214,0
99,35.38,-97.495,359.7,33.09,3,382,-0.839,-0.509,9.865,0
100,35.38,-97.495,359.7,33.15,3,382,-0.745,-0.551,9.803,0
101,35.381,-97.495,359.7,33.11,3,382,-0.716,-0.369,9.302,0
102,35.381,-97.495,359.7,33.05,3,382,-0.879,-0.243,9.272,0
103,35.381,-97.495,359.8,32.82,3,381,-1.039,-0.277,9.421,0
104,35.382,-97.495,0.1,32.74,3,381,-0.773,-0.393,9.436,0
105,35.382,-97.495,359.1,32.27,3,381,-0.846,-0.232,9.635,0
106,35.382,-97.495,359.8,32.881,3,379,-0.957,-0.31,9.759,0
107,35.382,-97.495,359.2,33.121,3,378,-0.839,-0.212,9.225,0
108,35.383,-97.495,359.7,32.88,3,377,-0.647,-0.463,9.294,0
109,35.383,-97.495,359.8,33.498,3,374,-0.626,-0.4,9.966,0
110,35.383,-97.495,359.8,33.619,3,373,-0.788,-0.135,9.804,1
111,35.384,-97.495,359.8,33.659,3,372,-0.581,-0.264,9.846,0
112,35.384,-97.495,359.7,33.638,3,371,-0.749,-0.104,9.544,0
113,35.384,-97.495,359.7,33.595,3,370,-0.694,-0.281,10.244,0
114,35.385,-97.495,359.8,33.93,3,369,-0.986,0.122,9.409,0
115,35.385,-97.495,0.4,33.47,3,369,-0.566,-0.268,9.452,0
116,35.385,-97.495,0.6,33.08,3,368,-0.66,-0.584,9.969,0
117,35.385,-97.495,359.6,32.52,3,369,-0.798,-0.331,9.941,0
118,35.386,-97.495,359.6,32.18,3,369,-0.962,-0.279,9.485,0
119,35.386,-97.495,359.9,31.93,3,369,-0.983,-0.426,9.352,0
120,35.386,-97.495,359.9,31.91,3,369,-1.332,-0.967,9.127,0
121,35.387,-97.495,359.8,32.45,3,370,-1.151,-0.887,9.393,0
122,35.387,-97.495,359.7,32.911,3,369,-1.087,-0.674,9.396,0
123,35.387,-97.495,359.6,33.43,3,367,-1.03,-0.529,9.605,0
124,35.388,-97.495,359.8,33.68,3,367,-0.784,-0.324,9.601,0
125,35.388,-97.495,359.6,33.56,3,367,-0.93,-0.325,9.727,1
126,35.388,-97.495,359.7,33.48,3,367,-0.982,-0.512,9.366,1
127,35.388,-97.495,359.6,33.68,3,366,-1.189,-0.54,9.451,1
128,35.389,-97.495,359.7,33.93,3,366,-0.819,-0.232,9.282,1
129,35.389,-97.495,359.7,33.87,3,366,-0.609,-0.163,9.775,0
130,35.389,-97.495,359.8,33.7,3,366,-0.772,-0.23,9.788,0
131,35.39,-97.495,359.7,33.47,3,366,-0.707,-0.098,9.511,0
132,35.39,-97.495,359.8,33.32,3,367,-0.766,-0.248,9.582,0
133,35.39,-97.495,359.7,33.14,3,366,-0.678,-0.168,9.597,0
134,35.391,-97.495,359.8,32.93,3,367,-0.816,-0.176,10.035,0
135,35.391,-97.495,359.9,32.61,3,368,-0.77,-0.253,9.897,0
136,35.391,-97.495,359.9,32.39,3,368,-0.724,-0.334,9.559,0
137,35.391,-97.495,359.8,32.2,3,368,-0.782,-0.601,10.024,0
138,35.392,-97.495,0.7,32,3,367,-1.482,-0.707,9.782,0
139,35.392,-97.495,0.2,32.17,3,367,-1.46,-0.512,9.5,0
140,35.392,-97.495,359.5,32.65,3,366,-1.372,-0.899,9.331,0
142,35.393,-97.495,0.1,33.29,3,367,-1.303,-0.874,9.372,0
142,35.393,-97.495,0.1,33.29,3,367,-1.303,-0.874,9.372,0
143,35.393,-97.495,0,33.79,3,368,-1.273,-0.876,9.726,0
144,35.393,-97.495,0,34.3,3,368,-1.227,-1.027,9.688,0
145,35.394,-97.495,359.9,34.75,3,368,-1.194,-0.898,9.577,0
146,35.394,-97.495,0,35.25,3,367,-1.057,-0.789,9.581,0
147,35.394,-97.495,0,35.591,3,367,-0.822,-0.355,9.948,0
148,35.395,-97.495,0.1,35.8,3,367,-0.629,-0.166,9.878,0
149,35.395,-97.495,0,35.46,3,366,-0.572,-0.05,9.76,0
150,35.395,-97.495,359.8,35.05,3,366,-0.649,-0.114,9.401,0
151,35.395,-97.495,0.2,34.73,3,365,-0.75,-0.111,9.893,0
152,35.396,-97.495,0.1,34.11,3,365,-0.658,-0.144,9.439,0
153,35.396,-97.495,0,33.68,3,365,-0.652,-0.212,9.499,0
154,35.396,-97.495,359.9,33.25,3,365,-0.703,-0.145,9.341,0
155,35.397,-97.495,359.8,32.89,3,365,-0.614,-0.262,9.336,0
156,35.397,-97.495,359.8,32.59,3,364,-0.754,-0.213,9.6,0
157,35.398,-97.495,359.9,32.15,3,364,-0.741,-0.277,9.369,0
158,35.398,-97.495,359.8,32.25,3,365,-0.738,-0.287,9.407,0
159,35.398,-97.495,0,32.402,3,364,-0.628,-0.269,9.748,1
160,35.398,-97.495,359.9,32.211,3,363,-0.687,-0.227,9.63,0
161,35.399,-97.495,359.9,32,3,363,-0.698,-0.296,9.98,0
162,35.399,-97.495,359.4,31.76,3,362,-0.708,-0.108,9.957,0
163,35.399,-97.495,359.8,32.061,3,362,-0.711,-0.531,9.958,0
164,35.4,-97.495,0.1,31.2,3,362,-0.967,-0.415,10.103,0
165,35.4,-97.495,359.9,31.461,3,361,-0.818,-0.543,10.181,0
166,35.4,-97.495,359.8,31.391,3,361,-1.129,-0.585,9.751,0
167,35.4,-97.495,359.9,31.341,3,362,-1.14,-0.554,9.695,0
168,35.401,-97.495,0.1,31.411,3,364,-0.964,-0.732,9.631,0
169,35.401,-97.495,359.9,31.511,3,364,-0.959,-0.738,9.769,0
170,35.401,-97.495,359.7,31.572,3,364,-1.471,-0.291,9.302,0
171,35.402,-97.495,1.1,31.742,3,365,-1.639,0.016,9.429,0
172,35.402,-97.495,2.8,32.05,3,366,-1.71,-0.118,9.431,0
173,35.402,-97.495,4.1,32.34,3,367,-1.464,-0.233,9.789,0
174,35.402,-97.495,5,32.7,3,367,-1.096,-0.045,9.099,0
175,35.403,-97.495,5.8,32.78,3,366,-1.034,-0.001,9.396,0
176,35.403,-97.495,6.7,32.73,3,366,-1.224,0.007,9.359,0
177,35.403,-97.495,7.9,32.99,3,365,-1.328,0.083,10.336,0
178,35.404,-97.495,9.1,33.021,3,364,-1.084,0.228,10.056,0
179,35.404,-97.495,10.5,32.73,3,364,-0.907,0.188,9.621,0
180,35.404,-97.495,11.5,32.55,3,364,-0.916,0.132,10.121,0
181,35.404,-97.495,12.2,32.28,3,363,-0.817,0.23,9.777,0
182,35.405,-97.494,13.1,31.89,3,363,-0.979,0.199,10.217,0
183,35.405,-97.494,14.4,31.501,3,362,-0.891,0.311,9.67,0
184,35.405,-97.494,15.5,31.22,3,362,-1.022,0.189,10.214,0
185,35.406,-97.494,16.5,30.563,3,365,-0.673,0.236,9.625,0
186,35.406,-97.494,17.4,30.092,3,365,-0.207,-0.291,8.941,0
187,35.406,-97.494,17.7,29.962,3,366,-0.548,-0.553,9.041,0
188,35.406,-97.494,17.6,30.051,3,367,-0.676,-0.74,9.439,0
189,35.407,-97.494,17.5,30.19,3,368,-0.834,-0.832,9.639,0
190,35.407,-97.494,17.3,30.43,3,368,-1.055,-0.69,9.461,0
191,35.407,-97.494,17.4,30.73,3,368,-0.995,-0.6,9.401,0
192,35.407,-97.493,17.4,31.031,3,368,-1.029,-0.527,9.313,1
193,35.408,-97.493,17.6,31.301,3,366,-1.03,-0.625,9.671,1
194,35.408,-97.493,17.6,31.57,3,367,-1.177,-0.687,10.07,0
195,35.408,-97.493,17.7,31.87,3,368,-0.679,-0.535,10.328,0
196,35.408,-97.493,17.6,32.16,3,369,-1.398,-0.222,10.669,0
197,35.409,-97.493,17.6,32.38,3,369,-0.41,0.102,10.053,0
198,35.409,-97.493,17.5,32.19,3,370,-0.755,0.268,9.235,0
199,35.409,-97.493,17.5,31.88,3,369,-0.762,0.239,9.464,0
200,35.41,-97.493,17.7,31.83,3,369,-1.02,-0.53,10.109,0
201,35.41,-97.493,18.1,31.94,3,369,-1.059,-0.401,9.257,0
202,35.41,-97.492,17.5,32.431,3,369,-0.657,-0.301,9.228,0
203,35.41,-97.492,17.3,32.731,3,368,-0.667,-0.25,9.513,0
204,35.411,-97.492,17.3,32.922,3,368,-0.697,-0.259,9.617,0
205,35.411,-97.492,17.4,33.153,3,367,-0.421,-0.304,9.462,0
206,35.411,-97.492,17.4,33.313,3,366,-0.497,-0.022,9.697,0
207,35.412,-97.492,17.5,33.243,3,366,-0.548,-0.058,9.641,0
208,35.412,-97.492,17.6,33.263,3,364,-0.418,-0.137,9.787,0
210,35.412,-97.492,17.7,33.223,3,363,-0.409,-0.271,10.066,0
210,35.412,-97.492,17.7,33.223,3,363,-0.409,-0.271,10.066,0
211,35.412,-97.492,17.6,33.162,3,362,-0.433,-0.228,9.771,0
212,35.413,-97.491,17.4,33.143,3,361,-0.399,-0.015,9.339,0
213,35.413,-97.491,17.4,33.093,3,361,-0.525,-0.044,9.591,0
214,35.413,-97.491,17.4,32.86,3,361,-0.561,0.068,9.94,0
215,35.414,-97.491,17.4,33.091,3,360,-0.422,-0.205,9.842,0
216,35.414,-97.491,17.6,32.92,3,359,-0.614,-0.551,9.565,0
217,35.414,-97.491,17.9,32.77,3,359,-0.996,-0.56,9.703,0
218,35.414,-97.491,18,33.361,3,360,-0.871,-0.562,9.752,0
219,35.415,-97.491,17.5,33.431,3,359,-0.783,-0.448,9.495,0
220,35.415,-97.491,17.5,33.46,3,360,-0.946,-0.596,9.804,0
221,35.415,-97.49,17.8,33.581,3,360,-0.946,-0.588,9.481,0
222,35.416,-97.49,17.5,33.543,3,361,-1.017,-0.615,9.492,0
223,35.416,-97.49,17.6,33.702,3,361,-0.751,-0.541,9.236,0
224,35.416,-97.49,17.4,34.15,3,362,-1.045,-0.64,9.322,0
225,35.417,-97.49,17.5,34.35,3,362,-0.592,-0.213,9.477,0
226,35.417,-97.49,17.4,34.28,3,363,-0.535,-0.361,9.078,0
227,35.417,-97.49,17.5,34.34,3,363,-0.653,-0.205,9.258,1
228,35.418,-97.49,17.5,34.321,3,362,-0.669,-0.119,9.574,1
229,35.418,-97.489,17.7,34.111,3,362,-0.604,-0.08,9.714,0
230,35.418,-97.489,17.6,33.82,3,362,-0.43,-0.126,9.947,0
231,35.418,-97.489,17.6,33.58,3,361,-0.435,-0.21,10.068,0
232,35.419,-97.489,17.6,33.3,3,361,-0.575,-0.289,10.361,0
233,35.419,-97.489,17.7,33.002,3,362,-0.823,-0.351,9.758,0
234,35.419,-97.489,18,32.983,3,363,-1.023,-0.076,9.395,0
235,35.42,-97.489,19.1,32.953,3,363,-1.265,-0.034,9.244,0
236,35.42,-97.489,20.4,33.092,3,364,-1.258,-0.35,9.405,0
237,35.42,-97.489,21.2,33.351,3,364,-1.097,-0.48,9.633,0
238,35.42,-97.488,21.9,33.661,3,364,-1.042,-0.502,9.628,0
239,35.421,-97.488,22.1,33.94,3,365,-0.771,-0.354,9.405,0
240,35.421,-97.488,22.4,34.08,3,365,-0.721,-0.307,9.147,0
241,35.421,-97.488,22.5,34.34,3,364,-0.94,-0.484,9.509,0
242,35.422,-97.488,22.3,34.87,3,364,-1.213,-0.524,9.196,0
243,35.422,-97.488,22.6,35.371,3,364,-0.502,0.139,9.524,0
244,35.422,-97.487,23,35.09,3,363,-0.6,0.2,9.485,0
245,35.422,-97.487,23.4,34.872,3,363,-0.607,0.396,9.592,0
246,35.423,-97.487,23.7,34.612,3,363,-0.061,-0.317,9.716,0
247,35.423,-97.487,23.2,34.331,3,362,-0.227,0.013,9.958,0
248,35.423,-97.487,22.1,34.062,3,362,-0.103,-0.128,9.766,0
249,35.424,-97.487,20.8,33.803,3,360,0.028,-0.249,9.68,1
250,35.424,-97.487,19.6,33.54,3,360,0.01,-0.754,9.752,1
251,35.424,-97.487,16.7,33.832,3,360,-0.549,-0.74,9.921,0
252,35.425,-97.486,14.9,34.372,3,361,-0.467,-0.738,9.563,0
253,35.425,-97.486,13.3,34.711,3,360,-0.395,-0.76,10.243,0
254,35.425,-97.486,11.5,34.632,3,359,-0.112,-0.225,9.69,0
255,35.425,-97.486,10,34.512,3,358,-0.127,-1.029,10.219,0
256,35.426,-97.486,8.4,34.602,3,357,0.021,-0.695,10.189,0
257,35.426,-97.486,6.6,34.07,3,356,-0.039,-0.314,9.886,0
258,35.426,-97.486,4.6,34.383,3,355,0.319,-0.056,10.28,0
259,35.427,-97.486,3,33.992,3,354,0.033,-0.209,9.969,0
260,35.427,-97.486,1.4,33.452,3,353,-0.278,0.05,9.702,0
261,35.427,-97.486,0.3,33.281,3,353,0.449,1.049,9.523,0
262,35.428,-97.486,0.1,32.211,3,351,-0.26,0.275,10.167,0
263,35.428,-97.486,0,31.141,3,351,-0.407,0.314,9.663,0
264,35.428,-97.486,358.5,30.831,3,351,-0.161,0.631,9.986,0
265,35.428,-97.486,359.3,30.51,3,351,-0.085,0.029,9.608,0
266,35.429,-97.486,0.1,29.13,3,351,-0.595,-0.059,9.605,0
267,35.429,-97.486,0.1,28.89,3,350,-0.472,-0.253,10.166,0
268,35.429,-97.486,359.9,28.74,3,350,-0.541,-0.037,9.892,0
269,35.429,-97.486,359.8,28.47,3,350,-0.594,-0.062,9.962,0
270,35.43,-97.486,359.9,28.26,3,350,-0.364,-0.131,10.52,0
271,35.43,-97.486,0,28.03,3,350,-0.206,0.151,9.698,0
272,35.43,-97.486,0,27.67,3,350,-0.224,-0.093,9.815,0
273,35.43,-97.486,0,27.141,3,350,0.364,0.858,10.077,0
274,35.431,-97.486,0.1,26.1,3,351,-0.101,0.191,10.064,0
275,35.431,-97.486,0.2,24.78,3,351,-0.329,-0.165,9.597,0
276,35.431,-97.486,359.8,24.321,3,352,-0.603,-0.049,9.412,0
278,35.431,-97.486,359.7,24.17,3,352,-1.025,-0.479,9.349,0
278,35.431,-97.486,359.7,24.17,3,352,-1.025,-0.479,9.349,0
279,35.432,-97.486,359.9,24.351,3,353,-1.362,-1.119,10.068,0
280,35.432,-97.486,359.8,25.221,3,353,-1.589,-1.09,10.345,0
281,35.432,-97.486,0.2,26.741,3,354,-1.514,-1.222,9.52,0
282,35.432,-97.486,0.1,27.71,3,354,-1.73,-1.112,9.646,0
283,35.433,-97.486,0,29.12,3,353,-1.421,-1.085,9.517,0
284,35.433,-97.486,0.1,30.23,3,352,-0.747,-0.423,9.867,0
285,35.433,-97.486,359.9,31.121,3,351,-0.672,-0.07,9.81,0
286,35.433,-97.486,359.8,31.412,3,351,-0.367,-0.159,9.754,0
287,35.434,-97.486,359.9,31.371,3,351,-0.419,0.064,9.603,0
288,35.434,-97.486,359.7,31.282,3,350,-0.546,0.169,9.989,0
289,35.434,-97.486,359.9,31.283,3,349,-0.567,-0.06,9.757,0
290,35.434,-97.486,0,31.262,3,348,-0.53,0.076,9.907,0
291,35.435,-97.486,0,31.241,3,349,-0.382,-0.191,10.204,0
292,35.435,-97.486,0.1,30.94,3,348,-0.34,-0.132,9.93,0
293,35.435,-97.486,359.5,30.461,3,349,-0.671,-0.053,10.139,0
294,35.436,-97.486,359.9,30.54,3,349,-0.981,-0.425,9.419,0
295,35.436,-97.486,0,30.921,3,349,-0.904,-0.465,9.498,0
296,35.436,-97.486,359.9,31.19,3,349,-0.56,-0.104,9.586,0
297,35.437,-97.486,0,31.08,3,349,-0.516,-0.103,9.985,0
298,35.437,-97.486,0.1,30.77,3,349,-0.39,-0.031,9.468,0
299,35.437,-97.486,0,30.44,3,348,-0.57,-0.256,10.307,0
300,35.438,-97.486,359.9,30.26,3,348,-0.623,-0.193,10.039,0
301,35.438,-97.486,0,30.29,3,348,-0.854,-0.234,9.743,0
302,35.438,-97.486,0.1,30.38,3,349,-0.812,-0.355,9.518,0
303,35.438,-97.486,359.9,30.61,3,349,-0.714,-0.403,9.398,0
304,35.439,-97.486,359.9,30.741,3,350,-0.619,-0.307,9.884,0
305,35.439,-97.486,359.8,30.9,3,350,-0.783,-0.281,9.512,0
306,35.439,-97.486,358.6,30.69,3,350,-0.554,-0.222,10.087,0
307,35.439,-97.486,0.1,30.98,3,349,-0.483,-0.407,10.192,0
308,35.44,-97.486,0,30.66,3,349,-0.307,-0.247,9.683,0
309,35.44,-97.486,359.8,30.46,3,349,-0.431,0.016,9.846,0
310,35.44,-97.486,359.9,30.08,3,349,-0.551,0.054,9.945,0
311,35.441,-97.486,359.9,29.91,3,349,-0.498,-0.2,9.608,0
312,35.441,-97.486,359.8,29.871,3,349,-0.694,-0.158,9.588,0
313,35.441,-97.486,0.1,29.77,3,344,-0.827,-0.068,9.612,0
314,35.441,-97.486,0.3,29.49,3,346,-0.527,-0.119,9.297,0
315,35.442,-97.486,0.3,29.47,3,348,-0.325,-0.137,9.645,0
316,35.442,-97.486,0.1,29.25,3,348,-0.379,-0.115,9.674,0
317,35.442,-97.486,0,29.03,3,349,-0.398,-0.293,9.576,0
318,35.442,-97.486,359.9,28.93,3,349,-0.134,-0.034,10.07,0
319,35.443,-97.486,359.8,28.671,3,348,-0.345,-0.038,8.347,0
320,35.443,-97.486,0.1,28.571,3,348,-0.358,-0.328,9.023,0
321,35.443,-97.486,0.2,28.671,3,348,-0.473,-0.037,9.763,0
322,35.443,-97.486,0.2,28.772,3,347,-0.52,-0.22,9.858,0
323,35.444,-97.486,359.9,28.751,3,347,-0.497,0.058,9.464,0
324,35.444,-97.486,359.5,28.682,3,346,-0.847,0.353,9.829,0
325,35.444,-97.486,359.5,28.553,3,345,-0.623,0.147,9.408,0
326,35.444,-97.486,358.8,28.493,3,345,-1.065,0.213,9.391,0
327,35.445,-97.486,357.8,28.532,3,344,-0.765,-0.449,9.937,0
328,35.445,-97.486,357.4,28.45,3,340,-0.838,-0.461,9.719,0
329,35.445,-97.486,356,29.51,3,342,-0.69,-0.289,9.643,0
330,35.446,-97.486,355,29.24,3,342,-0.456,-0.478,9.733,0
331,35.446,-97.486,354.1,29.36,3,342,-0.774,-0.323,9.364,0
332,35.446,-97.486,353.1,29.55,3,341,-0.697,-0.373,9.871,0
333,35.446,-97.486,352.3,29.66,3,341,-0.627,-0.15,9.834,0
334,35.447,-97.486,351.3,29.69,3,340,-0.397,-0.418,9.845,0
335,35.447,-97.486,350.1,29.71,3,340,-0.635,-0.213,9.779,0
336,35.447,-97.486,349,29.74,3,340,-0.293,-0.418,9.596,0
337,35.447,-97.487,348.1,29.75,3,340,-0.33,-0.073,9.641,0
338,35.448,-97.487,347.2,29.64,3,340,-0.396,-0.276,9.525,0
339,35.448,-97.487,346,29.56,3,340,-0.614,-0.425,9.519,0
340,35.448,-97.487,344.5,29.74,3,339,-0.446,-0.71,9.808,0
341,35.448,-97.487,343,29.971,3,338,-0.313,-0.063,9.711,0
342,35.449,-97.487,341.7,30.021,3,338,-0.712,-0.061,9.576,0
343,35.449,-97.487,341.3,29.961,3,338,-0.979,-0.003,9.442,0
344,35.449,-97.487,341.3,30.031,3,337,-0.793,-0.284,9.898,0
345,35.449,-97.487,340.7,30.21,3,337,-0.508,-0.49,9.588,0
346,35.45,-97.487,340.9,30.14,3,337,-0.923,-0.227,10.061,0
347,35.45,-97.487,340.5,29.71,3,337,-0.928,-0.275,9.707,0
348,35.45,-97.488,339,30,3,336,-0.737,-0.276,9.918,0
349,35.45,-97.488,339,31.031,3,336,-0.569,-0.126,9.647,0
350,35.451,-97.488,339.1,30.772,3,335,-0.622,0.102,9.616,0
352,35.451,-97.488,339.2,30.332,3,336,-0.27,0.077,10.182,0
352,35.451,-97.488,339.2,30.332,3,336,-0.27,0.077,10.182,0
353,35.451,-97.488,339.3,29.752,3,337,-0.47,0.573,10.271,0
354,35.451,-97.488,339.7,28.821,3,337,-0.34,-0.08,9.625,0
355,35.452,-97.488,339.9,28.061,3,337,-0.35,0.038,9.589,0
356,35.452,-97.488,339.8,27.592,3,338,-0.189,0.48,9.71,0
357,35.452,-97.489,339.9,27.082,3,339,-0.619,0.621,9.802,0
358,35.452,-97.489,341,25.913,3,339,-0.968,-0.109,9.309,0
359,35.453,-97.489,341.4,25.544,3,338,-1.573,-0.36,9.439,0
360,35.453,-97.489,341.7,25.903,3,339,-1.432,-0.254,9.39,0
361,35.453,-97.489,342.2,26.443,3,340,-1.128,-0.243,9.46,0
362,35.453,-97.489,342.5,26.812,3,340,-0.469,0.018,10.083,0
363,35.454,-97.489,342.7,26.851,3,341,-0.379,-0.005,9.946,0
364,35.454,-97.489,342.5,26.68,3,341,-0.288,-0.315,9.732,0
365,35.454,-97.489,341.3,26.1,3,341,0.1,0.438,9.263,0
366,35.454,-97.489,341.1,24.88,3,341,0.211,0.558,9.614,0
367,35.455,-97.489,340.7,24.101,3,341,-0.396,0.045,9.528,0
368,35.455,-97.49,340.8,23.971,3,341,-0.505,0.042,9.811,0
369,35.455,-97.49,341,24.182,3,340,-0.873,-0.459,9.957,0
370,35.455,-97.49,341,24.832,3,339,-1.006,-0.557,9.67,0
371,35.455,-97.49,340.8,25.603,3,339,-0.937,-0.678,9.613,0
372,35.456,-97.49,340.7,26.33,3,339,-0.907,-0.718,9.808,0
373,35.456,-97.49,340.9,27.21,3,338,-0.792,-0.759,9.435,0
374,35.456,-97.49,340.8,27.971,3,338,-0.889,-0.57,9.468,0
375,35.456,-97.49,340.7,28.712,3,337,-0.861,-1.015,9.241,0
376,35.457,-97.49,340.5,29.581,3,337,-1.088,-0.689,9.89,0
377,35.457,-97.49,340.4,30.321,3,337,-1.024,-0.548,9.922,0
378,35.457,-97.491,340.4,30.84,3,337,-1.155,-0.327,9.666,0
379,35.457,-97.491,340.4,31.38,3,336,-1.374,-0.371,9.913,0
380,35.458,-97.491,340.7,31.94,3,336,-1.603,-0.348,9.872,0
381,35.458,-97.491,341.1,32.421,3,337,-1.138,-0.278,9.26,0
382,35.458,-97.491,340.8,33.031,3,337,-1.466,-0.526,9.594,0
383,35.459,-97.491,341.1,33.511,3,338,-1.374,-0.483,9.46,0
384,35.459,-97.491,341.2,33.891,3,338,-0.558,0.281,9.264,0
385,35.459,-97.491,341.5,33.251,3,336,-1.029,0.134,8.38,0
386,35.459,-97.492,341.5,32.901,3,336,-0.606,0.284,9.654,0
387,35.46,-97.492,341.8,32.37,3,337,0.463,0.112,9.416,0
388,35.46,-97.492,341.9,31.84,3,337,0.071,-0.22,10.494,0
389,35.46,-97.492,341.6,31.281,3,338,-0.331,-0.29,11.099,0
390,35.46,-97.492,341.1,30.761,3,338,-0.373,0.284,9.865,0
391,35.461,-97.492,340.8,30.262,3,339,-0.484,0.32,9.974,0
392,35.461,-97.492,340.5,29.761,3,339,-0.173,0.657,10.189,0
393,35.461,-97.492,340.2,28.78,3,337,-0.169,0.128,10.338,0
394,35.461,-97.492,338.8,28.17,3,338,0.898,-0.184,9.353,0
395,35.462,-97.493,335.2,27.74,3,337,0.869,-0.763,9.571,0
396,35.462,-97.493,330.6,27.361,3,337,0.506,-0.92,9.949,0
397,35.462,-97.493,326.8,27.211,3,337,0.2,-0.845,10.184,0
398,35.462,-97.493,323.6,27.61,3,337,0.073,-0.736,9.917,0
399,35.463,-97.493,319.2,27.451,3,338,0.495,-0.938,9.264,0
400,35.463,-97.493,314.8,26.712,3,339,0.278,-0.88,9.365,0
401,35.463,-97.494,310.6,26.78,3,339,0.229,-0.57,9.883,0
402,35.463,-97.494,307.1,26.48,3,340,0.005,-1.209,9.909,0
403,35.463,-97.494,303.2,26.69,3,339,-0.028,-1.345,9.673,0
404,35.463,-97.494,299.9,27.24,3,339,-0.241,-1.426,9.279,0
405,35.463,-97.495,296.9,27.84,3,339,-1.108,-0.954,10.761,0
406,35.463,-97.495,295.2,28.71,3,337,-1.616,-0.534,9.704,0
407,35.464,-97.495,295.5,29.62,3,337,-1.411,-0.682,9.459,0
408,35.464,-97.496,295.4,30.51,3,338,-1.17,-0.404,9.941,0
409,35.464,-97.496,295.5,31.08,3,338,-1.144,-0.244,10.136,0
410,35.464,-97.496,295.8,31.44,3,338,-0.934,0.132,9.678,0
411,35.464,-97.497,296.1,31.59,3,338,-0.621,0.112,9.792,0
412,35.464,-97.497,296.3,31.36,3,338,-0.454,0.123,9.294,0
413,35.464,-97.497,296.5,31.16,3,338,-0.791,0.193,9.727,0
414,35.464,-97.497,297.2,31.13,3,338,-1.56,0.57,9.55,0
415,35.465,-97.498,299.3,31.27,3,337,-1.784,0.511,9.525,0
416,35.465,-97.498,302.1,31.61,3,337,-1.83,0.306,9.79,0
417,35.465,-97.498,304.8,31.941,3,338,-1.72,0.257,9.696,0
418,35.465,-97.499,307.2,32.331,3,338,-1.761,0.251,10.103,0
419,35.465,-97.499,309.6,32.86,3,338,-1.805,0.383,10.178,0
420,35.465,-97.499,312.1,33.26,3,338,-1.547,0.617,9.906,0
421,35.466,-97.499,314.6,33.52,3,338,-1.995,1.075,10.255,0
422,35.466,-97.5,317.1,33.13,3,338,-0.882,1.136,8.966,0
423,35.466,-97.5,318.9,32.68,3,337,-1.757,0.941,9.39,0
425,35.466,-97.5,321.1,32.28,3,338,-1.268,0.752,10.495,0
425,35.466,-97.5,321.1,32.28,3,338,-1.268,0.752,10.495,0
426,35.467,-97.5,323.2,31.961,3,339,-0.76,0.381,9.334,0
427,35.467,-97.501,324.6,31.61,3,340,-0.381,-0.056,9.782,0
428,35.467,-97.501,324.5,31.471,3,340,-0.495,-0.068,10.126,0
429,35.467,-97.501,324.5,31.092,3,341,-0.577,0.002,9.067,0
430,35.467,-97.501,324.5,30.765,3,342,-0.178,0.068,8.722,0
431,35.468,-97.501,324.7,30.605,3,342,-0.042,-0.183,9.944,0
432,35.468,-97.502,324.8,30.256,3,343,-0.304,0.087,9.927,0
433,35.468,-97.502,324.8,29.675,3,344,-0.395,-0.134,9.92,0
434,35.468,-97.502,324.9,29.293,3,345,-1.351,-0.379,9.338,0
435,35.469,-97.502,324.9,28.915,3,346,-0.703,-0.597,8.959,0
436,35.469,-97.502,324.7,29.063,3,346,-0.507,-0.783,9.096,0
437,35.469,-97.502,323.7,29.233,3,347,-0.477,-0.999,9.826,0
438,35.469,-97.503,322.8,29.622,3,347,-0.655,-0.609,10.063,0
439,35.47,-97.503,321.9,30.091,3,348,-0.605,-0.41,9.77,0
440,35.47,-97.503,321.6,29.991,3,348,-0.533,-0.103,9.752,0
441,35.47,-97.504,321.5,29.711,3,348,-0.086,-0.351,8.972,0
442,35.47,-97.504,321.1,29.64,3,348,-0.369,-0.408,9.636,0
443,35.47,-97.504,320.6,29.75,3,348,-0.543,-0.339,9.722,0
444,35.471,-97.504,320.3,29.94,3,348,-0.593,-0.329,9.52,0
445,35.471,-97.504,320.4,30.23,3,344,-0.864,-0.233,9.666,0
446,35.471,-97.505,320.5,30.43,3,346,-0.552,-0.217,9.539,1
447,35.471,-97.505,320.4,30.36,3,347,-0.524,0.034,9.82,0
448,35.472,-97.505,320.4,30.27,3,347,-0.827,0.17,9.668,0
449,35.472,-97.505,320.5,30.14,3,348,0.027,0.541,10.091,0
450,35.472,-97.505,320.4,29.78,3,348,-0.594,0.493,10.23,0
451,35.472,-97.506,320.2,29.57,3,347,-0.223,-0.025,10.021,0
452,35.472,-97.506,320.3,29.561,3,347,-0.491,-0.105,9.697,0
453,35.473,-97.506,320.4,29.852,3,347,-0.797,-0.246,9.044,0
454,35.473,-97.506,320.7,30.404,3,347,-0.527,-0.452,9.607,0
455,35.473,-97.506,320.4,30.904,3,346,-0.543,-0.199,9.228,0
456,35.473,-97.507,320.4,31.188,3,345,-0.443,-0.131,9.916,0
457,35.473,-97.507,320.3,31.383,3,344,-0.457,0.014,10.052,0
458,35.474,-97.507,320.5,31.363,3,344,-0.359,0.013,9.838,0
459,35.474,-97.507,320.6,31.691,3,343,-0.543,0.512,9.781,0
460,35.474,-97.508,321.4,31.555,3,342,-1.043,0.72,10.162,0
461,35.474,-97.508,323.6,31.402,3,342,-1.195,0.769,10.263,0
462,35.475,-97.508,324.2,31.4,3,341,-1.111,0.913,10.007,0
463,35.475,-97.508,325.5,31.44,3,342,-1.169,0.832,9.641,0
464,35.475,-97.508,330.1,30.61,3,342,-1.237,0.614,9.777,0
465,35.475,-97.508,332.1,30.51,3,342,-0.966,0.646,9.253,0
466,35.476,-97.509,333.8,30.25,3,342,-0.881,0.712,9.467,0
467,35.476,-97.509,335.5,30.06,3,342,-0.791,0.678,9.8,0
468,35.476,-97.509,337.3,29.74,3,342,-0.836,0.795,9.686,0
469,35.476,-97.509,339.2,29.512,3,341,-1.056,0.641,9.831,0
470,35.477,-97.509,341.3,29.392,3,341,-1.295,0.655,9.845,0
471,35.477,-97.509,343.6,29.492,3,340,-1.289,0.712,9.812,0
472,35.477,-97.509,345.8,29.541,3,340,-1.167,0.407,9.694,0
473,35.477,-97.509,347.7,29.843,3,340,-1.346,0.213,9.965,0
474,35.478,-97.509,349.6,30.19,3,340,-1.448,0.157,9.828,0
475,35.478,-97.509,351.7,30.64,3,340,-1.25,-0.026,9.656,0
476,35.478,-97.509,352.1,30.97,3,340,-1.409,0.23,9.711,0
477,35.478,-97.509,355.2,30.7,3,340,-1.158,-0.076,9.742,0
478,35.479,-97.509,356.6,31.601,3,341,-1.044,-0.307,9.593,0
479,35.479,-97.509,357,32.011,3,342,-1.037,-0.532,9.408,0
480,35.479,-97.51,356.9,32.591,3,343,-0.949,-0.718,9.332,0
481,35.48,-97.51,356.7,33.17,3,343,-0.988,-0.38,9.199,0
482,35.48,-97.51,356.5,33.72,3,344,-0.688,-0.172,9.584,0
483,35.48,-97.51,356.1,33.88,3,343,-0.606,-0.121,9.532,0
484,35.48,-97.51,355.3,33.99,3,343,-0.145,-0.165,9.776,1
485,35.481,-97.51,354.4,33.83,3,343,-0.169,-0.06,9.938,1
486,35.481,-97.51,353.3,33.54,3,343,-0.469,0.183,9.977,0
487,35.481,-97.51,352.5,33.23,3,342,-0.456,0.252,9.994,0
488,35.482,-97.51,351.9,32.96,3,342,-0.227,-0.023,9.91,0
489,35.482,-97.51,351.1,32.79,3,342,-0.161,0.006,10.021,0
490,35.482,-97.51,350,32.71,3,342,-0.292,-0.261,9.869,0
491,35.483,-97.51,350.2,33.17,3,342,-0.536,-0.063,9.827,0
492,35.483,-97.51,348.3,32.15,3,342,-0.598,0.132,9.982,0
493,35.483,-97.51,347.6,32.045,3,343,-0.559,-0.014,10.095,0
495,35.483,-97.51,347.1,31.696,3,344,-0.697,-0.257,9.6,0
495,35.483,-97.51,347.1,31.696,3,344,-0.697,-0.257,9.6,0
496,35.484,-97.51,346.7,31.496,3,344,-0.762,-0.111,9.635,0
497,35.484,-97.51,346.5,31.446,3,345,-0.854,0.133,9.327,0
498,35.484,-97.51,346.8,31.186,3,346,-0.925,0.096,9.861,0
499,35.484,-97.511,347.7,31.035,3,347,-0.927,0.329,9.636,0
500,35.485,-97.511,348.9,30.606,3,348,-0.808,0.256,9.111,0
501,35.485,-97.511,350.1,30.257,3,349,-0.654,0.44,9.981,0
502,35.485,-97.511,350.8,29.948,3,350,-0.785,0.124,9.47,0
503,35.486,-97.511,351.9,29.727,3,351,-1.648,0.291,10.675,0
504,35.486,-97.511,353,29.327,3,352,-0.87,0.398,9.829,0
505,35.486,-97.511,353.9,28.917,3,353,-0.398,0.482,9.458,0
506,35.486,-97.511,354.7,28.316,3,354,-1.097,0.23,9.685,0
507,35.487,-97.511,355.6,27.875,3,355,-0.801,0.305,9.554,0
508,35.487,-97.511,356.9,27.523,3,356,-0.717,0.31,9.967,0
509,35.487,-97.511,358.5,26.861,3,357,-1.034,0.166,10.015,0
510,35.488,-97.511,359.1,26.961,3,358,-0.862,-0.238,9.597,0
511,35.488,-97.511,359.5,27.221,3,359,-1.171,-0.131,9.601,0
512,35.488,-97.511,359.9,27.6,3,359,-0.862,-0.264,9.633,0
513,35.488,-97.511,359.9,28.02,3,359,-1.025,-0.016,9.552,0
514,35.489,-97.511,0.1,28.49,3,354,-0.346,-0.17,9.174,0
515,35.489,-97.511,0.2,28.94,3,356,-1.151,0.046,9.048,0
516,35.489,-97.511,0,29.39,3,357,-0.837,-0.361,9.431,0
517,35.489,-97.511,358.5,29.9,3,357,-0.21,-0.973,9.764,0
518,35.49,-97.511,356.3,30.4,3,357,-0.422,-1.097,10.03,0
519,35.49,-97.511,354.3,30.88,3,357,0.087,-0.727,9.709,0
520,35.49,-97.511,352.2,31.18,3,357,-0.332,-0.422,9.89,0
521,35.49,-97.511,350.8,31.27,3,357,-0.415,-0.336,10.085,0
522,35.491,-97.511,349,31.42,3,357,-0.359,-0.709,10.221,0
523,35.491,-97.511,347,31.49,3,357,-0.035,-0.277,9.501,0
524,35.491,-97.511,345,31.55,3,357,0.243,-0.214,9.384,0
525,35.492,-97.511,343.4,31.47,3,357,-0.255,-0.048,9.263,0
526,35.492,-97.512,342,31.4,3,356,-0.155,-0.344,9.326,0
527,35.492,-97.512,340,31.32,3,356,-0.092,-0.752,10.059,0
528,35.492,-97.512,338,31.36,3,356,0.305,-0.611,9.74,0
529,35.493,-97.512,335.8,31.311,3,356,-0.271,0.07,10.343,0
530,35.493,-97.512,334.7,31.09,3,355,-0.429,0.171,9.827,0
531,35.493,-97.512,334.4,30.85,3,355,-0.106,0.872,9.666,0
532,35.493,-97.512,334.3,29.951,3,354,0.11,1.206,9.699,0
533,35.494,-97.513,334.5,28.581,3,354,-0.291,0.324,9.926,0
534,35.494,-97.513,334.8,28.151,3,354,-0.855,0.393,10.182,0
535,35.494,-97.513,335.4,28.103,3,353,-0.456,0.404,9.82,0
536,35.494,-97.513,335.9,28.093,3,352,-0.948,0.686,10.185,0
537,35.495,-97.513,337.9,28.094,3,351,-0.912,0.764,9.893,0
538,35.495,-97.513,340,28.116,3,351,-0.87,0.477,10.081,0
539,35.495,-97.513,341.2,28.237,3,350,-0.487,0.348,9.501,0
540,35.495,-97.513,342.6,28.377,3,349,-0.751,0.541,9.571,0
541,35.495,-97.513,344.5,28.377,3,350,-0.987,0.793,9.749,0
542,35.496,-97.513,346.3,28.357,3,348,-0.7,0.724,10.004,0
543,35.496,-97.514,348,28.307,3,347,-0.698,0.535,9.741,0
544,35.496,-97.514,349.4,28.245,3,346,-0.62,1.068,10.867,0
545,35.496,-97.514,351.3,28.155,3,345,-1.16,0.748,10.028,0
546,35.497,-97.514,353.2,28.047,3,344,-0.394,0.63,9.584,0
547,35.497,-97.514,355,27.988,3,342,-1.049,0.986,9.529,0
548,35.497,-97.514,357.2,28.136,3,342,-1.039,0.593,10.146,0
549,35.497,-97.514,359,28.124,3,341,-0.252,0.437,9.566,0
550,35.498,-97.514,359.6,28.075,3,340,-0.366,0.137,9.869,0
551,35.498,-97.514,359.2,28.026,3,339,-0.074,0.08,10.045,0
552,35.498,-97.514,358.5,27.965,3,339,-0.085,0.176,9.718,0
553,35.498,-97.514,358,27.862,3,338,-0.238,0.087,10.083,0
554,35.499,-97.514,358.1,27.711,3,338,-0.303,0.293,9.976,0
555,35.499,-97.514,358,27.491,3,338,-0.352,0.356,10.004,0
556,35.499,-97.514,358.2,27.21,3,338,-0.179,0.469,9.917,0
557,35.499,-97.514,358.2,26.53,3,338,-0.351,0.23,9.646,0
558,35.5,-97.514,358.2,26.17,3,337,-0.281,0.21,9.856,0
559,35.5,-97.514,358.2,25.89,3,337,-0.384,0.179,9.953,0
560,35.5,-97.514,358.2,25.55,3,341,0.066,0.563,9.808,0
561,35.5,-97.514,358.1,25.24,3,340,0.146,1.037,9.683,0
562,35.501,-97.514,358,24.29,3,339,0.509,1.318,10.216,0
563,35.501,-97.514,358.1,22.84,3,338,1.05,1.905,9.74,0
565,35.501,-97.514,357.9,20.62,3,338,1.274,2.175,10.195,0
565,35.501,-97.514,357.9,20.62,3,338,1.274,2.175,10.195,0
566,35.501,-97.514,358.1,17.89,3,338,1.418,2.244,10.322,0
567,35.501,-97.514,358.2,14.93,3,337,-0.287,0.392,9.795,0
568,35.501,-97.514,358.1,13,3,337,-0.668,-0.202,9.78,0
569,35.502,-97.514,358.1,12.6,3,337,-0.721,-0.243,9.591,0
570,35.502,-97.514,358.2,12.8,3,337,1.058,1.632,9.944,0
571,35.502,-97.514,358.3,12.76,3,337,1.733,2.552,10.54,0
572,35.502,-97.514,358.1,10.42,3,337,1.076,1.805,10.118,0
573,35.502,-97.514,358,7.03,3,337,-0.382,0.205,9.957,0
574,35.502,-97.514,358.1,4.7101,3,337,0.468,1.321,10.121,0
575,35.502,-97.514,357.8,3.8301,3,337,0.657,1.46,10.12,0
576,35.502,-97.514,357.8,2.4002,3,337,-0.01,0.775,9.97,0
577,35.502,-97.514,357.8,0.26077,3,337,-1.332,-0.955,9.367,1
578,35.502,-97.514,357.9,0.95131,3,337,-0.867,-0.416,9.725,1
579,35.502,-97.514,358,1.7229,3,337,-0.823,-0.199,9.8,1
580,35.502,-97.514,358,1.8902,3,337,-0.538,0.115,9.495,0
581,35.502,-97.514,358,1.65,3,337,-0.776,-0.23,9.578,0
582,35.502,-97.514,358,1.86,3,337,-0.752,-0.208,9.699,1
583,35.502,-97.514,357.9,2.06,3,337,-0.434,0.11,9.934,0
584,35.502,-97.514,357.8,1.9912,3,337,-0.678,-0.214,9.77,0
585,35.502,-97.514,357.8,2.1001,3,337,-0.689,-0.207,9.657,0
586,35.502,-97.514,357.8,2.26,3,337,-0.595,-0.197,9.737,1
587,35.502,-97.514,357.8,2.361,3,337,-0.651,-0.176,9.895,1
588,35.502,-97.514,357.8,2.361,3,338,-0.74,-0.259,9.561,1
589,35.502,-97.514,358,2.82,3,337,-1,-0.643,9.709,1
590,35.502,-97.514,358.2,3.34,3,338,-1.155,-0.834,9.568,1
591,35.502,-97.514,358.5,3.8813,3,338,-1.262,-0.856,9.57,1
592,35.502,-97.514,359.1,4.6835,3,339,-1.135,-0.885,9.531,1
593,35.502,-97.514,359.6,5.4911,3,338,-0.634,-0.021,9.782,1
594,35.502,-97.514,359.5,5.9441,3,339,-0.514,0.021,9.599,0
595,35.502,-97.514,358.7,6.0505,3,339,-0.364,-0.06,9.756,1
596,35.503,-97.514,358.1,6.0303,3,339,-0.297,0.094,9.599,0
597,35.503,-97.514,358,5.73,3,340,-0.329,0.281,9.805,0
598,35.503,-97.514,357.6,5.07,3,340,-0.481,0.041,9.789,0
599,35.503,-97.514,357.9,4.74,3,339,-0.523,0.044,9.714,1
600,35.503,-97.514,358,4.58,3,340,-0.506,0.108,9.801,1
601,35.503,-97.514,358.5,4.4102,3,339,-0.592,-0.121,9.64,1
602,35.503,-97.514,358.4,4.42,3,339,-0.511,0.04,9.805,1
603,35.503,-97.514,358.8,4.3702,3,339,-0.736,-0.239,9.679,1
604,35.503,-97.514,359.2,4.4314,3,339,-0.402,0.274,9.826,1
605,35.503,-97.514,359.1,4.7205,3,339,-0.172,0.425,9.913,0
606,35.503,-97.514,358.9,4.3,3,339,0.327,0.989,9.904,0
607,35.503,-97.514,358.9,3.26,3,338,-0.588,-0.103,9.713,0
608,35.503,-97.514,358.9,2.54,3,338,-0.552,-0.114,9.759,1
609,35.503,-97.514,358.9,2.452,3,337,-0.694,-0.005,10.017,0
610,35.503,-97.514,358.8,2.5903,3,338,-0.56,-0.083,9.571,1
611,35.503,-97.514,358.7,2.5158,3,338,-0.484,-0.057,9.611,1
612,35.503,-97.514,358.7,2.4805,3,339,-0.681,-0.149,9.752,1
613,35.503,-97.514,358.6,2.4025,3,339,-0.677,-0.087,9.819,1
614,35.503,-97.514,358.6,2.4705,3,339,-0.723,-0.049,9.68,1
615,35.503,-97.514,358.5,2.54,3,339,-0.566,-0.102,9.652,1
616,35.503,-97.514,358.5,2.59,3,339,-0.611,-0.09,9.671,1
617,35.503,-97.514,358.5,2.61,3,339,-0.632,-0.084,9.739,1
618,35.503,-97.514,358.5,2.6407,3,339,-0.849,-0.451,9.627,1
619,35.503,-97.514,358.5,2.9,3,339,-0.967,-0.588,9.313,1
620,35.503,-97.514,358.6,3.7201,3,339,-0.947,-0.378,9.646,1
621,35.503,-97.514,358.7,4.5902,3,339,-0.599,-0.093,9.745,1
622,35.503,-97.514,358.9,1.2981,3,339,-0.711,-0.082,9.764,1
623,35.503,-97.514,358.9,1.2981,3,339,-0.678,-0.074,9.737,0
624,35.503,-97.514,359.6,0.89275,6,338,-0.706,-0.43,9.592,0
626,35.503,-97.514,356.9,5.0817,4,338,-0.531,-0.005,9.816,0
626,35.503,-97.514,356.9,5.0817,4,338,-0.531,-0.005,9.816,0
627,35.504,-97.514,358.5,5.34,4,338,-0.516,0.095,9.826,0
628,35.504,-97.514,359.3,5.58,4,338,0.149,0.765,9.977,0
629,35.504,-97.514,359.2,5.2716,3,338,0.276,0.824,9.842,0
630,35.504,-97.514,359.1,4.41,3,338,-0.233,0.437,9.812,0
631,35.504,-97.514,357.7,3.6101,3,338,-0.279,0.305,9.771,0
632,35.504,-97.514,359.1,2.8204,3,338,-0.686,-0.308,9.653,0
633,35.504,-97.514,359.1,2.2208,3,339,-0.659,-0.258,9.473,0
634,35.504,-97.514,359,2.15,3,339,-0.605,-0.226,9.821,0
635,35.504,-97.514,358.9,2.2411,3,339,-0.702,-0.178,9.519,0
636,35.504,-97.514,358.8,2.2801,3,339,-0.159,0.244,9.868,0
637,35.504,-97.514,358.7,2.39,3,339,-0.703,-0.194,9.669,0
638,35.504,-97.514,358.7,2.2811,3,339,-0.65,-0.195,9.788,1
639,35.504,-97.514,358.6,2.4205,3,339,-0.662,-0.153,9.728,0
640,35.504,-97.514,358.5,2.49,3,339,-0.219,0.399,10.09,0
641,35.504,-97.514,358.3,2.2502,3,339,-0.776,-0.238,9.768,0
642,35.504,-97.514,358.3,2.0301,3,338,-0.865,-0.542,9.657,1
643,35.504,-97.514,358.1,2.34,3,339,-2.133,-1.774,9.436,1
644,35.504,-97.514,358.1,3.2706,3,338,-1.611,-1.338,9.33,0
645,35.504,-97.514,358.1,4.3855,3,337,-0.629,-0.049,9.417,0
646,35.504,-97.514,357.9,4.8703,3,336,-0.648,-0.113,9.812,0
647,35.504,-97.514,358,4.9704,3,336,-1.25,-0.399,9.903,0
648,35.504,-97.514,357.9,5.2303,3,337,-0.66,0.08,9.995,0
649,35.504,-97.514,358.1,5.28,3,337,-0.561,0.096,9.721,0
650,35.504,-97.514,358,5.1902,3,337,-0.573,0.281,9.739,0
651,35.504,-97.514,358,4.8903,3,337,-0.453,0.366,9.602,0
652,35.504,-97.514,358.3,4.48,3,337,-0.614,0.248,9.912,0
653,35.504,-97.514,357.6,4.42,3,337,-0.681,0.258,9.782,0
654,35.504,-97.514,357.6,4.2502,3,336,-0.706,0.318,9.804,0
655,35.505,-97.514,358,4.1,3,337,-0.699,0.32,9.746,0
656,35.505,-97.514,358,3.9605,3,338,-1.014,-0.123,9.867,0
657,35.505,-97.514,357.9,3.9901,3,338,-0.871,0.063,9.796,1
658,35.505,-97.514,357.8,4.29,3,337,-0.755,0.316,9.858,0
659,35.505,-97.514,357.7,4.2802,3,337,-0.72,0.351,9.789,0
660,35.505,-97.514,357.6,4.22,3,337,-0.776,0.415,9.875,0
661,35.505,-97.514,357.3,4.011,3,337,-1.393,-0.458,9.493,0
662,35.505,-97.514,357.2,4.38,3,337,-0.853,0.365,9.937,0
663,35.505,-97.514,357,4.51,3,337,-0.842,0.36,9.926,0
664,35.505,-97.514,357,4.4401,3,337,-0.829,0.434,9.663,0
665,35.505,-97.514,356.9,4.3403,3,337,-0.775,0.417,9.614,0
666,35.505,-97.514,356.9,4.2101,3,336,-0.845,0.537,9.786,0
667,35.505,-97.514,356.9,4.04,3,336,-0.884,0.496,9.636,0
668,35.505,-97.514,357.2,3.91,3,336,-1.08,0.26,9.721,0
669,35.505,-97.514,357.3,4.0312,3,336,-0.968,0.547,9.699,0
670,35.505,-97.514,357.4,4.0602,3,336,-0.531,1.103,9.865,0
671,35.505,-97.514,357.4,3.79,3,336,-0.646,0.764,9.947,0
672,35.505,-97.514,357.4,2.9802,3,336,-0.762,0.871,9.682,0
673,35.505,-97.514,357.4,2.492,3,336,-1.003,0.491,9.707,0
674,35.505,-97.514,357.4,2.06,3,336,-0.637,0.852,9.667,0
675,35.505,-97.514,357.2,1.8,3,336,-1.008,0.478,9.548,0
676,35.505,-97.514,356.9,1.6903,3,336,-1.051,0.41,9.649,0
677,35.505,-97.514,356.5,1.7105,3,336,-0.995,0.438,9.891,0
678,35.505,-97.514,356.4,1.8407,3,336,-1.25,0.326,9.708,0
679,35.505,-97.514,356.4,2.0709,3,336,-1.142,0.319,9.625,1
680,35.505,-97.514,356.3,2.34,3,336,-1.071,0.406,9.895,0
681,35.505,-97.514,356.3,2.1901,3,336,-0.796,0.725,9.653,1
682,35.505,-97.514,356,2.5001,3,336,-0.824,0.662,9.714,0
683,35.505,-97.514,355.7,2.3601,3,337,-0.851,0.549,9.773,0
684,35.505,-97.514,355.4,2.15,3,337,-1.049,0.328,9.581,0
685,35.505,-97.514,355.2,2.14,3,337,-0.906,0.553,9.725,0
686,35.505,-97.514,355,2.2511,3,337,-0.97,0.397,9.606,0
687,35.505,-97.514,354.8,2.1704,3,337,-0.896,0.512,9.806,0
688,35.505,-97.514,354.7,2.1311,3,337,-0.987,0.452,9.588,0
689,35.505,-97.514,354.5,2.16,3,337,-1.121,0.318,9.474,0
690,35.506,-97.514,354.2,2.2414,3,338,-1.087,0.325,9.585,1
691,35.506,-97.514,353.9,2.4101,3,337,-1.038,0.407,9.756,0
692,35.506,-97.514,353.7,2.5903,3,338,-1.013,0.423,9.781,1
694,35.506,-97.514,353.6,2.71,3,338,-1.042,0.386,9.689,0
694,35.506,-97.514,353.6,2.71,3,338,-1.042,0.386,9.689,0
695,35.506,-97.514,353.3,2.7505,3,338,-0.978,0.443,9.785,0
696,35.506,-97.514,353.2,2.82,3,337,-0.977,0.436,9.862,0
697,35.506,-97.514,353.1,2.824,3,338,-0.952,0.498,9.731,0
698,35.506,-97.514,353,2.9401,3,338,-0.992,0.47,9.712,1
699,35.506,-97.514,352.9,2.9814,3,339,-0.612,0.933,9.844,0
700,35.506,-97.514,352.7,3.0301,3,340,-0.552,1,9.831,0
701,35.506,-97.514,352.6,2.6602,3,340,-0.84,0.536,9.777,0
702,35.506,-97.514,352.5,2.15,3,340,-0.968,0.435,9.699,0
703,35.506,-97.514,352.4,2.05,3,340,-0.994,0.295,9.726,0
704,35.506,-97.514,352.5,2.0712,3,340,-0.994,0.329,9.607,0
705,35.506,-97.514,352.6,2.2506,3,340,-0.828,0.404,9.788,0
706,35.506,-97.514,352.5,2.38,3,340,-0.757,0.65,10.028,0
707,35.506,-97.514,352.5,2.3602,3,340,-0.788,0.549,9.705,0
708,35.506,-97.514,352.5,2.02,3,340,-0.874,0.304,10.061,0
709,35.506,-97.514,352.4,1.84,3,341,-1.059,0.18,9.726,0
710,35.506,-97.514,352.4,2.0104,3,340,-1.007,0.232,9.9,0
711,35.506,-97.514,352.5,2.3108,3,341,-0.674,0.68,9.701,0
712,35.506,-97.514,352.5,2.2006,3,341,-0.716,0.536,9.874,0
713,35.506,-97.514,352.4,1.7407,3,341,-1.038,0.312,9.78,0
714,35.506,-97.514,352.4,1.9,3,341,-1.02,0.061,9.577,1
715,35.506,-97.514,352.4,2.1901,3,341,-0.925,0.153,9.551,1
716,35.506,-97.514,352.3,2.4502,3,341,-0.91,0.301,9.967,0
717,35.506,-97.514,352.2,2.63,3,341,-0.889,0.279,9.712,0
718,35.506,-97.514,352.1,2.7301,3,341,-0.787,0.292,9.916,0
719,35.506,-97.514,352.1,2.82,3,341,0.022,1.321,9.957,0
720,35.506,-97.514,352.3,2.4205,3,340,-0.937,0.134,9.797,1
721,35.506,-97.514,352.3,2.4002,3,340,-0.908,0.224,9.97,0
722,35.506,-97.514,352.2,2.571,3,341,-0.838,0.179,9.826,1
723,35.506,-97.514,352.1,2.75,3,340,-0.827,0.245,9.857,1
724,35.506,-97.514,352.1,2.8614,3,341,-0.854,0.289,9.805,0
725,35.506,-97.514,352.2,2.93,3,341,-0.75,0.229,9.649,1
726,35.506,-97.514,352.2,2.9801,3,341,-0.273,0.662,9.985,0
727,35.506,-97.514,352.2,2.8301,3,342,-0.358,0.71,9.926,0
728,35.506,-97.514,352.1,2.2301,3,342,-0.471,0.568,9.6,0
729,35.506,-97.514,352.1,1.7618,3,341,-0.146,0.869,10.306,0
730,35.506,-97.514,352.1,1.0907,3,341,-0.272,0.752,9.762,0
731,35.506,-97.514,352.1,1.0907,3,341,-1.102,-0.382,9.683,0
732,35.506,-97.514,352.1,1.0907,3,341,-0.927,-0.265,9.872,0
733,35.506,-97.514,352.1,0.78102,3,342,-0.911,-0.202,9.867,0
734,35.506,-97.514,352,1.28,3,342,-0.867,-0.195,9.484,0
735,35.506,-97.514,352,1.7207,3,342,-0.841,-0.007,9.541,0
736,35.506,-97.514,352,2.0601,3,342,-0.998,-0.302,9.717,1
737,35.506,-97.514,351.9,2.4121,3,342,-0.92,-0.282,9.462,0
738,35.506,-97.514,352,3.2905,3,342,-0.796,0.013,9.878,1
739,35.507,-97.514,352.1,4.1404,3,341,-0.997,-0.427,9.54,1
740,35.507,-97.514,352.2,4.53,3,341,-0.973,-0.381,9.69,1
741,35.507,-97.514,352.4,5.0708,3,342,-1.068,-0.352,9.832,1
742,35.507,-97.514,352.5,5.6401,3,342,-0.585,0.089,9.721,0
743,35.507,-97.514,352.5,5.88,3,342,-0.461,0.047,9.713,1
744,35.507,-97.514,352.5,5.85,3,343,-0.519,0.115,9.896,0
745,35.507,-97.514,352.5,5.7701,3,342,-0.475,0.076,9.576,0
746,35.507,-97.514,352.2,5.6404,3,342,-0.491,0.047,9.92,1
747,35.507,-97.514,352.1,5.4801,3,342,-0.172,0.537,9.844,0
748,35.507,-97.514,352.1,5.25,3,342,-0.033,0.687,9.87,0
749,35.507,-97.514,352.2,4.5907,3,341,-0.441,0.092,9.641,0
750,35.507,-97.514,352.2,3.921,3,341,-0.421,0.224,9.981,0
751,35.507,-97.514,352.2,3.67,3,341,-0.444,0.075,9.604,0
752,35.507,-97.514,352.3,3.46,3,340,-0.441,0.116,9.639,0
753,35.507,-97.514,352.3,3.23,3,340,-0.74,-0.245,9.479,0
754,35.507,-97.514,352.6,3.1704,3,340,-1.064,-0.744,9.693,0
755,35.507,-97.514,352.6,3.6105,3,340,-0.533,-0.074,9.734,0
756,35.507,-97.514,352.7,4.19,3,339,-0.535,-0.032,9.933,1
757,35.507,-97.514,352.7,4.14,3,339,-0.618,-0.064,9.782,0
759,35.507,-97.514,352.8,4.0221,3,339,-0.519,0.054,9.813,0
759,35.507,-97.514,352.8,4.0221,3,339,-0.519,0.054,9.813,0
760,35.507,-97.514,352.8,4.0001,3,339,-0.425,0.126,9.787,0
761,35.507,-97.514,352.7,3.9402,3,339,-0.095,0.686,10.147,0
762,35.507,-97.514,352.6,3.66,3,339,0.015,0.643,9.918,0
763,35.507,-97.514,352.4,2.87,3,338,-0.002,0.701,10.005,0
764,35.507,-97.514,352.3,1.9526,3,338,-0.304,0.285,9.931,0
765,35.507,-97.514,352.3,1.0904,3,338,-0.011,0.666,9.916,0
766,35.507,-97.514,352.3,1.0904,3,338,-0.6,-0.007,9.703,1
767,35.507,-97.514,352.3,1.0904,3,338,-0.604,0.031,9.762,1
768,35.507,-97.514,352.3,1.0904,3,338,-0.586,0.021,9.753,1
769,35.507,-97.514,352.3,1.0904,3,338,-0.871,-0.335,9.656,1
770,35.507,-97.514,352.3,1.0904,3,338,-0.838,-0.387,9.572,1
771,35.507,-97.514,352.3,1.0904,3,338,-0.833,-0.301,9.542,1
772,35.507,-97.514,351.8,1.2526,3,339,-0.789,-0.267,9.968,0
773,35.508,-97.514,351.7,1.61,3,338,-0.757,-0.285,9.436,0
774,35.508,-97.514,351.5,1.9904,3,338,-1.251,-0.865,9.713,1
775,35.508,-97.514,351.3,2.8221,3,339,-0.735,-0.06,9.604,1
776,35.508,-97.514,351.1,3.1001,3,339,-0.924,-0.338,9.792,0
777,35.508,-97.514,350.9,3.58,3,339,-1.003,-0.433,9.553,0
778,35.508,-97.514,350.8,4.21,3,339,-1.103,-0.458,9.763,1
779,35.508,-97.514,351.4,4.81,3,339,-0.867,-0.448,9.758,0
780,35.508,-97.514,351.7,5.3502,3,339,-0.512,-0.036,9.529,0
781,35.508,-97.514,351.8,5.5,3,338,-0.451,0.111,9.734,0
782,35.508,-97.514,351.9,5.42,3,338,-0.45,0.053,10.126,0
783,35.508,-97.514,351.8,5.2501,3,338,0.024,0.673,9.774,0
784,35.508,-97.514,351.7,4.6009,3,338,-0.16,0.435,9.821,0
785,35.508,-97.514,351.9,3.69,3,338,-0.347,0.418,9.792,0
786,35.508,-97.514,352.1,3.2202,3,338,-0.361,0.274,9.826,0
787,35.508,-97.514,352.1,3.05,3,338,-0.333,0.125,9.714,0
788,35.508,-97.514,352.3,2.8602,3,337,-0.553,0.064,9.777,0
789,35.508,-97.514,352.4,2.7615,3,337,-0.724,-0.33,9.929,1
790,35.508,-97.514,352.3,2.98,3,337,-0.54,-0.033,9.71,0
791,35.508,-97.514,352.4,3.09,3,337,-0.45,0.027,9.79,1
792,35.508,-97.514,352.4,3.0428,3,337,-0.056,0.547,9.784,0
793,35.508,-97.514,352.5,2.67,3,337,0.347,0.974,10.178,0
794,35.508,-97.514,352.6,1.81,3,337,0.109,0.942,9.941,0
795,35.508,-97.514,352.6,1.81,3,337,-0.569,-0.067,10.005,0
796,35.508,-97.514,352.6,1.81,3,337,-0.681,-0.236,9.635,0
797,35.508,-97.514,352.6,1.81,3,337,-0.503,0.075,9.764,0
798,35.508,-97.514,352.6,1.81,3,337,-0.52,0,9.852,1
799,35.508,-97.514,352.6,1.81,3,337,-0.51,0.031,9.721,1
800,35.508,-97.514,352.6,1.81,3,337,-0.875,-0.412,9.535,1
801,35.508,-97.514,352.6,0.39051,3,337,-0.791,-0.313,9.811,1
802,35.508,-97.514,352.5,0.85,3,337,-1.097,-0.644,9.628,1
803,35.508,-97.514,352.5,1.41,3,337,-0.758,-0.293,9.714,1
804,35.508,-97.514,352.5,2.012,3,338,-0.659,-0.248,9.744,1
805,35.508,-97.514,352.5,2.5301,3,338,-0.642,0.011,9.844,0
806,35.508,-97.514,352.4,2.8,3,338,-0.549,0.095,9.705,0
807,35.508,-97.514,352.2,2.8703,3,338,-0.441,0.091,9.64,0
808,35.508,-97.514,352,2.87,3,337,-0.469,0.091,9.468,0
809,35.508,-97.515,351.8,2.8625,3,338,-0.547,0.038,9.642,0
810,35.508,-97.515,351.8,2.76,3,338,-0.4,0.11,9.665,0
811,35.508,-97.515,351.8,2.76,3,338,-0.556,0.019,9.876,1
812,35.508,-97.515,351.8,2.79,3,338,-0.577,-0.03,9.874,0
813,35.508,-97.515,351.8,2.7802,3,338,-0.577,0.148,9.677,0
814,35.509,-97.515,351.7,2.8101,3,338,-0.482,0.072,9.808,1
815,35.509,-97.515,351.7,2.8602,3,338,-0.502,0.076,9.915,0
816,35.509,-97.515,351.7,2.9211,3,338,-0.478,0.069,9.811,0
817,35.509,-97.515,351.9,2.9114,3,338,-0.783,-0.291,9.743,1
818,35.509,-97.515,352.2,3.002,3,338,-0.782,-0.241,9.723,0
819,35.509,-97.515,352.3,3.4804,3,338,-0.662,-0.16,9.768,1
820,35.509,-97.515,352.5,3.8501,3,338,-0.487,0.008,9.821,1
822,35.509,-97.515,352.5,4.0421,3,339,-0.469,0.028,9.955,1
822,35.509,-97.515,352.5,4.0421,3,339,-0.469,0.028,9.955,1
823,35.509,-97.515,352.7,4.1302,3,339,0.431,1.123,9.777,0
824,35.509,-97.515,352.6,4.0401,3,339,0.218,0.846,9.988,0
825,35.509,-97.515,352.4,3.0106,3,339,-0.437,0.093,10.005,0
826,35.509,-97.515,352.3,2.21,3,338,-0.328,0.093,9.95,0
827,35.509,-97.515,352,2.2045,3,338,-0.597,-0.078,9.634,1
828,35.509,-97.515,351.9,2.2411,3,338,-0.483,-0.02,9.73,1
829,35.509,-97.515,351.7,2.41,3,338,-0.529,0.025,9.76,1
830,35.509,-97.515,351.8,2.5607,3,338,-0.56,0.172,9.949,0
831,35.509,-97.515,351.8,2.6505,3,338,-0.486,0.054,9.68,0
832,35.509,-97.515,351.8,2.73,3,338,-0.498,0.057,9.63,0
833,35.509,-97.515,351.8,2.8209,3,338,-0.435,0.072,9.895,0
834,35.509,-97.515,351.8,2.8804,3,338,-0.466,0.112,9.695,1
835,35.509,-97.515,351.8,2.9421,3,338,-0.449,0.074,9.794,1
836,35.509,-97.515,351.8,2.9603,3,338,-0.204,0.393,9.669,0
837,35.509,-97.515,351.9,2.7801,3,338,-0.545,0.087,9.836,0
838,35.509,-97.515,351.9,2.7418,3,338,-0.457,0.014,9.753,0
839,35.509,-97.515,351.9,2.84,3,338,-0.478,0.113,9.654,0
840,35.509,-97.515,351.8,2.9311,3,338,-0.516,0.151,9.924,0
841,35.509,-97.515,351.8,2.9604,3,337,-0.505,0.105,9.817,0
842,35.509,-97.515,351.7,2.9903,3,337,-0.497,0.106,9.745,0
843,35.509,-97.515,351.7,3.0628,3,337,-0.702,-0.089,9.751,0
844,35.509,-97.515,351.6,3.5611,3,337,-0.493,0.182,9.81,1
845,35.509,-97.515,351.6,3.6302,3,337,-1.132,-0.673,9.759,1
846,35.509,-97.515,351.7,4.21,3,337,-0.575,0.118,9.904,1
847,35.509,-97.515,351.8,4.5001,3,338,-1.017,-0.5,9.809,1
848,35.509,-97.515,352.1,5.0602,3,338,-1.214,-0.617,9.661,1
849,35.51,-97.515,352.4,5.9708,3,338,-0.452,-0.128,9.803,0
850,35.51,-97.515,352.4,6.3708,3,338,-0.754,-0.232,9.643,0
851,35.51,-97.515,352.4,6.8117,3,337,-0.515,0.037,9.882,0
852,35.51,-97.515,352.5,7.0121,3,337,-0.498,0.179,9.816,1
853,35.51,-97.515,352.4,7.1105,3,337,0.057,0.699,9.789,0
854,35.51,-97.515,352.4,6.9002,3,337,0.305,1.135,9.858,0
855,35.51,-97.515,352.5,5.4572,3,337,0.077,0.755,9.824,0
856,35.51,-97.515,352.5,4.753,4,337,0.371,1.2,10.014,0
857,35.51,-97.515,352.3,3.72,3,336,0.223,1.112,10.154,0
858,35.51,-97.515,352.1,3.2712,4,336,0.259,1.058,9.913,0
859,35.51,-97.515,352.2,2.9169,3,337,0.043,0.828,9.989,0
860,35.51,-97.515,352.2,2.9475,4,337,-0.42,0.215,9.636,0
861,35.51,-97.515,352.2,3.2235,4,337,-0.403,0.241,9.796,1
862,35.51,-97.515,352.2,3.1006,8,337,-0.861,-0.306,9.713,1
863,35.51,-97.515,357,0.74525,3,336,-0.733,-0.247,9.813,1
864,35.51,-97.515,357,0.74525,3,336,-0.697,-0.144,9.665,0
865,35.51,-97.515,352.1,1.0269,3,336,-0.632,-0.071,9.837,0
866,35.51,-97.515,352,1.3226,4,335,-0.861,-0.406,9.723,0
867,35.51,-97.515,351.9,1.118,9,334,-0.595,-0.011,9.461,0
868,35.51,-97.515,351.9,1.118,9,334,-0.432,0.246,9.565,1
869,35.51,-97.515,351.9,2.248,23,335,-0.439,0.215,9.691,1
870,35.51,-97.515,351.9,3.0827,30,335,-0.411,0.213,9.593,0
871,35.51,-97.515,352,3.121,4,335,-0.398,0.235,9.766,0
872,35.51,-97.515,352.1,3.1419,3,335,-0.455,0.187,9.687,1
873,35.51,-97.515,351.9,3.19,3,335,-0.55,0.265,9.694,0
874,35.51,-97.515,351.7,3.2404,3,335,-0.454,0.233,9.792,0
875,35.51,-97.515,351.5,3.3001,3,335,-0.846,-0.033,10.083,0
876,35.51,-97.515,351.4,3.4601,3,335,-0.785,-0.061,9.729,1
877,35.51,-97.515,351.5,3.8516,3,335,-0.616,0.141,9.794,0
878,35.51,-97.515,351.7,4.2807,3,334,-0.593,0.259,9.952,0
879,35.51,-97.515,351.8,4.45,3,334,-0.507,0.51,9.765,0
880,35.51,-97.515,352,4.55,3,334,-0.492,0.486,9.746,0
881,35.51,-97.515,352.1,4.33,3,335,-0.598,0.44,9.866,0
882,35.511,-97.515,352.3,4.171,3,334,-0.612,0.39,10.034,0
883,35.511,-97.515,352.2,4.1408,3,334,-0.603,0.481,9.891,0
884,35.511,-97.515,352.1,4.1402,3,334,-0.386,0.779,9.8,0
885,35.511,-97.515,352,3.9502,3,333,-0.572,0.461,10.061,0
886,35.511,-97.515,351.8,3.6223,3,333,-0.704,0.508,9.85,0
888,35.511,-97.515,351.7,3.49,3,333,-0.714,0.462,9.945,0
888,35.511,-97.515,351.7,3.49,3,333,-0.714,0.462,9.945,0
889,35.511,-97.515,351.5,3.4401,3,333,-0.657,0.473,9.813,0
890,35.511,-97.515,351.4,3.4101,3,333,-0.682,0.549,10.009,0
891,35.511,-97.515,351.3,3.36,3,333,-0.747,0.62,9.773,0
892,35.511,-97.515,351.2,3.3207,3,332,-0.759,0.476,9.802,0
893,35.511,-97.515,351.2,3.301,3,332,-0.763,0.52,9.747,0
894,35.511,-97.515,351.3,3.2901,3,332,-0.86,0.464,9.796,0
895,35.511,-97.515,351.3,3.3001,3,332,-0.991,0.299,9.773,0
896,35.511,-97.515,351.3,3.4009,3,331,-0.609,0.909,9.826,0
897,35.511,-97.515,351.3,3.6401,3,331,-0.854,0.547,9.656,0
898,35.511,-97.515,351.5,3.51,3,331,-0.784,0.591,9.72,0
899,35.511,-97.515,351.7,3.4002,3,331,-0.775,0.565,9.932,0
900,35.511,-97.515,351.9,3.3607,3,331,-0.856,0.662,9.794,1
901,35.511,-97.515,352.3,3.2601,3,332,-0.894,0.686,9.688,0
902,35.511,-97.515,352.1,3.2802,3,331,-0.853,0.611,9.796,0
903,35.511,-97.515,351.9,3.2915,3,331,-0.901,0.618,9.877,0
904,35.511,-97.515,351.6,3.31,3,331,-0.787,0.591,9.776,0
905,35.511,-97.515,351,3.3201,3,331,-0.928,0.656,9.713,0
906,35.511,-97.515,350.4,3.3404,3,331,-0.841,0.643,9.965,0
907,35.511,-97.515,350,3.35,3,331,-0.887,0.641,9.804,0
908,35.511,-97.515,349.8,3.3104,3,331,-0.885,0.713,9.767,0
909,35.511,-97.515,349.6,3.2801,3,331,-0.964,0.7,9.707,0
910,35.511,-97.515,349.5,3.2901,3,330,-0.972,0.661,9.939,0
911,35.511,-97.515,349.2,3.2901,3,330,-0.916,0.703,9.865,0
912,35.511,-97.515,349.1,3.3207,3,330,-0.894,0.684,9.845,0
913,35.511,-97.515,349,3.3101,3,330,-0.911,0.821,9.928,0
914,35.512,-97.515,348.6,3.291,3,330,-0.55,1.039,10.074,0
915,35.512,-97.515,348.2,2.85,3,330,-0.436,1.334,9.796,0
916,35.512,-97.515,348,2.255,3,330,-0.809,0.959,9.744,0
917,35.512,-97.515,347.9,1.6624,3,330,-0.857,0.841,9.916,0
918,35.512,-97.515,347.9,1.291,3,329,-1.143,0.374,9.559,0
919,35.512,-97.515,347.8,1.38,3,329,-1.052,0.545,9.745,1
920,35.512,-97.515,347.6,1.62,3,329,-1.139,0.389,9.775,1
921,35.512,-97.515,347.5,1.9621,3,329,-0.999,0.46,9.699,1
922,35.512,-97.515,347.4,2.32,3,328,-0.977,0.529,9.83,0
923,35.512,-97.515,347.4,2.561,3,328,-0.957,0.565,9.846,0
924,35.512,-97.515,347.5,2.67,3,328,-1.006,0.6,9.686,0
925,35.512,-97.515,347.5,2.8003,3,327,-0.976,0.645,9.899,1
926,35.512,-97.515,347.5,2.84,3,327,-1.016,0.577,9.566,1
927,35.512,-97.515,347.5,2.9102,3,327,-0.774,0.972,9.766,0
928,35.512,-97.515,347.5,2.71,3,326,-0.851,0.786,9.875,0
929,35.512,-97.515,347.3,2.4313,3,326,-0.865,0.851,9.625,0
930,35.512,-97.515,347.2,2.24,3,326,-0.713,0.983,9.857,0
931,35.512,-97.515,347,2.01,3,325,-0.643,1.014,9.857,0
932,35.512,-97.515,346.9,1.49,3,325,-1.01,0.616,9.626,0
933,35.512,-97.515,346.8,1.1102,3,325,-0.771,0.917,9.841,0
934,35.512,-97.515,346.7,1.0204,3,324,-1.123,0.444,9.696,1
935,35.512,-97.515,346.7,1.0204,3,324,-1.283,0.185,9.653,1
936,35.512,-97.515,346.4,0.9902,3,324,-1.215,0.285,9.757,0
937,35.512,-97.515,346.2,1.5412,3,325,-1.196,0.357,9.862,0
938,35.512,-97.515,345.9,1.9602,3,325,-0.562,1.132,9.608,0
939,35.512,-97.515,345.8,2.2302,3,325,-0.843,0.729,9.879,0
940,35.512,-97.515,345.8,1.781,3,325,-0.66,0.894,9.78,0
941,35.512,-97.515,345.7,1.4503,3,325,-0.914,0.573,9.806,0
942,35.512,-97.515,345.6,1.1207,3,324,-1.256,0.262,9.544,0
943,35.512,-97.515,345.5,1.32,3,324,-1.122,0.338,9.657,0
944,35.512,-97.515,345.5,1.7203,3,324,-1.17,0.433,9.93,0
945,35.512,-97.515,345.4,2.0535,3,324,-0.693,0.623,9.911,0
946,35.512,-97.515,345.5,2.1719,3,324,-0.781,0.822,9.672,0
947,35.512,-97.515,345.5,2.0302,3,323,-1.101,0.327,9.688,0
948,35.512,-97.515,345.5,2.02,3,323,-1.015,0.378,9.694,0
949,35.512,-97.515,345.6,2.2827,3,323,-0.978,0.417,9.754,0
950,35.512,-97.515,345.6,2.5101,3,323,-0.89,0.386,9.838,1
951,35.512,-97.515,345.6,2.6801,3,323,-0.861,0.583,9.792,0
952,35.512,-97.515,345.5,2.7705,3,323,-0.806,0.554,9.948,0
953,35.512,-97.515,345.4,2.6502,3,323,-0.847,0.489,9.8,0
954,35.512,-97.515,345.2,2.6227,3,323,-0.865,0.382,9.928,0
956,35.512,-97.515,345,2.6809,3,323,-0.762,0.503,9.926,0
956,35.512,-97.515,345,2.6809,3,323,-0.762,0.503,9.926,0
957,35.512,-97.515,344.9,2.75,3,324,-0.871,0.46,10.029,0
958,35.512,-97.515,344.8,2.7412,3,323,-0.832,0.351,9.761,0
959,35.512,-97.515,344.7,2.7903,3,323,-0.835,0.417,9.966,0
960,35.512,-97.515,344.7,2.8501,3,323,-0.82,0.409,9.729,0
961,35.512,-97.515,344.7,2.9108,3,324,-0.81,0.424,9.938,1
962,35.512,-97.515,344.8,2.9403,3,324,-0.723,0.381,9.672,0
963,35.512,-97.515,344.9,2.9101,3,324,-0.723,0.354,9.567,0
964,35.512,-97.515,345,2.9824,3,324,-0.904,0.138,9.688,0
965,35.512,-97.515,345,3.0401,3,323,-1.439,-0.547,9.532,0
966,35.513,-97.515,345,3.45,3,323,-0.818,0.161,9.771,1
967,35.513,-97.515,344.9,4.182,3,324,-0.769,0.274,9.689,0
968,35.513,-97.515,344.9,4.43,3,324,-0.651,0.303,9.736,1
969,35.513,-97.515,345,4.2214,3,324,-0.629,0.452,9.858,0
970,35.513,-97.515,345.1,4.21,3,324,-0.245,0.792,9.885,0
971,35.513,-97.515,345.1,3.3921,3,324,-0.255,0.625,9.874,0
972,35.513,-97.515,345.2,3.1806,3,323,-0.582,0.398,9.868,0
973,35.513,-97.515,345.3,3.0801,3,323,-0.55,0.29,9.787,0
974,35.513,-97.515,345.3,2.9606,3,324,-0.578,0.246,9.835,1
975,35.513,-97.515,345.3,2.8506,3,323,-0.542,0.229,9.655,0
976,35.513,-97.515,345.3,2.8001,3,324,-0.594,0.183,9.69,0
977,35.513,-97.515,345.3,2.8101,3,323,-0.627,0.202,9.609,0
978,35.513,-97.515,345.3,2.8302,3,323,-0.591,0.215,9.882,0
979,35.513,-97.515,345.3,2.8814,3,323,-0.598,0.027,9.656,1
980,35.513,-97.515,345.3,3.1113,3,323,-0.54,0.179,9.842,0
981,35.513,-97.516,345.2,3.1201,3,324,-0.544,0.132,9.822,0
982,35.513,-97.516,345.1,3.13,3,323,-0.654,-0.072,9.7,0
983,35.513,-97.516,345,3.2619,3,324,-0.497,0.081,9.771,0
984,35.513,-97.516,344.9,3.37,3,324,-1.295,-0.879,9.552,1
985,35.513,-97.516,344.8,4.03,3,325,-0.782,-0.229,9.708,0
986,35.513,-97.516,344.8,5.02,3,325,-0.638,-0.273,9.845,0
987,35.513,-97.516,344.8,5.28,3,325,-0.57,0.006,9.763,0
988,35.513,-97.516,344.9,5.4715,3,324,-0.563,-0.01,9.527,0
989,35.513,-97.516,344.9,5.5101,3,325,-0.507,0.117,9.727,1
990,35.513,-97.516,345.1,5.55,3,325,-0.468,-0.018,9.908,0
991,35.513,-97.516,345,5.5901,3,325,-0.426,0.019,9.87,0
992,35.513,-97.516,345,5.5801,3,326,-0.426,0.097,9.94,0
993,35.513,-97.516,344.9,5.55,3,325,-1.057,-0.564,9.55,0
994,35.514,-97.516,344.8,6.0202,3,326,-0.81,-0.374,9.921,0
995,35.514,-97.516,344.8,6.8001,3,325,-0.555,0.006,9.626,1
996,35.514,-97.516,344.7,7.0307,3,326,-0.928,-0.407,9.638,1
997,35.514,-97.516,344.7,7.221,3,325,-0.619,0.102,9.466,0
998,35.514,-97.516,344.7,7.58,3,325,-0.92,-0.371,9.884,0
999,35.514,-97.516,344.8,7.82,3,325,-0.539,-0.047,9.564,0
1000,35.514,-97.516,344.9,8.1404,3,326,-0.653,-0.013,9.548,1
1001,35.514,-97.516,344.8,8.25,3,325,-0.586,-0.038,9.737,0
1002,35.514,-97.516,344.8,8.29,3,325,-0.441,0.089,9.63,0
1003,35.514,-97.516,344.9,8.3504,3,325,-0.57,0.087,9.636,0
1004,35.514,-97.516,344.9,8.3302,3,325,0.589,1.314,9.878,0
1005,35.514,-97.516,344.9,8.0909,3,325,1.242,1.942,10.085,0
1006,35.514,-97.516,345,6.09,3,325,-0.16,0.505,9.88,0
1007,35.514,-97.516,345.1,3.66,3,325,0.189,0.932,9.879,0
1008,35.514,-97.516,345.1,2.7102,3,325,-0.243,0.306,9.731,0
1009,35.514,-97.516,345.1,2.0712,3,325,-0.149,0.475,9.678,0
1010,35.514,-97.516,345.1,1.61,3,325,-0.229,0.38,9.734,0
1011,35.514,-97.516,345.1,1.1463,3,324,-0.33,0.21,9.816,0
1012,35.514,-97.516,345.1,1.1463,3,324,-0.049,0.567,9.883,1
1013,35.514,-97.516,345.1,0.43105,3,324,-0.756,-0.219,9.71,1
1014,35.514,-97.516,345.1,0.43105,3,324,-0.831,-0.341,9.585,1
1015,35.514,-97.516,345.1,0.43105,3,324,-1.076,-0.757,9.627,1
1016,35.514,-97.516,345.1,0.43105,3,324,-0.75,-0.253,9.703,1
1017,35.514,-97.516,344.7,1.8845,3,324,-0.705,-0.157,9.736,1
1018,35.514,-97.516,344.5,2.2711,3,324,-1.174,-0.903,9.492,0
1020,35.515,-97.516,344.3,2.7102,3,324,-0.454,-0.104,9.903,1
1020,35.515,-97.516,344.3,2.7102,3,324,-0.454,-0.104,9.903,1
1021,35.515,-97.516,344.4,3.4912,3,324,-0.557,0.081,9.486,0
1022,35.515,-97.516,344.3,3.682,3,324,-0.829,-0.505,9.981,0
1023,35.515,-97.516,344.4,3.8301,3,325,-1.167,-0.815,9.442,0
1024,35.515,-97.516,344.5,4.51,3,324,-1.196,-0.851,9.555,1
1025,35.515,-97.516,344.7,5.4611,3,324,-1.031,-0.722,9.8,1
1026,35.515,-97.516,345.2,6.7601,3,324,-0.592,0.159,9.69,0
1027,35.515,-97.516,345.5,7.4405,3,324,-0.359,-0.118,9.728,0
1028,35.515,-97.516,345.6,7.5302,3,324,-0.42,0.062,9.859,0
1029,35.515,-97.516,345.6,7.5301,3,324,-0.379,0.035,9.846,0
1030,35.515,-97.516,345,7.4715,3,324,-0.4,0.082,9.509,0
1031,35.515,-97.516,344.7,7.4103,3,324,-0.428,-0.036,9.851,0
1032,35.515,-97.516,344.7,7.36,3,324,-0.374,0.02,9.828,0
1033,35.515,-97.516,344.8,7.35,3,324,-0.61,-0.316,9.611,0
1034,35.515,-97.516,344.9,7.59,3,324,-0.787,-0.319,9.609,0
1035,35.515,-97.516,345,7.99,3,325,-1.167,-0.439,9.741,1
1036,35.515,-97.516,345.1,8.67,3,324,-1.119,-1.007,9.652,1
1037,35.516,-97.516,345.2,9.6603,3,324,-0.937,-0.548,9.905,0
1038,35.516,-97.516,345.4,10.49,3,324,-0.338,0.306,9.974,0
1039,35.516,-97.516,345.4,10.43,3,324,-0.322,0.377,9.791,0
1040,35.516,-97.516,345.4,10.12,3,325,-0.386,0.404,9.918,0
1041,35.516,-97.516,345.5,9.7803,3,325,-0.205,0.098,9.41,0
1042,35.516,-97.517,345.4,9.5309,3,324,-0.687,-0.481,9.497,0
1043,35.516,-97.517,345.2,9.8606,3,324,-1.086,-0.674,9.788,0
1044,35.516,-97.517,344.8,10.5,3,324,-0.205,0.199,10.03,0
1045,35.516,-97.517,344.5,10.55,3,324,0.051,0.791,9.974,0
1046,35.516,-97.517,344.5,10.012,3,324,0.516,1.336,10.031,0
1047,35.516,-97.517,344.7,8.5643,3,323,0.419,1.352,9.981,0
1048,35.517,-97.517,344.7,7.0516,3,323,0.578,1.333,9.916,0
1049,35.517,-97.517,345.1,5.3402,3,323,0.129,0.921,9.827,0
