time,lat,lng,bearing,spd,acc,alt,accx,accy,accz,stable,
0,35.392,-97.5,269.6,24.49,3,366,0.006,3.74,9.279,0
1,35.392,-97.5,269.8,24.75,3,366,0.018,3.614,9.335,0
2,35.392,-97.5,269.8,25.09,3,367,-0.111,3.86,9.01,0
3,35.392,-97.501,269.9,25.67,3,367,0.001,4.227,9.335,0
4,35.392,-97.501,270,26.41,3,367,-0.117,3.478,9.307,0
5,35.392,-97.501,270.1,26.4,3,366,-0.063,3.279,9.406,0
6,35.392,-97.501,269.8,26.22,3,365,-0.097,3.086,9.195,0
7,35.392,-97.502,269.8,26.09,3,365,-0.218,2.991,9.343,0
8,35.392,-97.502,269.7,25.841,3,365,-0.091,3.136,9.164,0
9,35.392,-97.502,269.5,25.622,3,364,-0.165,3.003,9.273,0
10,35.392,-97.503,269.5,25.442,3,364,0.006,2.995,9.272,0
11,35.392,-97.503,269.6,25.252,3,364,0.047,2.912,9.648,0
12,35.392,-97.503,269.8,25.062,3,364,0.002,3.04,9.495,0
13,35.392,-97.503,269.9,24.932,3,364,-0.227,3.435,9.247,0
14,35.392,-97.504,269.9,25.162,3,364,-0.074,3.722,9.417,0
15,35.392,-97.504,270,25.702,3,364,-0.054,3.767,9.434,0
16,35.392,-97.504,270.1,26.212,3,363,-0.198,3.575,9.587,0
17,35.392,-97.505,269.9,26.652,3,363,-0.182,3.459,9.29,0
18,35.392,-97.505,269.7,26.902,3,362,0.036,3.334,9.411,0
19,35.392,-97.505,270,26.841,3,361,0.145,3.153,9.706,0
20,35.392,-97.505,270.7,26.71,3,362,-0.197,3.366,9.256,0
21,35.392,-97.506,270.7,26.661,3,361,-0.412,3.609,9.327,0
22,35.392,-97.506,270.1,26.891,3,361,-0.165,3.316,9.298,0
23,35.392,-97.506,269.8,26.82,3,360,-0.071,3.263,9.12,0
24,35.392,-97.507,270,26.691,3,360,-0.108,3.16,9.129,0
25,35.392,-97.507,269.5,27.212,3,359,-0.059,2.997,9.381,0
26,35.392,-97.507,269.6,26.78,4,359,-0.223,3.02,9.429,0
27,35.392,-97.507,269.5,26.06,3,359,-0.139,2.9,9.568,0
28,35.392,-97.508,269.4,25.74,3,360,-0.007,3.01,9.476,0
29,35.392,-97.508,269.6,25.37,3,361,-0.052,3.332,9.187,0
30,35.392,-97.508,269.7,25.26,3,361,-0.241,3.602,9.197,0
31,35.392,-97.509,269.8,25.19,3,361,-0.117,3.456,9.599,0
32,35.392,-97.509,269.8,25.15,3,362,-0.037,3.436,9.696,0
33,35.392,-97.509,269.7,25.161,3,363,-0.118,3.502,9.493,0
35,35.392,-97.509,269.8,25.17,3,363,-0.11,3.422,9.364,0
36,35.392,-97.51,269.7,25.14,3,363,-0.137,3.435,9.609,0
37,35.392,-97.51,269.6,25.041,3,363,-0.046,3.443,9.478,0
38,35.392,-97.51,269.5,24.932,3,364,0.243,3.281,9.373,0
39,35.392,-97.511,269.4,24.783,3,365,-0.112,3.382,9.374,0
40,35.392,-97.511,269.8,24.562,3,365,-0.135,3.516,9.086,0
41,35.392,-97.511,269.9,24.393,3,366,0.054,3.4,9.147,0
42,35.392,-97.511,270.2,24.243,3,366,-0.233,3.573,8.978,0
43,35.392,-97.512,270.2,24.111,3,366,-0.255,3.695,8.814,0
44,35.392,-97.512,269.9,24.141,3,366,-0.366,3.715,9.489,0
45,35.392,-97.512,269.7,24.521,3,366,0.087,3.603,9.089,0
46,35.392,-97.512,269.3,24.76,9,366,0.001,3.618,9.382,0
47,35.392,-97.513,269,25.01,9,367,-0.224,3.652,9.609,0
48,35.392,-97.513,268.7,25.32,9,366,0.322,3.554,9.022,0
49,35.392,-97.513,268.9,25.63,9,365,-0.009,3.532,9.321,0
50,35.392,-97.514,269.4,26.001,9,364,0.197,3.035,9.424,0
51,35.392,-97.514,269.5,26.123,9,364,0.15,2.945,9.044,0
52,35.392,-97.514,269.5,25.974,9,363,0.08,2.975,9.149,0
53,35.392,-97.514,269.1,25.925,9,362,-0.101,3.323,9.318,0
54,35.392,-97.515,269.4,26.043,9,361,-0.131,3.353,9.84,0
55,35.392,-97.515,267.9,26.274,3,360,0.021,3.253,9.648,0
56,35.392,-97.515,267.1,26.422,3,359,-0.068,3.427,9.417,0
57,35.392,-97.516,266.3,26.46,3,359,-0.223,3.678,9.374,0
58,35.392,-97.516,264.4,26.79,3,358,-0.093,3.6,9.133,0
59,35.392,-97.516,263.4,27.09,3,358,-0.05,3.549,9.384,0
60,35.392,-97.517,262.6,27.55,3,358,0.303,3.815,9.196,0
61,35.392,-97.517,262.4,27.99,3,358,0.292,3.644,9.2,0
62,35.392,-97.517,262.1,28.59,3,357,0.066,3.648,9.213,0
63,35.392,-97.518,261.9,29.071,3,357,-0.168,3.651,9.185,0
64,35.392,-97.518,261.9,29.48,3,357,-0.009,3.78,9.417,0
65,35.392,-97.518,261.8,29.92,3,356,0.019,3.521,9.543,0
66,35.392,-97.519,262,29.85,3,357,0.069,3.152,9.581,0
67,35.392,-97.519,262.1,29.401,3,357,0.066,3.223,9.87,0
68,35.392,-97.519,262.3,28.942,3,358,0.285,3.126,9.809,0
69,35.392,-97.52,263,28.365,3,360,0.49,3.035,9.552,0
70,35.392,-97.52,264.4,27.806,3,360,0.449,3.07,9.131,0
71,35.392,-97.52,265.5,27.334,3,362,0.334,3.174,9.407,0
72,35.392,-97.52,266.3,27.062,3,363,0.281,3.424,9.188,0
73,35.391,-97.521,267,26.971,3,364,0.39,3.138,9.251,0
74,35.391,-97.521,267.6,26.86,3,365,0.363,3.275,8.679,0
75,35.391,-97.521,268.4,26.83,3,364,0.319,3.46,8.942,0
76,35.391,-97.522,269.2,27.07,3,364,0.067,3.254,9.884,0
77,35.391,-97.522,269.9,27.01,3,363,0.087,3.04,9.243,0
78,35.391,-97.522,270.2,26.771,3,363,-0.008,2.931,9.169,0
79,35.391,-97.523,270.2,26.603,3,362,-0.115,3.126,8.933,0
80,35.391,-97.523,270,26.575,3,362,0.039,2.967,9.644,0
81,35.391,-97.523,270,26.497,3,361,-0.212,2.946,9.122,0
82,35.391,-97.523,269.9,26.438,3,360,-0.124,3.049,9.324,0
83,35.391,-97.524,269.7,26.428,3,359,0.059,2.965,9.458,0
84,35.391,-97.524,269.8,26.458,3,358,-0.042,3.158,9.26,0
85,35.391,-97.524,269.8,26.618,3,357,-0.064,3.227,9.495,0
86,35.391,-97.525,269.8,26.865,3,357,0.216,3.382,9.543,0
87,35.391,-97.525,270.1,27.123,3,355,-0.121,3.285,9.507,0
88,35.391,-97.525,269.9,27.282,3,355,0.04,3.521,9.346,0
89,35.391,-97.525,269.4,27.354,3,354,-0.242,3.33,9.582,0
90,35.391,-97.526,269.7,27.43,3,354,-0.029,1.059,10.048,0
91,35.391,-97.526,269.9,25.13,3,354,0.079,1.806,9.771,0
92,35.391,-97.526,270.3,22.92,3,355,-0.139,3.419,9.384,0
93,35.391,-97.527,270,22.751,3,355,0.25,3.827,9.546,0
94,35.391,-97.527,269.6,23.002,3,355,0.124,3.721,9.246,0
95,35.391,-97.527,270.1,23.162,3,356,0.164,3.329,9.407,0
96,35.391,-97.527,270.2,22.984,3,357,-0.102,3.462,9.665,0
97,35.391,-97.528,270.9,22.571,3,358,-0.139,3.393,9.67,0
98,35.391,-97.528,271,22.201,3,358,-0.134,3.429,9.342,0
100,35.391,-97.528,270.2,21.766,3,359,0.229,3.714,9.114,0
101,35.391,-97.528,270.1,21.546,3,360,0.904,4.772,8.719,0
102,35.391,-97.529,272.3,22.071,3,360,0.048,4.686,9.058,0
103,35.391,-97.529,273.1,23.543,3,361,-0.668,4.93,9.074,0
104,35.392,-97.529,272.5,24.892,3,362,-0.758,5.081,8.805,0
105,35.392,-97.529,271.1,26.441,3,361,-0.168,3.934,9.145,0
106,35.392,-97.53,270,27.59,3,362,0.101,3.419,9.197,0
107,35.392,-97.53,269.8,27.79,3,362,0.205,3.073,9.257,0
108,35.392,-97.53,270.1,27.41,3,363,-0.21,2.757,9.797,0
109,35.392,-97.531,270.1,27.05,3,363,0.086,2.725,9.164,0
110,35.392,-97.531,269.9,26.711,3,362,-0.273,3.159,9.306,0
111,35.392,-97.531,270.3,26.462,3,362,-0.121,3.227,9.405,0
112,35.392,-97.531,270,26.573,3,361,-0.083,3.499,9.461,0
113,35.392,-97.532,270,26.994,3,360,0.076,3.292,9.647,0
114,35.392,-97.532,269.9,27.463,3,359,-0.142,3.311,9.502,0
115,35.392,-97.532,269.9,27.411,3,359,-0.1,3.374,9.383,0
116,35.392,-97.533,269.8,27.28,3,359,-0.1,3.448,9.316,0
117,35.392,-97.533,269.8,27.28,3,359,-0.06,3.269,9.33,0
118,35.392,-97.533,269.9,27.25,3,359,0.227,3.368,9.303,0
119,35.392,-97.534,269.8,27.17,3,359,0.332,3.252,9.345,0
120,35.392,-97.534,270.2,26.93,3,360,-0.13,3.163,9.212,0
121,35.392,-97.534,270.1,26.66,3,361,0.005,2.976,9.088,0
122,35.392,-97.535,270.3,26.24,3,361,-0.012,2.953,9.459,0
123,35.392,-97.535,270.4,25.83,3,361,-0.269,3.081,9.628,0
124,35.392,-97.535,270.1,25.52,3,361,-0.132,3.405,9.473,0
125,35.392,-97.536,270,25.48,3,361,-0.097,3.329,9.245,0
126,35.392,-97.536,269.9,25.39,3,361,-0.06,3.338,9.437,0
127,35.392,-97.536,269.8,25.29,3,362,-0.148,3.242,9.19,0
128,35.392,-97.536,269.9,25.13,3,362,0.001,3.438,9.258,0
129,35.392,-97.537,269.9,25.09,3,361,-0.039,3.498,8.996,0
130,35.392,-97.537,269.9,25.11,3,362,0.031,3.507,9.11,0
131,35.392,-97.537,269.8,25.11,3,362,-0.08,3.563,9.603,0
132,35.392,-97.538,269.9,25.06,3,361,-0.115,3.554,9.564,0
133,35.392,-97.538,269.9,25.031,3,362,0.107,3.647,9.652,0
134,35.392,-97.538,270,25.112,3,363,0.002,3.604,9.316,0
135,35.392,-97.538,270,25.302,3,363,0.072,3.737,9.124,0
136,35.392,-97.539,269.9,25.441,3,363,-0.053,3.796,9.259,0
137,35.392,-97.539,269.8,25.622,3,363,0.131,3.681,9.179,0
138,35.392,-97.539,269.9,25.812,3,364,0.117,3.575,9.073,0
139,35.392,-97.539,270.2,25.97,3,364,0.139,3.25,9.383,0
140,35.392,-97.54,270.6,25.76,3,364,-0.051,3.145,9.082,0
141,35.392,-97.54,270.1,25.46,3,364,-0.098,3.229,9.299,0
142,35.392,-97.54,269.9,25.38,3,364,0.083,3.399,9.395,0
143,35.392,-97.541,269.9,25.46,3,365,-0.021,3.601,9.419,0
144,35.392,-97.541,269.8,25.81,3,365,0.056,3.621,9.428,0
145,35.392,-97.541,269.9,26.06,3,366,-0.132,3.654,9.199,0
146,35.392,-97.541,270,26.23,3,366,-0.029,3.663,9.131,0
147,35.392,-97.542,270,26.52,3,366,-0.05,3.835,9.272,0
148,35.392,-97.542,269.9,26.9,3,366,-0.083,3.792,9.042,0
149,35.392,-97.542,269.8,27.32,9,366,-0.046,3.728,9.274,0
150,35.392,-97.543,269.9,27.7,9,366,-0.051,3.714,9.274,0
151,35.392,-97.543,270.1,28.08,9,366,-0.044,3.713,9.275,0
152,35.392,-97.543,270,28.43,9,366,0.009,3.527,9.263,0
154,35.392,-97.544,269.8,28.81,9,366,-0.091,3.761,9.326,0
155,35.392,-97.544,269.8,29.07,9,366,0.074,3.755,9.581,0
156,35.392,-97.544,269.8,29.32,9,366,-0.12,3.402,9.683,0
157,35.392,-97.545,270,29.301,9,367,-0.026,3.194,9.803,0
158,35.392,-97.545,270.1,28.872,9,368,0.035,3.34,9.885,0
159,35.392,-97.545,270,28.304,9,368,0.067,3.294,9.38,0
160,35.392,-97.546,270.1,27.975,9,369,-0.041,3.697,9.243,0
161,35.392,-97.546,270.1,27.806,9,370,-0.136,3.643,9.341,0
162,35.392,-97.546,270.4,27.662,9,371,-0.017,3.522,9.119,0
163,35.392,-97.546,270.2,27.594,9,372,-0.115,3.649,9.064,0
164,35.392,-97.547,270.2,27.483,9,372,-0.148,3.542,9.133,0
165,35.392,-97.547,270.2,27.472,9,372,-0.208,3.288,9.461,0
166,35.392,-97.547,270.1,27.561,9,373,-0.126,3.032,9.311,0
167,35.392,-97.548,269.8,27.371,9,373,-0.098,2.962,9.823,0
168,35.392,-97.548,269.7,27.04,9,373,0.042,2.962,9.438,0
169,35.392,-97.548,269.8,26.69,9,374,0.175,3.032,9.29,0
170,35.392,-97.548,269.9,26.34,9,372,-0.049,3.258,9.332,0
171,35.392,-97.549,270.1,26.151,9,372,-0.245,3.312,9.105,0
172,35.392,-97.549,270.1,26.202,9,372,-0.072,3.178,9.24,0
173,35.392,-97.549,270.1,26.294,9,371,-0.049,3.259,9.807,0
174,35.392,-97.55,270,26.474,9,370,-0.09,3.265,9.638,0
175,35.392,-97.55,269.8,26.62,9,369,-0.005,3.293,9.554,0
176,35.392,-97.551,269.7,26.72,9,368,0.005,3.645,9.269,0
177,35.392,-97.551,269.8,27.05,9,368,0.163,3.848,9.394,0
178,35.392,-97.551,269.9,27.48,9,368,0.044,3.92,9.131,0
179,35.392,-97.551,270.2,27.95,9,367,0.091,3.756,9.377,0
180,35.392,-97.552,270.5,28.321,9,367,0.136,3.85,9.262,0
181,35.392,-97.552,271.1,28.76,9,367,0.513,3.86,9.159,0
182,35.392,-97.552,272.4,29.15,9,367,0.789,3.698,9.257,0
183,35.392,-97.553,274.3,29.54,9,367,0.865,3.711,9.208,0
184,35.392,-97.553,276.2,29.85,9,367,0.602,3.168,9.643,0
185,35.392,-97.553,277.7,29.71,9,368,0.513,3.38,9.319,0
186,35.392,-97.554,278.7,29.78,9,368,0.601,3.233,9.47,0
187,35.392,-97.554,279.8,29.81,9,367,0.564,2.945,9.489,0
188,35.392,-97.554,281.3,29.27,9,367,0.546,2.994,9.192,0
189,35.392,-97.555,282.9,28.95,9,367,0.207,3.168,9.638,0
190,35.392,-97.555,283.7,28.69,9,367,-0.044,3.176,9.451,0
191,35.392,-97.555,283.9,28.52,9,367,-0.016,3.307,9.64,0
192,35.392,-97.556,284,28.54,9,367,-0.009,3.312,9.142,0
193,35.392,-97.556,284,28.52,9,367,-0.063,3.366,9.175,0
194,35.392,-97.556,284.1,28.46,9,366,-0.134,3.364,9.31,0
195,35.392,-97.556,284.1,28.48,9,366,-0.036,3.356,9.083,0
196,35.392,-97.557,284.1,28.5,9,366,0.069,3.327,9.039,0
197,35.392,-97.557,283.9,28.56,9,365,0.14,3.359,9.299,0
198,35.392,-97.557,284.2,28.57,9,365,-0.052,3.273,9.167,0
199,35.392,-97.558,284.4,28.57,9,365,-0.021,3.291,9.416,0
200,35.393,-97.558,284.2,28.61,9,363,-0.172,3.287,9.405,0
201,35.393,-97.558,284.2,28.58,9,364,0.017,3.197,9.3,0
202,35.393,-97.559,284.1,28.62,9,364,-0.06,3.462,9.473,0
203,35.393,-97.559,283.9,28.64,9,363,-0.079,3.471,9.093,0
204,35.393,-97.559,283.7,28.68,9,363,-0.047,3.373,9.399,0
205,35.393,-97.56,283.8,28.73,9,362,0.028,3.535,9.685,0
206,35.393,-97.56,283.9,28.73,9,362,-0.202,2.994,9.35,0
207,35.393,-97.56,283.9,28.44,9,362,-0.153,3.128,9.478,0
208,35.393,-97.56,284.1,28.05,9,362,-0.055,3.501,9.423,0
209,35.393,-97.561,284,28.13,9,362,-0.041,3.736,9.387,0
210,35.393,-97.561,283.8,28.48,9,362,-0.011,3.763,9.367,0
211,35.393,-97.561,284.1,28.76,9,363,-0.103,3.808,9.552,0
212,35.393,-97.562,283.9,29.2,9,363,0.163,3.902,9.504,0
214,35.393,-97.562,284.1,29.53,9,363,0.087,3.753,9.324,0
215,35.393,-97.562,284.1,29.861,9,364,-0.063,3.784,9.546,0
216,35.393,-97.563,283.7,30.251,9,365,-0.124,3.757,9.498,0
217,35.394,-97.563,284.2,30.343,9,366,-0.208,3.749,9.493,0
218,35.394,-97.563,284.1,30.443,9,367,-0.105,3.785,9.364,0
219,35.394,-97.564,284.3,30.671,9,368,0.082,3.67,9.02,0
220,35.394,-97.564,284.2,30.763,9,369,-0.085,3.725,9.349,0
221,35.394,-97.564,284.4,30.951,9,369,-0.103,3.125,9.517,0
222,35.394,-97.565,284.3,30.683,9,371,-0.034,3.038,9.393,0
223,35.394,-97.565,284.3,30.151,9,371,-0.155,2.987,9.276,0
224,35.394,-97.565,284.2,29.581,9,372,-0.325,2.879,9.605,0
225,35.394,-97.566,284.3,29.18,9,373,-0.239,2.913,9.023,0
226,35.394,-97.566,283.9,28.74,9,373,-0.101,3.202,9.415,0
227,35.394,-97.566,283.9,28.49,9,372,0.166,3.123,9.114,0
228,35.394,-97.566,283.7,28.431,9,371,-0.076,3.382,9.152,0
229,35.394,-97.567,284,28.503,9,371,-0.037,3.352,9.28,0
230,35.394,-97.567,284.1,28.624,9,371,-0.052,3.444,9.096,0
231,35.394,-97.567,284.1,28.883,9,369,-0.088,3.441,9.308,0
232,35.394,-97.568,284,29.333,9,368,0.061,3.763,9.391,0
233,35.395,-97.568,283.8,29.764,9,367,0.164,3.765,9.528,0
234,35.395,-97.568,284,30.331,9,367,-0.049,3.286,9.413,0
235,35.395,-97.569,284.4,30.541,9,366,-0.065,3.058,9.645,0
236,35.395,-97.569,284.2,30.23,9,365,-0.191,3.261,9.294,0
237,35.395,-97.57,284.1,30.081,9,366,0.023,3.43,9.047,0
238,35.395,-97.57,284.3,30.201,9,367,0.032,3.653,9.306,0
239,35.395,-97.57,284.3,30.131,9,368,-0.013,3.265,9.306,0
240,35.395,-97.571,284.4,29.79,9,369,-0.226,3.011,8.168,0
241,35.395,-97.571,284.2,29.421,9,370,-0.226,2.4,8.755,0
242,35.395,-97.571,284.6,28.941,9,370,0.148,3.189,9.403,0
243,35.395,-97.571,284.7,28.541,9,370,0.561,3.329,9.49,0
244,35.395,-97.572,285.3,28.301,9,370,0.89,2.972,9.064,0
245,35.395,-97.572,286.6,27.861,9,370,1.11,3.04,9.562,0
246,35.396,-97.572,288.5,27.72,9,370,0.985,3.685,9.636,0
247,35.396,-97.573,291.2,27.64,9,371,0.677,3.468,9.623,0
248,35.396,-97.573,292.7,27.6,9,370,0.658,3.067,9.572,0
249,35.396,-97.573,294.8,27.67,9,370,0.475,3.288,8.905,0
250,35.396,-97.573,296.6,27.69,9,370,0.624,3.447,9.131,0
251,35.396,-97.574,298.5,27.71,9,370,0.471,3.398,9.016,0
252,35.396,-97.574,300.4,27.83,3,370,0.768,3.111,9.614,0
253,35.396,-97.574,302.2,27.62,3,369,0.708,3.131,9.894,0
254,35.396,-97.575,304.3,27.06,3,369,0.642,3.371,9.099,0
255,35.397,-97.575,305.3,27.31,3,369,-0.015,3.203,9.642,0
256,35.397,-97.575,307.4,26.4,3,369,0.615,3.12,9.1,0
257,35.397,-97.575,309,26.42,4,368,0.393,2.986,9.093,0
258,35.397,-97.575,310.6,26.01,5,368,0.392,2.943,9.564,0
259,35.397,-97.576,312.5,25.94,5,368,0.56,3.678,9.187,0
260,35.397,-97.576,313.3,26.14,5,368,0.813,3.853,9.425,0
261,35.398,-97.576,318,26.54,3,367,1.192,3.342,9.399,0
262,35.398,-97.576,321.6,26.79,3,367,1.266,2.94,9.811,0
263,35.398,-97.576,325.3,26.74,3,367,1.217,3.047,9.481,0
264,35.398,-97.577,328.7,26.39,3,367,1.028,3.155,9.986,0
265,35.398,-97.577,332.3,26.52,3,366,1.265,3.185,9.361,0
266,35.399,-97.577,335.9,26.33,3,366,0.849,2.924,9.513,0
267,35.399,-97.577,338.9,25.93,3,366,0.768,3.044,9.725,0
268,35.399,-97.577,342.1,25.94,3,366,1.086,3.284,9.662,0
269,35.399,-97.577,345.8,25.67,3,366,1.414,3.285,9.398,0
271,35.399,-97.577,350.1,25.49,3,367,1.526,3.543,10.096,0
272,35.4,-97.577,354.6,25.75,3,366,2.322,3.199,9.218,0
273,35.4,-97.577,0.2,25.531,3,365,1.804,3.038,9.419,0
274,35.4,-97.577,5.5,25.38,3,365,1.261,3.201,9.132,0
275,35.4,-97.577,9.8,25.12,3,364,1.063,2.508,9.786,0
276,35.401,-97.577,12.8,24.981,3,364,1.861,3.025,9.526,0
277,35.401,-97.577,17.2,24.961,3,364,1.81,3.112,9.967,0
278,35.401,-97.577,19.8,24.57,3,363,0.837,3.127,9.4,0
279,35.401,-97.577,24.7,24.601,3,363,-0.018,2.951,9.421,0
280,35.401,-97.577,23.3,24.121,3,362,-0.732,3.074,9.718,0
281,35.402,-97.576,22.4,24.02,4,362,-1.487,3.059,9.595,0
282,35.402,-97.576,19.9,24.58,4,362,-1.098,3.243,9.681,0
283,35.402,-97.576,11,23.4,3,362,-0.467,3.225,9.845,0
284,35.402,-97.576,7.2,22.95,3,362,-0.597,4.013,9.476,0
285,35.402,-97.576,2.9,23.25,3,362,-1.496,4.199,9.593,0
286,35.403,-97.576,0.1,23.941,3,361,-0.73,3.933,8.778,0
287,35.403,-97.576,355.3,24.31,3,361,0.479,3.45,9.072,0
288,35.403,-97.576,355,24.69,3,362,0.851,3.31,9.399,0
289,35.403,-97.576,357,24.61,3,362,0.982,3.368,9.106,0
290,35.404,-97.576,359.7,24.32,3,362,0.783,3.039,9.573,0
291,35.404,-97.576,3.1,23.9,3,361,0.029,3.356,9.131,0
292,35.404,-97.576,2.8,23.82,3,361,-0.079,3.061,8.981,0
293,35.404,-97.576,2.5,23.6,3,361,0.349,3.086,9.401,0
294,35.405,-97.576,2.5,23.36,3,360,0.524,3.091,9.286,0
295,35.405,-97.576,2.9,23.05,3,359,0.254,3.045,9.572,0
296,35.405,-97.576,3,22.51,3,359,0.161,1.736,9.86,0
297,35.405,-97.576,3.5,20.81,3,359,0.072,1.366,9.868,0
298,35.405,-97.576,4.1,18.75,3,359,0.062,1.337,9.694,0
299,35.406,-97.576,5.3,16.99,3,358,0.407,1.402,9.633,0
300,35.406,-97.576,7.6,15.17,3,358,0.367,1.415,9.803,0
301,35.406,-97.576,9.1,13.3,3,358,0.247,1.311,9.615,0
302,35.406,-97.576,10.9,11.86,3,358,0.066,0.786,9.849,0
303,35.406,-97.576,11.8,8.53,3,358,-0.246,0.821,9.89,0
304,35.406,-97.576,11.8,6.15,3,358,-0.303,1.527,9.898,0
305,35.406,-97.576,12.1,4.3306,3,359,-0.278,1.924,9.78,0
306,35.406,-97.576,12.1,2.8901,3,359,-0.246,2.297,9.618,0
307,35.406,-97.576,12.1,1.77,3,359,-0.213,2.73,9.512,0
308,35.406,-97.576,12.1,1.77,3,359,-0.191,3.26,9.41,0
309,35.406,-97.576,12,0.97005,3,359,-0.175,3.586,9.283,0
310,35.406,-97.576,12,1.2202,3,359,-0.203,4.062,9.15,0
311,35.406,-97.576,11.4,2.0704,3,360,0.001,5.197,8.982,0
312,35.406,-97.576,12.1,4.14,3,360,-0.132,5.175,8.851,0
313,35.406,-97.576,11.9,5.8201,3,360,-0.098,4.881,8.951,0
314,35.406,-97.576,12.5,7.17,3,360,-0.055,3.894,9.224,0
315,35.406,-97.576,12.9,7.5202,3,360,-0.047,3.816,9.262,0
316,35.406,-97.576,13.6,7.5304,3,359,0.188,3.343,9.321,0
317,35.406,-97.576,14,7.4902,3,359,-0.054,3.41,9.441,0
318,35.407,-97.576,13.4,7.33,3,359,-0.732,3.598,9.541,0
319,35.407,-97.576,6.3,6.8509,3,359,-1.873,4.204,9.407,0
320,35.407,-97.576,351.7,7.0103,3,359,-2.427,3.319,9.528,0
321,35.407,-97.576,330.2,7.082,3,359,-2.305,3.076,9.71,0
322,35.407,-97.576,310.6,6.5505,3,359,-1.907,3.973,9.421,0
323,35.407,-97.576,292.3,7.5724,3,358,-1.04,4.234,9.289,0
324,35.407,-97.576,284.5,8.42,3,360,-0.315,4.222,9.323,0
325,35.407,-97.576,282.7,9.31,3,360,-0.055,4.375,8.88,0
326,35.407,-97.576,282.1,10.19,3,360,0.062,4.323,8.841,0
327,35.407,-97.577,282.2,11.26,3,359,0.125,4.331,8.824,0
328,35.407,-97.577,282.5,12.23,3,359,0.095,4.18,9.4,0
329,35.407,-97.577,283,12.881,3,359,-0.158,3.982,9.04,0
330,35.407,-97.577,280.5,13.071,4,360,0.103,4.172,8.987,0
332,35.407,-97.577,282,14.91,4,360,-0.135,4.201,8.836,0
333,35.407,-97.577,283.5,14.962,4,360,-0.098,3.679,9.468,0
334,35.407,-97.577,282,15.81,3,359,0.062,3.776,9.329,0
335,35.407,-97.578,282.2,16.23,3,360,-0.148,3.635,9.254,0
336,35.407,-97.578,282,16.51,3,360,-0.125,3.534,9.326,0
337,35.407,-97.578,281.6,16.81,3,360,0.422,3.265,9.26,0
338,35.407,-97.578,282.2,16.99,3,360,0.35,3.518,9.429,0
339,35.407,-97.578,283.8,16.99,3,360,0.505,3.895,9.528,0
340,35.407,-97.579,285.5,17.48,3,360,0.956,3.339,9.541,0
341,35.407,-97.579,289.5,17.89,3,360,1.37,3.372,9.827,0
342,35.407,-97.579,293.3,17.78,3,360,1.756,3.119,9.088,0
343,35.407,-97.579,300.3,17.57,3,359,1.219,3.002,9.313,0
344,35.408,-97.579,306,17.38,3,359,0.967,2.92,9.435,0
345,35.408,-97.579,309.8,17.15,3,358,0.911,2.875,9.538,0
346,35.408,-97.58,313.6,16.88,3,359,1.011,2.837,9.716,0
347,35.408,-97.58,317.4,16.56,3,360,1.06,2.933,9.221,0
348,35.408,-97.58,321.3,16.27,3,359,1.377,2.93,9.398,0
349,35.408,-97.58,325.4,15.96,3,359,1.232,2.92,9.378,0
350,35.408,-97.58,330.3,15.64,3,360,1.203,3.157,9.174,0
351,35.408,-97.58,333.8,15.43,3,360,1.173,3.004,9.382,0
352,35.408,-97.58,338.2,15.34,3,360,0.646,3.521,9.482,0
353,35.409,-97.58,341.3,15.16,3,360,0.42,3.563,9.403,0
354,35.409,-97.58,342.9,15.42,3,360,0.138,3.307,9.429,0
355,35.409,-97.58,342.7,15.34,3,360,-0.114,3.394,9.235,0
356,35.409,-97.58,342.3,15.13,3,360,-0.091,3.328,9.444,0
357,35.409,-97.58,342.1,15.01,3,360,0.045,3.337,9.45,0
358,35.409,-97.58,342.2,14.96,3,360,0.095,3.506,9.513,0
359,35.409,-97.58,342.5,14.95,3,360,0.109,3.508,9.331,0
360,35.41,-97.581,342.6,15.05,3,360,0.111,3.786,9.295,0
361,35.41,-97.581,342.1,15.3,3,360,0.096,3.69,9.4,0
362,35.41,-97.581,341.4,15.53,3,360,0.409,3.682,9.114,0
363,35.41,-97.581,341.4,15.81,3,360,0.451,3.631,9.505,0
364,35.41,-97.581,341.6,16.071,3,360,0.375,3.598,9.368,0
365,35.41,-97.581,341,16.11,3,360,-0.093,3.588,9.299,0
366,35.41,-97.581,337.3,16.29,3,361,-0.659,3.422,9.616,0
367,35.411,-97.581,332.6,16.18,3,361,-0.506,3.192,9.674,0
368,35.411,-97.581,328,15.78,3,361,-0.153,3.208,9.482,0
369,35.411,-97.581,324.1,15.52,3,361,0.005,3.05,9.706,0
370,35.411,-97.581,320.4,15.21,3,361,-0.178,2.995,9.637,0
371,35.411,-97.581,317.1,14.77,3,361,-0.206,2.898,9.56,0
372,35.411,-97.582,313.2,14.23,3,359,0.152,1.915,9.662,0
373,35.411,-97.582,310.5,12.74,3,359,0.186,2.516,9.611,0
374,35.411,-97.582,307.5,11.85,3,358,0.228,2.991,9.262,0
375,35.411,-97.582,303.8,11.5,3,359,0.206,3.074,9.253,0
376,35.411,-97.582,300.7,11.21,3,359,0.334,2.954,9.434,0
377,35.411,-97.582,297.8,10.93,3,357,0.193,2.9,9.629,0
378,35.411,-97.582,295.2,10.69,3,357,0.175,2.594,9.562,0
379,35.411,-97.582,292.5,10.13,3,357,0.165,2.512,9.244,0
380,35.411,-97.582,290.8,9.09,3,357,0.174,2.386,9.534,0
381,35.412,-97.582,290.2,8.2103,3,357,0.062,1.914,9.681,0
382,35.412,-97.582,286.3,6.69,3,358,0.091,2.088,9.726,0
383,35.412,-97.583,284.4,5.5,3,358,0.247,2.359,9.757,0
384,35.412,-97.583,285.3,4.4355,3,358,0.147,2.394,9.656,0
385,35.412,-97.583,282.1,3.7113,3,357,0.15,2.723,9.479,0
386,35.412,-97.583,282.7,2.8221,3,356,0.121,2.887,9.497,0
387,35.412,-97.583,279.6,2.2901,3,357,0.126,3.107,9.458,0
388,35.412,-97.583,280,1.94,3,357,0.199,3.107,9.428,0
389,35.412,-97.583,280,1.6801,3,358,0.201,3.002,9.389,0
390,35.412,-97.583,279.7,1.29,3,358,0.124,2.716,9.535,0
391,35.412,-97.583,279.7,1.29,3,358,0.162,3.171,9.427,0
392,35.412,-97.583,279.7,1.29,3,358,0.134,3.375,9.39,1
393,35.412,-97.583,279.7,1.29,3,358,0.18,3.438,9.299,1
395,35.412,-97.583,279.7,1.29,3,358,0.151,3.44,9.326,1
396,35.412,-97.583,279.7,1.29,3,358,0.167,3.445,9.364,1
397,35.412,-97.583,279.7,1.29,3,358,0.141,3.427,9.358,1
398,35.412,-97.583,0,0,3,358,0.155,3.431,9.368,1
399,35.412,-97.583,0,0,3,358,0.19,3.59,9.26,1
400,35.412,-97.583,0,0,3,358,0.155,3.776,9.29,0
401,35.412,-97.583,0,0,3,358,0.142,3.505,9.334,0
402,35.412,-97.583,279.7,0.53009,4,359,0.137,3.53,9.307,0
403,35.412,-97.583,279.7,0.53009,4,359,0.121,3.699,9.274,0
404,35.412,-97.583,279.7,0.53009,4,359,0.119,3.902,9.164,0
405,35.412,-97.583,279.7,1.14,3,360,0.166,4.966,8.915,0
406,35.412,-97.583,277.2,2.48,3,361,0.116,5.15,8.911,0
407,35.412,-97.583,276.5,4.15,3,359,-0.121,5.191,8.729,0
408,35.412,-97.583,274.6,5.8103,3,359,-0.087,4.889,8.979,0
409,35.412,-97.583,272.1,7.3507,3,360,0.03,4.208,9.171,0
410,35.412,-97.583,271.3,8.39,3,360,-0.135,4.258,9.069,0
411,35.412,-97.583,270.7,9.1802,3,360,-0.012,4.365,8.955,0
412,35.412,-97.583,269.9,9.9704,3,360,0.024,4.231,8.956,0
413,35.412,-97.583,269.9,10.68,3,361,0.135,4.129,9.251,0
414,35.412,-97.584,270,11.38,3,362,-0.02,4.395,9.19,0
415,35.412,-97.584,269.9,12.17,3,362,0.048,4.326,9.399,0
416,35.412,-97.584,269.8,13.01,3,363,0.096,4.054,9.737,0
417,35.412,-97.584,269.5,14.44,3,364,-0.077,4.245,9.337,0
418,35.412,-97.584,269.3,15.001,3,365,-0.058,3.601,9.291,0
419,35.412,-97.584,269.2,14.991,3,366,0.034,3.669,9.35,0
420,35.412,-97.585,269.7,15.08,3,366,0.128,3.662,9.322,0
421,35.412,-97.585,269.7,15.19,3,367,0.092,3.696,9.494,0
422,35.412,-97.585,269.3,15.373,3,368,0.131,3.916,9.178,0
423,35.412,-97.585,269.5,15.701,3,368,0.138,3.886,9.234,0
424,35.412,-97.585,269.7,15.911,3,368,0.183,3.824,9.18,0
425,35.412,-97.585,270.2,16.092,3,369,0.008,3.671,9.404,0
426,35.412,-97.586,270,16.242,3,369,0.183,3.603,9.315,0
427,35.412,-97.586,270,16.372,3,370,0.14,3.688,9.367,0
428,35.412,-97.586,270.2,16.591,3,371,0.079,3.973,9.197,0
429,35.412,-97.586,270.2,16.982,3,371,0.129,4.012,9.081,0
430,35.412,-97.586,270.5,17.441,3,373,0.11,4.038,9.042,0
431,35.412,-97.587,270.2,17.781,3,373,0.028,3.973,9.292,0
432,35.412,-97.587,270.1,18.142,3,373,-0.015,4.01,9.172,0
433,35.412,-97.587,270.1,18.511,3,373,0.084,3.865,9.247,0
434,35.412,-97.587,270.3,18.841,3,373,0.071,3.851,9.099,0
435,35.412,-97.587,270.3,19.141,3,374,0.025,3.292,9.309,0
436,35.412,-97.588,270,19.061,3,374,0.004,3.086,9.285,0
437,35.412,-97.588,269.8,18.571,3,374,0.127,2.88,9.382,0
438,35.412,-97.588,269.7,18.121,3,375,0.319,2.74,9.626,0
439,35.412,-97.588,270.1,17.72,3,375,0.033,3.149,9.373,0
440,35.412,-97.588,270.3,17.3,3,375,-0.013,3.059,8.996,0
441,35.412,-97.589,270.2,16.87,3,375,0.139,2.874,9.411,0
442,35.412,-97.589,270,16.56,3,375,0.145,3.319,9.575,0
443,35.412,-97.589,270.1,16.62,3,375,-0.073,3.649,9.447,0
444,35.412,-97.589,270,16.87,3,373,0.062,3.832,9.252,0
445,35.412,-97.589,269.7,17.32,3,374,0.187,3.714,9.173,0
446,35.412,-97.59,269.9,17.73,3,374,0.058,3.925,9.336,0
447,35.412,-97.59,270.2,18.11,3,374,-0.013,3.94,9.142,0
448,35.412,-97.59,270.4,18.54,3,374,0.008,3.478,9.286,0
449,35.412,-97.59,270.1,18.78,3,374,-0.026,3.282,9.504,0
450,35.412,-97.59,269.9,18.63,3,374,0.047,3.058,9.088,0
451,35.412,-97.591,269.9,18.24,3,374,0.038,3.269,9.182,0
452,35.412,-97.591,270.2,17.93,3,373,0.053,3.63,9.137,0
453,35.412,-97.591,270.2,17.94,3,373,0.042,3.54,9.43,0
454,35.412,-97.591,270,18.06,3,373,0.038,3.606,9.446,0
455,35.412,-97.591,270.1,18.2,3,372,0.046,3.666,9.39,0
456,35.412,-97.592,269.9,18.35,3,373,0.099,3.537,9.135,0
457,35.412,-97.592,270.2,18.44,3,374,-0.004,3.324,9.183,0
459,35.412,-97.592,269.9,18.29,3,374,0.106,3.07,9.155,0
460,35.412,-97.592,270.2,17.96,3,374,0.083,3.087,9.371,0
461,35.412,-97.592,270.3,17.52,3,373,0.154,3.35,9.243,0
462,35.412,-97.593,270.2,17.33,3,373,0.283,2.92,9.277,0
463,35.412,-97.593,270.4,17.08,3,373,0.176,3.337,9.166,0
464,35.412,-97.593,270.4,16.98,3,373,0.214,3.121,9.232,1
465,35.412,-97.593,271.2,16.94,3,373,0.078,3.08,9.399,1
466,35.412,-97.593,271.4,16.63,3,373,-0.024,3.01,9.474,1
467,35.412,-97.593,271.4,16.34,3,372,-0.244,2.935,9.541,1
468,35.412,-97.594,271,16.03,3,372,-0.458,2.946,9.536,0
469,35.412,-97.594,269.1,15.71,3,372,-0.596,2.468,9.458,0
470,35.412,-97.594,267,15.26,3,372,0.074,1.674,9.679,0
471,35.412,-97.594,265.5,13.79,3,371,0.584,1.365,9.801,0
472,35.412,-97.594,267.3,11.87,3,372,0.285,0.814,9.911,0
473,35.412,-97.594,269.2,9.75,3,373,0.208,1.176,9.886,0
474,35.412,-97.594,269.3,7.1003,3,373,0.207,1.69,9.833,0
475,35.412,-97.595,269.8,5.13,3,373,0.168,1.958,9.691,0
476,35.412,-97.595,269.5,3.5801,3,373,0.19,2.582,9.526,0
477,35.412,-97.595,268.9,2.3803,3,374,0.213,3.27,9.345,0
478,35.412,-97.595,267.9,1.8402,3,374,0.237,3.945,9.192,0
479,35.412,-97.595,269.8,2.3602,3,374,0.105,3.511,9.32,0
480,35.412,-97.595,270.9,3.0865,3,373,-1.147,5.517,8.775,0
481,35.412,-97.595,270.9,3.0865,3,373,-2.818,5.305,8.885,0
482,35.411,-97.595,216.2,7.8357,3,372,-2.854,4.221,9.864,0
483,35.411,-97.595,197.2,8.59,3,372,-2.397,4.102,9.432,0
484,35.411,-97.595,185.5,8.8001,3,371,-0.825,3.797,9.412,0
485,35.411,-97.595,180.2,8.8801,3,371,-0.168,3.647,9.351,0
486,35.411,-97.595,180,9.31,3,371,0.185,4.217,9.086,0
487,35.411,-97.595,180.1,10.07,3,371,0.258,3.994,9.212,0
488,35.411,-97.595,180.8,10.68,3,371,0.151,3.947,9.24,0
489,35.411,-97.595,180.8,11.12,3,371,0.005,3.952,9.295,0
490,35.411,-97.595,180.4,11.48,3,371,-0.134,4.245,9.238,0
491,35.411,-97.595,180.2,12,3,371,0.015,4.326,8.776,0
492,35.411,-97.595,180,12.461,3,371,0.186,4.332,9.217,0
493,35.41,-97.595,180.2,13.021,3,372,0.09,4.199,9.359,0
494,35.41,-97.595,180.1,13.651,3,372,0.219,3.79,9.335,0
495,35.41,-97.595,179.5,13.86,3,371,-0.06,3.786,9.049,0
496,35.41,-97.595,179.8,14.151,3,372,0.04,3.85,9.057,0
497,35.41,-97.595,179.8,14.382,3,372,-0.059,3.869,9.028,0
498,35.41,-97.595,179.8,14.631,3,372,0.077,3.502,9.449,0
499,35.41,-97.595,179.7,14.981,3,372,0.258,3.69,9.227,0
500,35.41,-97.595,179.6,15.24,3,373,0.36,3.733,9.416,0
501,35.409,-97.595,179.7,15.461,3,372,0.219,3.713,9.031,0
502,35.409,-97.595,179.6,15.68,3,373,0.193,3.576,9.093,0
503,35.409,-97.595,179.9,15.61,3,373,-0.024,3.545,9.433,0
504,35.409,-97.595,180.2,15.481,3,374,-0.033,3.152,9.264,0
505,35.409,-97.595,180.2,15.241,3,374,-0.017,3.041,9.257,0
506,35.409,-97.595,180,14.86,3,374,-0.074,3.196,9.165,0
507,35.409,-97.595,179.6,14.67,3,374,-0.06,3.182,9.332,0
508,35.408,-97.595,179.5,14.45,3,374,0.26,3.292,9.336,0
509,35.408,-97.595,179.9,14.182,3,374,0.252,3.26,9.187,0
510,35.408,-97.595,179.9,14.28,3,374,0.314,3.185,9.202,0
511,35.408,-97.595,179.8,14.27,3,374,0.186,2.844,8.771,0
512,35.408,-97.595,180.1,14.15,3,374,0.115,3.003,9.142,0
513,35.408,-97.595,180,13.89,3,374,0.286,2.965,9.158,0
514,35.408,-97.595,180,13.53,3,373,0.323,2.347,9.327,1
515,35.408,-97.595,180.1,12.55,3,374,0.009,2.794,9.308,1
516,35.407,-97.595,180.1,11.66,3,374,0.069,3.095,9.378,1
517,35.407,-97.595,180.2,11.35,3,373,-0.084,3.191,9.911,0
519,35.407,-97.595,180.2,11.09,3,373,0.103,3.014,9.119,0
520,35.407,-97.595,180.3,11.17,3,373,0.047,3.621,9.176,0
521,35.407,-97.595,179.9,11.23,3,373,0.395,3.217,9.421,0
522,35.407,-97.595,180,11.27,3,373,0.329,2.236,9.575,0
523,35.407,-97.595,180.1,10.54,3,373,0.044,2.099,9.589,0
524,35.407,-97.595,180.1,9.12,3,374,0.311,1.934,9.537,0
525,35.407,-97.595,179.8,7.93,3,374,0.145,2.397,9.679,0
526,35.407,-97.595,179.9,6.42,3,374,0.184,1.523,9.689,0
527,35.407,-97.595,180,5.1902,3,374,0.206,3.003,9.298,0
528,35.407,-97.595,180,4.11,3,374,0.239,4.369,9.081,0
529,35.407,-97.595,180.3,5.24,3,375,0.122,2.337,9.621,0
530,35.406,-97.595,180.5,5.4101,3,375,0.188,1.19,9.832,0
531,35.406,-97.595,179.5,3.56,3,375,0.278,1.643,9.728,0
532,35.406,-97.595,178.6,1.4605,3,375,0.385,4.567,8.961,0
533,35.406,-97.595,178.6,1.4605,3,375,1.158,4.969,8.672,0
534,35.406,-97.595,185.1,3.0106,9,375,2.696,4.263,8.877,0
535,35.406,-97.595,200.1,4.53,9,375,3.434,4.315,8.676,0
536,35.406,-97.595,228.5,6.0307,9,375,2.718,5.144,8.624,0
537,35.406,-97.595,252.4,7.7602,9,375,1.43,5.306,8.558,0
538,35.406,-97.595,264.6,10.1,9,375,0.713,4.943,8.836,0
539,35.406,-97.595,268.1,11.89,9,375,0.433,4.535,9.125,0
540,35.406,-97.595,269.3,13.42,9,375,0.14,3.804,9.268,0
541,35.406,-97.596,270.2,14.6,3,374,-0.379,3.515,9.19,0
542,35.406,-97.596,269.9,14.58,3,374,-0.123,3.575,9.389,0
543,35.406,-97.596,270,14.72,3,375,0.02,3.645,9.188,0
544,35.406,-97.596,270.3,14.96,3,375,-0.105,3.637,9.067,0
545,35.406,-97.596,270.4,15.14,3,375,-0.28,3.44,9.024,0
546,35.406,-97.597,270.2,15.15,3,374,-0.122,3.142,9.237,0
547,35.406,-97.597,269.9,15.16,3,373,-0.224,3.34,9.253,0
548,35.406,-97.597,269.9,15.08,3,373,-0.062,3.089,9.516,0
549,35.406,-97.597,270.2,14.96,3,373,-0.051,3.159,9.502,0
550,35.406,-97.597,270,15,3,372,-0.143,3.389,9.604,0
551,35.406,-97.597,269.7,15.1,3,372,-0.218,3.382,9.009,0
552,35.406,-97.598,270,15.24,3,372,-0.187,3.315,8.943,0
553,35.406,-97.598,269.9,15.31,3,373,-0.006,3.125,9.438,0
554,35.406,-97.598,270,15.05,3,372,-0.234,2.871,9.395,0
555,35.406,-97.598,270.2,14.771,3,372,-0.177,2.969,9.335,0
556,35.406,-97.598,269.2,14.46,3,372,-0.122,2.858,9.297,0
557,35.406,-97.598,269,14.14,3,372,-0.021,2.896,9.229,0
558,35.406,-97.598,269,13.87,3,372,-0.073,2.922,9.45,0
559,35.406,-97.599,269.3,13.58,3,372,0.122,2.991,9.202,0
560,35.406,-97.599,269.9,13.26,3,371,0.015,2.962,9.381,0
561,35.406,-97.599,270.1,12.72,3,371,-0.107,1.188,10.163,0
562,35.406,-97.599,270.2,10.6,3,372,-0.147,1.839,9.644,0
563,35.406,-97.599,269.9,8.83,3,372,-0.242,2.273,9.997,0
564,35.406,-97.599,269.6,7.85,3,372,-0.283,2.261,9.563,0
565,35.406,-97.599,269.4,6.81,3,372,-0.163,2.151,9.431,0
566,35.406,-97.599,270.1,5.7907,3,372,-0.114,2.614,9.598,0
567,35.406,-97.599,269.8,5.1002,3,371,-0.076,2.582,9.568,0
568,35.406,-97.599,269.5,4.5,3,371,0.035,2.491,9.611,0
569,35.406,-97.599,269.3,3.73,3,371,0.01,2.45,9.66,0
570,35.406,-97.6,269.2,2.9801,3,371,-0.067,2.125,9.571,0
571,35.406,-97.6,269.7,1.97,3,371,-0.032,2.221,9.585,1
572,35.406,-97.6,269.7,1.97,3,371,-0.014,2.832,9.481,1
573,35.406,-97.6,269.7,1.97,3,371,-0.019,3.177,9.392,1
574,35.406,-97.6,269.7,1.97,3,371,0.02,3.226,9.336,1
575,35.406,-97.6,269.7,1.97,3,371,-0.078,3.38,9.381,1
576,35.406,-97.6,269.7,1.97,3,371,-0.079,3.386,9.335,1
577,35.406,-97.6,269.7,1.97,3,371,-0.029,3.327,9.321,1
579,35.406,-97.6,269.7,1.97,3,371,-0.011,3.304,9.359,1
580,35.406,-97.6,0,0,3,372,0.029,3.279,9.331,1
581,35.406,-97.6,0,0,3,372,-0.011,3.253,9.399,1
582,35.406,-97.6,0,0,3,372,0.011,3.282,9.393,1
583,35.406,-97.6,0,0,3,372,0.026,3.289,9.358,1
584,35.406,-97.6,0,0,3,372,0.018,3.297,9.318,1
585,35.406,-97.6,0,0,3,372,-0.019,3.278,9.368,1
586,35.406,-97.6,0,0,3,372,0.034,3.94,9.258,0
587,35.406,-97.6,0,0,3,372,0.16,5.509,8.714,0
588,35.406,-97.6,268.2,2.0209,3,372,0.251,5.401,8.731,0
589,35.406,-97.6,270.6,4.31,3,372,-0.779,4.39,9.048,0
590,35.406,-97.6,269.5,6.0801,3,372,-2.424,3.472,9.249,0
591,35.406,-97.6,253.8,6.3415,3,372,-2.24,3.352,9.529,0
592,35.406,-97.6,229.5,6.1804,3,371,-2.62,3.82,9.145,0
593,35.406,-97.6,206.4,6.7104,3,372,-3.605,4.267,9.233,0
594,35.406,-97.6,181.8,7.6502,3,373,-1.165,5.207,8.927,0
595,35.406,-97.6,160.4,8.94,3,373,0.336,5.695,8.681,0
596,35.406,-97.6,159.3,11.41,3,372,0.331,5.471,8.639,0
597,35.406,-97.6,160.2,13.86,3,372,0.273,5.066,9.383,0
598,35.406,-97.6,160.4,17.26,3,373,0.283,4.522,9.233,0
599,35.405,-97.599,160.7,18.41,3,373,0.292,4.554,9.456,0
600,35.405,-97.599,160.6,19.37,3,373,0.28,3.642,9.307,0
601,35.405,-97.599,160.6,19.26,3,373,0.08,3.113,9.513,0
602,35.405,-97.599,160.7,18.9,3,373,0.058,3.266,9.505,0
603,35.405,-97.599,160.6,18.77,3,373,0.003,3.561,9.646,0
604,35.405,-97.599,160.7,18.98,3,373,0.228,3.577,9.614,0
605,35.404,-97.599,160.6,19.34,3,373,0.026,3.591,9.421,0
606,35.404,-97.599,160.5,19.61,3,373,0.099,3.617,9.528,0
607,35.404,-97.599,160.7,19.65,3,373,0.125,3.348,9.691,0
608,35.404,-97.599,160.7,19.57,3,373,0.048,2.963,9.311,0
609,35.404,-97.599,160.8,19.19,3,374,-0.046,3.543,9.143,0
