time,lat,lng,bearing,spd,acc,alt,accx,accy,accz,stable,
0,35.392,-97.499,269.9,24.24,6.068,358,-0.225,1.796,9.443,1
1,35.392,-97.5,269.8,24.57,6.068,358,-0.202,1.854,9.436,1
2,35.392,-97.5,269.8,24.57,9.102,358,-0.163,1.949,9.392,1
3,35.392,-97.5,269.7,25.19,7.585,359,-0.154,2.317,9.319,1
4,35.392,-97.501,270.4,25.94,6.068,359,-0.224,2.107,9.243,1
5,35.392,-97.501,270.4,25.94,7.585,359,-0.197,1.57,9.39,1
6,35.392,-97.501,270.1,26.32,9.102,360,-0.222,1.432,9.393,1
7,35.392,-97.501,270.2,26.2,6.068,357,-0.173,1.278,9.416,1
8,35.392,-97.502,270.2,26.2,7.585,357,-0.221,1.184,9.45,1
9,35.392,-97.502,269.9,26.03,10.619,357,-0.241,1.187,9.527,1
10,35.392,-97.502,269.1,25.56,7.585,355,-0.188,1.167,9.506,1
11,35.392,-97.503,269.4,25.34,7.585,354,-0.087,1.178,9.58,1
12,35.392,-97.503,269.5,25.17,7.585,355,-0.11,1.177,9.538,1
13,35.392,-97.503,269.5,25.17,9.102,355,-0.173,1.336,9.568,1
14,35.392,-97.503,269.9,24.98,6.068,355,-0.165,1.729,9.452,1
15,35.392,-97.504,269.9,24.98,7.585,355,-0.122,1.905,9.441,1
16,35.392,-97.504,270.2,25.09,10.619,355,-0.228,1.844,9.416,1
17,35.392,-97.504,269.5,25.94,10.619,355,-0.344,1.786,9.452,1
18,35.392,-97.504,269.5,26.33,9.102,354,-0.222,1.498,9.539,1
19,35.392,-97.505,269.5,26.92,7.585,356,-0.021,1.394,9.631,1
20,35.392,-97.505,270.3,26.86,7.585,355,-0.021,1.369,9.639,1
21,35.392,-97.505,271.1,26.69,7.585,355,-0.403,1.597,9.532,1
22,35.392,-97.506,270.2,26.75,7.585,357,-0.433,1.606,9.59,1
23,35.392,-97.506,269.8,26.86,7.585,358,-0.205,1.448,9.584,1
24,35.392,-97.506,269.8,26.75,7.585,354,-0.217,1.435,9.628,1
25,35.392,-97.507,270.1,26.64,10.619,353,-0.218,1.326,9.49,1
26,35.392,-97.507,270.1,26.64,16.687,353,-0.251,1.29,9.633,1
27,35.392,-97.507,269.1,26.03,12.136,353,-0.277,1.257,9.604,1
28,35.392,-97.508,269.1,25.64,9.102,353,-0.15,1.176,9.542,1
29,35.392,-97.508,269.7,25.6,7.585,351,-0.193,1.404,9.614,1
30,35.392,-97.508,270.7,25.29,6.068,351,-0.075,1.454,9.517,1
31,35.392,-97.509,270.4,25.29,6.068,351,-0.186,1.587,9.564,1
32,35.392,-97.509,270.4,25.09,4.551,352,-0.204,1.554,9.464,1
33,35.392,-97.509,270.6,24.73,4.551,352,-0.203,1.655,9.477,1
34,35.392,-97.509,270.6,25.28,4.551,354,-0.237,1.619,9.479,1
35,35.392,-97.51,269.8,25.16,4.551,355,-0.207,1.604,9.605,1
36,35.392,-97.51,269.8,25.05,4.551,357,-0.218,1.61,9.567,1
37,35.392,-97.51,269.7,24.91,4.551,358,-0.181,1.575,9.569,1
38,35.392,-97.511,269.5,24.63,6.068,358,-0.063,1.561,9.465,1
39,35.392,-97.511,269.9,24.46,6.068,356,-0.162,1.628,9.558,1
40,35.392,-97.511,270.1,24.25,6.068,356,-0.049,1.621,9.459,1
41,35.392,-97.511,270,24.16,6.068,358,-0.191,1.67,9.435,1
42,35.392,-97.512,270.1,24.11,6.068,357,-0.322,1.776,9.333,1
43,35.392,-97.512,269.8,24.41,6.068,358,-0.236,1.883,9.211,1
44,35.392,-97.512,269.2,24.6,6.068,357,-0.369,1.836,9.224,1
45,35.392,-97.512,269.2,24.6,6.068,358,-0.279,1.815,9.321,1
46,35.392,-97.513,269.1,25.12,4.551,360,-0.269,1.832,9.214,1
47,35.392,-97.513,268.6,25.37,4.551,361,-0.139,1.776,9.238,1
48,35.392,-97.513,268.7,25.5,6.068,360,-0.07,1.778,9.243,1
49,35.392,-97.513,269.2,25.82,6.068,362,-0.145,1.488,9.391,1
51,35.392,-97.514,269,25.89,6.068,362,-0.056,1.235,9.39,1
52,35.392,-97.514,269.3,25.99,6.068,362,-0.117,1.19,9.425,1
53,35.392,-97.514,269.3,25.86,6.068,362,0.048,1.341,9.414,1
54,35.392,-97.515,268.3,26.01,6.068,361,-0.237,1.443,9.62,1
55,35.392,-97.515,267.7,26.2,6.068,361,-0.2,1.507,9.806,1
56,35.392,-97.515,266.9,26.52,6.068,360,-0.136,1.47,9.773,1
57,35.392,-97.515,266.3,26.6,7.585,359,-0.31,1.637,9.574,1
58,35.392,-97.516,266.3,26.6,9.102,358,-0.295,1.749,9.476,1
59,35.392,-97.516,264.8,26.72,9.102,360,-0.289,1.781,9.458,1
60,35.392,-97.516,264.9,26.74,9.102,359,0.004,1.88,9.359,1
61,35.392,-97.517,262.8,27.54,7.585,358,0.023,1.955,9.378,1
62,35.392,-97.517,262.8,27.54,7.585,358,0.084,1.952,9.37,1
63,35.392,-97.517,262.2,28.91,6.068,357,-0.122,1.923,9.357,1
64,35.392,-97.518,262.1,29.1,6.068,356,-0.138,1.94,9.428,1
65,35.392,-97.518,262.1,29.43,4.551,356,-0.271,1.978,9.621,1
66,35.392,-97.518,261.8,30.14,4.551,355,-0.127,1.551,9.718,1
67,35.392,-97.519,262,30.08,4.551,355,-0.158,1.324,9.764,1
68,35.392,-97.519,261.7,29.45,4.551,354,-0.034,1.281,9.783,1
69,35.392,-97.519,261.7,29.45,4.551,354,0.155,1.261,9.784,1
70,35.392,-97.52,263.3,28.28,4.551,353,0.399,1.302,9.666,1
71,35.392,-97.52,264.7,27.6,4.551,354,0.325,1.307,9.439,1
72,35.392,-97.52,265.7,27.23,4.551,355,0.225,1.445,9.298,1
73,35.392,-97.52,265.6,27.15,6.068,354,0.061,1.592,9.303,1
74,35.392,-97.521,266.2,27.06,6.068,353,0.209,1.486,9.383,1
75,35.392,-97.521,267.9,26.68,6.068,354,0.072,1.585,9.268,1
76,35.391,-97.521,268.8,26.92,6.068,353,0.188,1.722,9.261,1
77,35.391,-97.522,268.8,26.91,7.585,353,0.082,1.356,9.31,1
78,35.391,-97.522,269.5,27.02,7.585,353,-0.09,1.208,9.424,1
79,35.392,-97.522,270.2,26.74,6.068,354,-0.197,1.262,9.315,1
80,35.392,-97.522,270.2,26.73,7.585,354,-0.214,1.171,9.355,1
81,35.391,-97.523,269.5,26.92,10.619,353,-0.204,1.141,9.449,1
82,35.391,-97.523,269.4,26.35,7.585,353,-0.289,1.129,9.458,1
83,35.391,-97.523,269.4,26.34,9.102,353,-0.22,1.157,9.552,1
84,35.391,-97.524,268.7,26.42,10.619,351,-0.244,1.262,9.591,1
85,35.391,-97.524,269.3,26.54,6.068,349,-0.194,1.4,9.597,1
86,35.391,-97.524,269.3,26.57,7.585,350,-0.133,1.511,9.655,1
87,35.391,-97.525,269.7,26.68,6.068,351,-0.186,1.574,9.625,1
88,35.391,-97.525,269.9,27.02,6.068,350,-0.3,1.535,9.675,1
89,35.391,-97.525,269.8,26.84,6.068,349,-0.089,1.5,9.636,1
90,35.391,-97.525,268.9,27.55,6.068,350,-0.249,0.939,9.8,1
91,35.391,-97.526,269.9,27.33,4.551,350,-0.043,-0.914,10.204,0
92,35.391,-97.526,269.9,25.06,4.551,349,-0.193,0.649,9.844,0
93,35.391,-97.526,270.7,22.8,4.551,348,-0.33,1.629,9.585,0
94,35.391,-97.527,270.1,22.78,4.551,348,-0.068,1.972,9.542,0
95,35.391,-97.527,270.4,23.07,4.551,347,-0.189,1.85,9.558,0
96,35.391,-97.527,270.6,23.11,4.551,347,-0.157,1.51,9.609,0
97,35.391,-97.527,269.6,22.95,4.551,347,-0.284,1.557,9.602,0
98,35.391,-97.528,270.4,22.52,4.551,347,-0.266,1.469,9.548,0
99,35.391,-97.528,270,21.64,4.551,349,-0.291,1.654,9.452,0
100,35.391,-97.528,270.6,21.71,4.551,350,0.297,2.137,9.246,0
101,35.391,-97.529,273.1,23.02,4.551,351,0.279,2.919,9.011,1
102,35.392,-97.529,273.1,24.14,4.551,351,-0.249,3.035,8.958,1
103,35.392,-97.529,271.8,25.73,4.551,350,-0.705,3.192,8.898,1
104,35.392,-97.529,270,27.19,4.551,350,-0.967,3.186,8.946,1
105,35.392,-97.53,269.8,27.75,4.551,350,-0.354,2.294,9.195,1
106,35.392,-97.53,269.8,27.62,4.551,350,-0.143,1.434,9.265,1
107,35.392,-97.53,270.1,27.2,4.551,350,-0.117,1.25,9.588,1
108,35.392,-97.531,270.1,26.84,4.551,352,-0.291,1.175,9.558,1
109,35.392,-97.531,270.4,26.58,4.551,351,-0.046,1.144,9.458,1
110,35.392,-97.531,270.4,26.58,6.068,351,-0.273,1.381,9.373,1
111,35.392,-97.531,269.6,26.61,6.068,351,-0.217,1.602,9.371,1
112,35.392,-97.532,269.4,27.08,6.068,352,-0.255,1.841,9.465,1
113,35.392,-97.532,269.9,27.46,6.068,351,-0.249,1.452,9.716,1
114,35.392,-97.532,270.3,27.55,6.068,351,-0.242,1.391,9.749,1
115,35.392,-97.533,269.8,27.25,6.068,349,-0.195,1.488,9.588,1
116,35.392,-97.533,269.5,27.42,6.068,350,-0.195,1.562,9.68,1
117,35.392,-97.533,269.6,27.15,6.068,351,-0.24,1.483,9.609,1
118,35.392,-97.534,269.5,26.83,6.068,350,-0.139,1.495,9.526,1
119,35.392,-97.534,270,26.94,6.068,351,-0.151,1.509,9.52,1
120,35.392,-97.534,269.9,26.84,6.068,351,-0.235,1.337,9.548,1
121,35.392,-97.534,270,26.63,6.068,351,-0.182,1.206,9.517,1
123,35.392,-97.535,270.3,26.27,6.068,352,-0.216,1.188,9.545,1
124,35.392,-97.535,270.4,26.01,6.068,351,-0.339,1.213,9.552,1
125,35.392,-97.535,270.7,25.61,6.068,351,-0.3,1.538,9.49,1
126,35.392,-97.536,270.7,25.61,9.102,351,-0.319,1.516,9.487,1
127,35.392,-97.536,269.7,25.3,6.068,351,-0.306,1.499,9.554,1
128,35.392,-97.536,270.1,25.33,6.068,351,-0.276,1.449,9.543,1
129,35.392,-97.536,269.7,25.12,6.068,352,-0.205,1.55,9.512,1
130,35.392,-97.537,269.3,25.05,6.068,353,-0.176,1.593,9.504,1
131,35.392,-97.537,270.3,25.04,6.068,351,-0.155,1.607,9.501,1
132,35.392,-97.537,270.3,24.96,6.068,352,-0.119,1.595,9.551,1
133,35.392,-97.537,269.8,25.1,6.068,353,-0.194,1.679,9.603,1
134,35.392,-97.538,269.9,24.97,4.551,352,-0.114,1.816,9.462,1
135,35.392,-97.538,270,25.13,4.551,352,-0.174,1.882,9.41,1
136,35.392,-97.538,270,25.28,4.551,353,-0.229,1.861,9.376,1
137,35.392,-97.539,269.9,25.5,4.551,353,-0.21,1.884,9.442,1
138,35.392,-97.539,269.9,25.52,4.551,353,-0.1,1.878,9.398,1
139,35.392,-97.539,270.5,25.84,6.068,352,-0.134,1.844,9.314,1
140,35.392,-97.539,270.3,25.91,6.068,351,-0.153,1.443,9.44,1
141,35.392,-97.54,270.6,25.57,4.551,351,-0.227,1.355,9.395,1
142,35.392,-97.54,270,25.37,4.551,351,-0.264,1.468,9.362,1
143,35.392,-97.54,270,25.37,7.585,351,-0.18,1.691,9.39,1
144,35.392,-97.541,270.1,25.58,6.068,350,-0.249,1.818,9.369,1
145,35.392,-97.541,269.1,25.64,6.068,351,-0.147,1.802,9.48,1
146,35.392,-97.541,269.1,25.63,7.585,351,-0.23,1.737,9.457,1
147,35.392,-97.541,269.3,26.11,10.619,351,-0.232,1.847,9.401,1
148,35.392,-97.542,269.9,26.5,6.068,352,-0.238,1.899,9.388,1
149,35.392,-97.542,269.9,27,6.068,352,-0.196,1.914,9.363,1
150,35.392,-97.542,269.9,27,7.585,352,-0.214,1.909,9.396,1
151,35.392,-97.543,270.4,27.4,7.585,352,-0.164,1.909,9.453,1
152,35.392,-97.543,270,28.03,6.068,350,-0.266,1.908,9.421,1
153,35.392,-97.543,270,28.12,7.585,351,-0.238,1.868,9.456,1
154,35.392,-97.544,270,28.79,6.068,353,-0.259,1.861,9.483,1
155,35.392,-97.544,270,28.79,7.585,353,-0.123,1.852,9.61,1
156,35.392,-97.544,270,28.91,9.102,351,-0.156,1.598,9.708,1
157,35.392,-97.545,269.9,29.3,6.068,351,-0.265,1.366,9.761,1
158,35.392,-97.545,270.3,29.12,6.068,351,-0.233,1.369,9.688,1
159,35.392,-97.545,270,28.28,4.551,350,-0.234,1.544,9.506,1
160,35.392,-97.545,270.1,27.83,4.551,352,-0.206,1.704,9.482,1
161,35.392,-97.546,270.4,27.8,4.551,350,-0.223,1.735,9.462,1
162,35.392,-97.546,270.1,27.6,4.551,351,-0.266,1.727,9.398,1
163,35.392,-97.546,270,27.49,4.551,353,-0.198,1.723,9.326,1
164,35.392,-97.547,269.7,27.47,4.551,354,-0.286,1.76,9.245,1
165,35.392,-97.547,269.8,27.41,6.068,356,-0.328,1.7,9.29,1
166,35.392,-97.547,269.9,27.55,4.551,356,-0.3,1.429,9.407,1
167,35.392,-97.548,269.9,27.11,4.551,356,-0.086,1.275,9.604,1
168,35.392,-97.548,269.7,26.88,4.551,357,-0.139,1.134,9.291,1
169,35.392,-97.548,269.7,26.43,4.551,357,-0.122,1.13,9.333,1
170,35.392,-97.548,270.1,26.28,4.551,358,-0.225,1.359,9.458,1
171,35.392,-97.549,270.1,26.14,4.551,357,-0.26,1.412,9.359,1
172,35.392,-97.549,270.1,26.25,4.551,357,-0.278,1.418,9.331,1
173,35.392,-97.549,270,26.35,4.551,356,-0.279,1.479,9.61,1
174,35.392,-97.55,269.9,26.55,4.551,356,-0.323,1.498,9.754,1
175,35.392,-97.55,269.7,26.61,4.551,356,-0.314,1.558,9.714,1
176,35.392,-97.551,269.7,26.78,4.551,356,-0.173,1.736,9.454,1
177,35.392,-97.551,269.8,27.29,4.551,356,-0.106,1.919,9.422,1
178,35.392,-97.551,270.2,27.66,6.068,355,-0.079,1.953,9.45,1
179,35.392,-97.551,270.3,28.18,6.068,356,-0.098,1.931,9.388,1
180,35.392,-97.552,270.8,28.6,6.068,357,-0.082,1.921,9.421,1
181,35.392,-97.552,271.7,28.9,4.551,356,0.187,1.913,9.446,1
182,35.392,-97.552,273.5,29.38,6.068,355,0.514,1.892,9.382,1
183,35.392,-97.553,275.4,29.76,6.068,355,0.594,1.882,9.418,1
184,35.392,-97.553,276.9,29.73,4.551,354,0.487,1.473,9.503,1
185,35.392,-97.553,278.2,29.82,6.068,352,0.265,1.543,9.49,1
186,35.392,-97.554,279.2,29.76,6.068,355,0.308,1.459,9.569,1
187,35.392,-97.554,281,29.45,6.068,355,0.415,1.191,9.549,1
188,35.392,-97.554,282,28.86,6.068,355,0.347,1.214,9.624,1
189,35.392,-97.555,281.9,28.86,7.585,355,0.131,1.273,9.6,1
190,35.392,-97.555,284.1,28.64,6.068,355,-0.027,1.305,9.493,1
191,35.392,-97.555,284.2,28.54,6.068,355,-0.198,1.461,9.497,1
192,35.392,-97.555,284.3,28.49,7.585,354,-0.169,1.476,9.49,1
193,35.392,-97.556,284,28.51,7.585,354,-0.237,1.503,9.485,1
194,35.392,-97.556,284,28.47,7.585,355,-0.303,1.551,9.476,1
195,35.392,-97.556,283.6,28.64,7.585,354,-0.293,1.552,9.506,1
196,35.392,-97.557,283.7,28.41,7.585,354,-0.215,1.54,9.436,1
197,35.392,-97.557,283.8,28.35,9.102,354,-0.135,1.53,9.512,1
199,35.392,-97.557,284,28.75,10.619,354,-0.239,1.516,9.461,1
200,35.392,-97.558,284,28.52,12.136,354,-0.274,1.528,9.549,1
201,35.392,-97.558,284,28.41,12.136,355,-0.281,1.53,9.496,1
202,35.393,-97.558,284,28.65,12.136,354,-0.315,1.518,9.5,1
203,35.393,-97.559,283.8,28.74,12.136,354,-0.319,1.541,9.521,1
204,35.393,-97.559,283.8,28.7,10.619,354,-0.338,1.585,9.518,1
205,35.393,-97.559,283.8,28.72,9.102,354,-0.249,1.587,9.543,1
206,35.393,-97.559,283.9,28.75,7.585,355,-0.18,1.603,9.618,1
207,35.393,-97.56,284.1,28.75,6.068,357,-0.355,1.273,9.605,1
208,35.393,-97.56,284,28.32,6.068,356,-0.172,1.284,9.482,1
209,35.393,-97.56,284,28.32,7.585,356,-0.271,1.651,9.42,1
210,35.393,-97.561,283.8,28.19,6.068,357,-0.305,1.919,9.389,1
211,35.393,-97.561,284,28.49,6.068,357,-0.294,1.973,9.415,1
212,35.393,-97.561,284.1,28.78,6.068,358,-0.227,2,9.422,1
213,35.393,-97.562,284.1,29.34,6.068,359,-0.178,2.011,9.516,1
214,35.393,-97.562,284.3,29.72,6.068,359,-0.17,2.003,9.566,1
215,35.393,-97.562,284.8,29.99,7.585,358,-0.228,2.019,9.583,1
216,35.393,-97.563,284.5,30.2,7.585,360,-0.271,1.989,9.488,1
217,35.394,-97.563,284.4,30.19,9.102,360,-0.283,1.941,9.415,1
218,35.394,-97.563,283.5,30.29,7.585,363,-0.255,1.953,9.426,1
219,35.394,-97.564,283.5,30.29,7.585,363,-0.218,1.944,9.348,1
220,35.394,-97.564,284.3,30.19,9.102,364,-0.281,1.924,9.323,1
221,35.394,-97.564,284.3,30.95,6.068,365,-0.294,1.474,9.538,1
222,35.394,-97.565,284.3,30.95,7.585,365,-0.305,1.237,9.429,1
223,35.394,-97.565,284.3,29.93,7.585,367,-0.24,1.18,9.452,1
224,35.394,-97.565,284.3,29.92,9.102,367,-0.309,1.136,9.302,1
225,35.394,-97.565,284.2,29.49,9.102,367,-0.191,1.141,9.406,1
226,35.394,-97.566,284.1,28.68,7.585,367,-0.191,1.231,9.175,1
227,35.394,-97.566,284.1,28.68,7.585,367,-0.158,1.359,9.319,1
228,35.394,-97.566,284,28.47,6.068,365,-0.188,1.413,9.355,1
229,35.394,-97.567,284,28.47,7.585,365,-0.256,1.462,9.5,1
230,35.394,-97.567,284,28.71,6.068,364,-0.255,1.622,9.428,1
231,35.394,-97.567,284,28.71,7.585,359,-0.36,1.763,9.466,1
232,35.395,-97.568,283.9,29.46,6.068,360,-0.297,1.764,9.389,1
233,35.395,-97.568,283.1,30.05,6.068,361,0.031,2.014,9.619,1
234,35.395,-97.568,283.1,30.05,7.585,361,-0.197,1.446,9.746,1
235,35.395,-97.569,284.1,30.42,6.068,362,-0.266,1.326,9.804,1
236,35.395,-97.569,284.1,30.41,7.585,362,-0.314,1.559,9.671,1
237,35.395,-97.569,284.4,30.05,7.585,362,-0.157,1.685,9.474,1
238,35.395,-97.57,284.2,30.09,6.068,362,-0.065,1.768,9.458,1
239,35.395,-97.57,284.2,30.09,7.585,362,-0.204,1.457,9.54,1
240,35.395,-97.57,284.3,30,6.068,359,-0.298,1.35,9.567,1
241,35.395,-97.57,284.7,29.68,6.068,360,-0.175,1.222,9.598,1
242,35.395,-97.571,284.6,29.24,7.585,361,-0.194,1.193,9.584,1
243,35.395,-97.571,284.7,28.7,7.585,362,-0.231,1.345,9.572,1
244,35.395,-97.571,285,28.44,7.585,363,0.105,1.335,9.565,1
245,35.395,-97.572,285,28.44,9.102,363,0.521,1.336,9.552,1
246,35.395,-97.572,288,27.95,7.585,361,0.49,1.449,9.451,1
247,35.396,-97.572,290,27.66,7.585,362,0.455,1.56,9.494,1
248,35.396,-97.573,291.9,27.6,7.585,362,0.429,1.588,9.543,1
249,35.396,-97.573,293.5,27.63,7.585,362,0.409,1.534,9.388,1
250,35.396,-97.573,295.6,27.75,6.068,362,0.418,1.561,9.396,1
251,35.396,-97.573,296.7,27.87,6.068,362,0.472,1.612,9.662,1
252,35.396,-97.574,299.4,27.82,7.585,362,0.259,1.476,9.491,1
253,35.396,-97.574,302.8,27.42,6.068,365,0.218,1.277,9.608,1
254,35.396,-97.574,302.8,27.42,6.068,365,0.372,1.207,9.6,1
255,35.397,-97.575,304.9,27.13,6.068,366,0.193,1.249,9.533,1
256,35.397,-97.575,307.5,26.9,6.068,364,0.042,1.273,9.55,1
257,35.397,-97.575,309.8,26.48,6.068,363,0.16,1.195,9.601,1
258,35.397,-97.575,311.9,25.93,6.068,363,0.162,1.193,9.568,1
259,35.397,-97.576,313.8,25.88,6.068,362,0.201,1.455,9.562,1
260,35.397,-97.576,316.1,26.22,6.068,363,0.571,1.902,9.344,1
261,35.398,-97.576,319.4,26.49,6.068,362,0.752,1.982,9.539,1
262,35.398,-97.576,322.6,26.83,6.068,362,0.935,1.487,9.585,1
263,35.398,-97.576,326.7,26.55,4.551,362,0.893,1.296,9.518,1
264,35.398,-97.576,330.4,26.4,4.551,360,0.843,1.543,9.557,1
265,35.398,-97.577,334,26.47,4.551,358,0.899,1.486,9.59,1
266,35.399,-97.577,337.5,26.27,4.551,358,0.74,1.282,9.539,1
267,35.399,-97.577,340.3,25.88,6.068,357,0.626,1.288,9.577,1
268,35.399,-97.577,342.6,26,7.585,357,0.782,1.26,9.545,1
269,35.399,-97.577,345.9,25.9,7.585,356,0.918,1.303,9.587,1
270,35.399,-97.577,345.9,25.89,9.102,356,1.304,1.529,9.482,1
271,35.4,-97.577,357,25.59,6.068,355,1.425,1.475,9.569,1
272,35.4,-97.577,2.5,25.6,6.068,355,1.881,1.345,9.494,1
273,35.4,-97.577,6.6,25.13,6.068,355,1.248,1.299,9.566,1
274,35.4,-97.577,6.6,25.13,7.585,355,0.918,1.226,9.606,1
275,35.401,-97.577,14.3,24.78,6.068,355,1.195,1.322,9.593,1
276,35.401,-97.577,18.5,25.05,6.068,356,1.485,1.168,9.469,1
277,35.401,-97.577,24.4,24.5,6.068,357,1.35,1.151,9.366,1
278,35.401,-97.577,25.7,24.43,6.068,356,0.151,1.227,9.607,1
279,35.401,-97.577,23.7,23.82,6.068,356,-0.52,1.201,9.527,1
280,35.402,-97.576,23.7,23.82,9.102,356,-1.342,1.277,9.914,0
281,35.402,-97.576,15.1,24.13,7.585,358,-1.585,1.252,9.831,0
282,35.402,-97.576,15.1,24.13,9.102,358,-1.078,1.235,9.742,0
283,35.402,-97.576,5.5,23.27,7.585,356,-0.714,1.706,9.521,0
285,35.402,-97.576,2.5,23.66,7.585,356,-1.193,2.031,9.51,0
286,35.403,-97.576,0.3,23.67,9.102,356,-1.395,2.066,9.326,0
287,35.403,-97.576,354.5,24.49,9.102,356,-0.58,2.126,9.462,0
288,35.403,-97.576,355,24.96,9.102,355,0.43,1.482,9.541,0
289,35.403,-97.576,358.1,24.5,9.102,354,0.722,1.503,9.554,0
290,35.404,-97.576,0.7,24.13,7.585,353,0.74,1.368,9.469,0
291,35.404,-97.576,3,23.99,7.585,354,0.228,1.266,9.442,0
292,35.404,-97.576,3.2,23.85,9.102,355,-0.157,1.423,9.497,0
293,35.404,-97.576,3.1,24.02,9.102,355,-0.095,1.298,9.595,0
294,35.404,-97.576,2.2,23.28,9.102,354,0.085,1.257,9.593,0
295,35.405,-97.576,2.8,23.25,9.102,353,0.177,1.246,9.579,1
296,35.405,-97.576,2.9,23.01,7.585,352,0.064,0.944,9.604,1
297,35.405,-97.576,3.6,22.14,7.585,352,-0.003,-0.098,9.887,1
298,35.405,-97.576,3.7,20.07,7.585,350,-0.05,-0.336,9.949,1
299,35.405,-97.576,5.1,18.46,7.585,350,0.048,-0.224,9.876,1
300,35.406,-97.576,6,16.33,7.585,351,0.221,-0.41,9.948,1
301,35.406,-97.576,8.3,14.31,7.585,351,0.103,-0.275,9.945,1
302,35.406,-97.576,9.6,12.61,7.585,350,0.003,-0.6,10.007,0
303,35.406,-97.576,9.6,9.88,7.585,350,-0.19,-0.995,10.118,0
304,35.406,-97.576,11.9,7.68,7.585,352,-0.379,-0.807,10.09,0
305,35.406,-97.576,11.9,7.68,10.619,352,-0.434,-0.179,9.928,0
306,35.406,-97.576,12.6,3.91,9.102,352,-0.424,0.203,9.814,0
307,35.406,-97.576,12.6,3.91,10.619,352,-0.421,0.437,9.774,0
308,35.406,-97.576,12.6,3.91,10.619,352,-0.41,1.091,9.606,0
309,35.406,-97.576,10.8,1.45,10.619,352,-0.409,1.532,9.503,0
310,35.406,-97.576,8.1,0.97,7.585,353,-0.404,1.801,9.441,0
311,35.406,-97.576,8.1,0.97,7.585,353,-0.406,3.121,9.126,0
312,35.406,-97.576,11.4,2.58,7.585,353,-0.378,3.398,9.009,0
313,35.406,-97.576,11.6,4.89,7.585,353,-0.345,3.306,9.096,1
314,35.406,-97.576,12.1,6.53,7.585,353,-0.26,2.839,9.194,1
315,35.406,-97.576,12,7.1,7.585,352,-0.201,1.899,9.432,1
316,35.406,-97.576,12,7.1,9.102,353,-0.149,1.857,9.456,1
317,35.406,-97.576,13.8,7.56,7.585,351,-0.074,1.564,9.477,1
318,35.406,-97.576,14.5,7.24,7.585,352,-0.205,1.517,9.515,1
319,35.406,-97.576,12.4,6.96,7.585,353,-0.983,1.485,9.504,1
320,35.407,-97.576,12.4,6.96,9.102,353,-2.188,1.751,9.396,1
321,35.407,-97.576,346.1,7.06,7.585,353,-2.711,1.381,9.468,0
322,35.407,-97.576,346.1,7.06,9.102,352,-2.482,1.486,9.424,0
323,35.407,-97.576,316.2,7.04,7.585,352,-2.2,2.166,9.433,0
324,35.407,-97.576,290,7.83,7.585,352,-1.057,2.345,9.285,0
325,35.407,-97.576,284.3,8.94,6.068,352,-0.552,2.466,9.301,0
326,35.407,-97.576,282.3,9.73,7.585,352,-0.289,2.556,9.249,0
327,35.407,-97.576,282.2,10.87,6.068,353,-0.133,2.537,9.256,0
328,35.407,-97.577,282.5,11.85,6.068,354,-0.107,2.492,9.223,0
329,35.407,-97.577,282.5,11.85,7.585,354,-0.211,2.344,9.307,0
330,35.407,-97.577,283.3,11.84,9.102,354,-0.218,2.177,9.378,0
331,35.407,-97.577,282.3,13.49,10.619,354,-0.201,2.279,9.29,1
332,35.407,-97.577,281.9,13.79,13.653,354,-0.326,2.224,9.313,1
333,35.407,-97.577,283.3,15.55,9.102,354,-0.294,1.946,9.393,1
334,35.407,-97.578,281.9,16.18,6.068,355,-0.326,1.882,9.453,1
335,35.407,-97.578,281.5,16.56,6.068,354,-0.412,1.836,9.414,1
336,35.407,-97.578,281.7,16.8,4.551,355,-0.271,1.848,9.534,1
337,35.407,-97.578,282.9,16.91,4.551,353,0.097,1.603,9.534,1
338,35.407,-97.578,284.5,17.02,4.551,352,0.174,1.852,9.283,1
339,35.407,-97.579,287.4,17.83,4.551,351,0.406,1.952,9.338,1
340,35.407,-97.579,288.7,17.53,4.551,351,0.755,1.55,9.622,1
341,35.407,-97.579,293.7,17.39,4.551,351,1.604,1.39,9.536,1
342,35.407,-97.579,303.8,17.56,4.551,352,1.372,1.28,9.536,1
343,35.408,-97.579,306.9,17.03,4.551,353,0.885,1.224,9.536,1
344,35.408,-97.579,311.6,16.91,4.551,352,0.708,1.222,9.594,1
345,35.408,-97.58,314.6,16.7,4.551,353,0.75,1.231,9.597,1
346,35.408,-97.58,319.1,16.37,4.551,354,0.812,1.208,9.496,1
347,35.408,-97.58,323,16.12,4.551,353,0.879,1.234,9.618,1
348,35.408,-97.58,326.5,15.88,4.551,353,1.184,1.203,9.536,1
349,35.408,-97.58,332.4,15.53,4.551,353,0.871,1.251,9.475,1
350,35.408,-97.58,332.4,15.53,6.068,353,1.022,1.324,9.56,1
351,35.408,-97.58,339.2,15.15,4.551,354,0.846,1.371,9.481,1
352,35.409,-97.58,342,15.24,4.551,352,0.366,1.759,9.527,1
353,35.409,-97.58,342.7,15.51,4.551,352,0.08,1.603,9.509,1
355,35.409,-97.58,342.8,15.42,6.068,352,-0.136,1.556,9.536,1
356,35.409,-97.58,342.5,15.05,6.068,353,-0.256,1.437,9.561,1
357,35.409,-97.58,341.9,14.67,6.068,354,-0.172,1.493,9.5,1
358,35.409,-97.58,342.4,15.03,4.551,354,-0.129,1.567,9.488,1
359,35.409,-97.58,342.4,14.86,6.068,356,-0.067,1.642,9.484,1
360,35.409,-97.58,342.6,14.78,6.068,355,-0.105,1.755,9.447,1
361,35.41,-97.581,342.5,15.11,6.068,355,-0.116,1.874,9.423,1
362,35.41,-97.581,341.8,15.24,6.068,355,-0.007,1.902,9.44,1
363,35.41,-97.581,341.3,15.63,6.068,353,0.236,1.906,9.369,1
364,35.41,-97.581,341.7,15.94,6.068,353,0.4,1.794,9.432,1
365,35.41,-97.581,341.6,16.12,6.068,353,0.253,1.794,9.38,1
366,35.41,-97.581,341.6,16.12,7.585,353,-0.478,1.746,9.469,1
367,35.41,-97.581,335.3,16.16,6.068,354,-0.75,1.455,9.639,1
368,35.411,-97.581,331.6,16.24,6.068,352,-0.626,1.417,9.572,1
369,35.411,-97.581,331.6,16.24,7.585,352,-0.338,1.339,9.59,1
370,35.411,-97.581,324.7,15.76,6.068,351,-0.201,1.268,9.601,1
371,35.411,-97.581,324.7,15.76,9.102,351,-0.354,1.236,9.574,1
372,35.411,-97.581,317,14.91,7.585,351,-0.302,0.745,9.711,1
373,35.411,-97.581,317,14.91,10.619,351,-0.067,0.169,9.809,1
374,35.411,-97.582,309.9,12.39,7.585,351,-0.005,0.809,9.733,1
375,35.411,-97.582,310,12.39,9.102,351,-0.074,1.149,9.6,1
376,35.411,-97.582,304.4,11.66,7.585,351,-0.076,1.205,9.569,1
377,35.411,-97.582,304.4,11.66,9.102,352,0.024,1.209,9.577,1
378,35.411,-97.582,297.4,10.87,7.585,354,-0.06,1.232,9.59,1
379,35.411,-97.582,297.4,10.87,9.102,354,-0.078,0.657,9.716,1
380,35.411,-97.582,293.4,9.65,7.585,355,-0.032,0.658,9.719,1
381,35.411,-97.582,293.4,9.65,9.102,355,-0.059,0.41,9.805,1
382,35.412,-97.582,289.7,8.12,7.585,354,-0.102,0.239,9.804,1
383,35.412,-97.582,289.8,8.12,9.102,354,-0.055,0.398,9.786,1
384,35.412,-97.582,284.2,5.22,7.585,353,0.04,0.602,9.732,1
385,35.412,-97.583,282.4,4.01,7.585,355,0.001,0.732,9.709,1
386,35.412,-97.583,281.4,3.1,7.585,356,-0.013,0.881,9.665,1
387,35.412,-97.583,280.3,2.51,6.068,357,-0.031,1.161,9.611,1
388,35.412,-97.583,280,2.13,7.585,359,0.008,1.315,9.544,1
389,35.412,-97.583,277.1,1.8,7.585,361,0.006,1.332,9.555,1
390,35.412,-97.583,277.3,1.5,6.068,358,-0.001,1.072,9.609,1
391,35.412,-97.583,277.6,0.93,6.068,358,-0.007,0.974,9.628,1
392,35.412,-97.583,277.6,0.93,6.068,358,-0.012,1.394,9.528,1
395,35.412,-97.583,0,0,7.585,357,-0.024,1.625,9.474,1
396,35.412,-97.583,0,0,7.585,357,-0.027,1.626,9.473,1
397,35.412,-97.583,0,0,7.585,357,-0.015,1.627,9.475,1
398,35.412,-97.583,0,0,7.585,357,-0.007,1.633,9.469,1
399,35.412,-97.583,0,0,7.585,357,-0.009,1.873,9.419,1
400,35.412,-97.583,0,0,4.551,357,-0.011,1.94,9.398,1
401,35.412,-97.583,0,0,4.551,357,-0.014,1.658,9.466,1
402,35.412,-97.583,0,0,4.551,357,-0.011,1.783,9.435,1
403,35.412,-97.583,0,0,4.551,357,-0.027,1.92,9.397,1
404,35.412,-97.583,278.1,1.56,4.551,357,-0.03,2.604,9.236,1
405,35.412,-97.583,278.3,3.4,4.551,357,-0.093,3.184,9.064,1
406,35.412,-97.583,274.5,4.98,4.551,357,-0.158,3.273,9.064,1
407,35.412,-97.583,271.9,6.55,4.551,358,-0.324,3.195,9.098,1
408,35.412,-97.583,271.9,6.55,6.068,358,-0.404,2.744,9.199,1
409,35.412,-97.583,270.7,8.5,4.551,357,-0.338,2.536,9.254,1
410,35.412,-97.583,270.1,9.44,4.551,357,-0.368,2.463,9.259,1
411,35.412,-97.583,269.9,10.21,6.068,357,-0.246,2.388,9.287,1
412,35.412,-97.583,269.8,10.91,6.068,356,-0.185,2.343,9.294,1
413,35.412,-97.584,269.9,11.92,6.068,357,-0.189,2.332,9.288,1
414,35.412,-97.584,269.7,12.49,6.068,355,-0.236,2.494,9.312,1
415,35.412,-97.584,269.6,13.39,6.068,357,-0.191,2.407,9.254,1
416,35.412,-97.584,269.9,14.1,6.068,357,-0.217,2.384,9.581,1
418,35.412,-97.584,270,14.68,6.068,358,-0.235,2.309,9.375,1
419,35.412,-97.584,269.5,15.19,6.068,359,-0.203,1.764,9.479,1
420,35.412,-97.584,269.3,14.96,6.068,360,-0.106,1.847,9.435,1
421,35.412,-97.585,270,15.16,6.068,358,-0.093,1.845,9.453,1
422,35.412,-97.585,269.4,15.21,6.068,358,-0.102,1.984,9.432,1
423,35.412,-97.585,269.6,15.52,6.068,357,-0.098,2.08,9.394,1
424,35.412,-97.585,268.8,15.7,7.585,358,-0.026,1.974,9.395,1
425,35.412,-97.585,269.1,15.71,7.585,359,0.013,1.985,9.373,1
426,35.412,-97.585,270.7,15.98,7.585,358,-0.177,1.906,9.419,1
427,35.412,-97.586,269.9,16.33,7.585,359,-0.116,1.975,9.388,1
428,35.412,-97.586,269.9,16.46,6.068,361,-0.14,1.973,9.363,1
429,35.412,-97.586,270.6,16.65,6.068,361,-0.151,2.186,9.321,1
430,35.412,-97.586,270.4,17.17,6.068,358,-0.161,2.196,9.341,1
431,35.412,-97.586,270.3,17.59,6.068,358,-0.146,2.147,9.38,1
432,35.412,-97.587,270.3,17.86,6.068,358,-0.156,2.127,9.306,1
433,35.412,-97.587,270.3,17.85,7.585,358,-0.175,2.126,9.349,1
434,35.412,-97.587,270.3,18.64,6.068,356,-0.14,2.088,9.303,1
435,35.412,-97.587,270.3,18.64,7.585,356,-0.177,2.013,9.31,1
436,35.412,-97.587,270.1,19.2,6.068,355,-0.247,1.485,9.531,1
437,35.412,-97.588,270.1,19.2,7.585,356,-0.241,1.282,9.537,1
438,35.412,-97.588,269.9,18.5,6.068,356,-0.143,1.231,9.514,1
439,35.412,-97.588,269.9,18.5,7.585,356,-0.031,1.222,9.566,1
440,35.412,-97.588,270,17.52,6.068,357,-0.145,1.225,9.56,1
441,35.412,-97.588,270,17.52,7.585,357,-0.167,1.205,9.436,1
442,35.412,-97.589,269.2,16.98,7.585,358,-0.144,1.25,9.498,1
443,35.412,-97.589,270.2,16.41,6.068,358,-0.139,1.66,9.522,1
444,35.412,-97.589,270.2,16.41,7.585,358,-0.193,1.849,9.453,1
445,35.412,-97.589,270,17.13,6.068,359,-0.055,1.922,9.359,1
446,35.412,-97.589,270,17.13,6.068,358,0.025,1.943,9.404,1
447,35.412,-97.59,270.1,17.86,4.551,359,-0.012,1.94,9.436,1
448,35.412,-97.59,271.1,18.37,6.068,360,-0.13,1.898,9.459,1
449,35.412,-97.59,271.1,18.37,6.068,359,-0.223,1.703,9.458,1
450,35.412,-97.59,269.9,18.79,6.068,359,-0.105,1.323,9.607,1
451,35.412,-97.59,269.8,18.48,6.068,359,-0.083,1.241,9.584,1
452,35.412,-97.591,269.8,18.02,6.068,359,-0.091,1.4,9.591,1
453,35.412,-97.591,270.3,17.89,6.068,360,-0.081,1.7,9.483,1
454,35.412,-97.591,269.9,17.98,6.068,361,-0.109,1.728,9.463,1
455,35.412,-97.591,270.2,18.13,6.068,360,-0.095,1.776,9.439,1
456,35.412,-97.591,270,18.26,6.068,361,-0.078,1.781,9.486,1
457,35.412,-97.592,269.6,18.46,6.068,361,-0.106,1.645,9.496,1
458,35.412,-97.592,269.8,18.25,6.068,362,-0.097,1.429,9.52,1
459,35.412,-97.592,269.9,18.05,6.068,363,-0.074,1.28,9.538,1
460,35.412,-97.592,270,17.73,6.068,363,-0.077,1.293,9.527,1
461,35.412,-97.592,270.1,17.36,6.068,362,-0.008,1.41,9.484,1
462,35.412,-97.593,270,17.19,6.068,364,-0.004,1.297,9.465,1
463,35.412,-97.593,270.3,16.89,6.068,364,0.056,1.523,9.469,1
464,35.412,-97.593,270.7,16.96,6.068,364,0.034,1.311,9.536,1
465,35.412,-97.593,271.3,16.78,4.551,363,-0.12,1.229,9.567,1
466,35.412,-97.593,271.3,16.21,4.551,363,-0.255,1.222,9.628,1
467,35.412,-97.594,270.6,15.87,6.068,362,-0.547,1.221,9.603,1
468,35.412,-97.594,268.1,15.54,4.551,362,-0.743,1.215,9.633,1
469,35.412,-97.594,265.9,14.7,4.551,362,-0.793,0.649,9.798,1
470,35.412,-97.594,265.9,12.88,4.551,362,0.022,-0.067,9.905,1
471,35.412,-97.594,268.7,10.85,4.551,361,0.368,-0.291,9.924,1
472,35.412,-97.594,269.5,8.41,4.551,360,0.174,-0.906,10.06,0
473,35.412,-97.594,269.6,5.89,4.551,361,0.078,-0.529,9.961,0
474,35.412,-97.594,269.4,4.17,4.551,361,0.051,-0.078,9.885,0
475,35.412,-97.595,269.1,2.77,4.551,361,0.027,0.206,9.818,0
476,35.412,-97.595,272.2,1.94,4.551,361,0.041,0.748,9.678,0
477,35.412,-97.595,272.3,1.85,4.551,360,0.044,1.712,9.429,0
478,35.412,-97.595,270.8,2.76,4.551,360,0.04,2.071,9.365,0
479,35.412,-97.595,269.6,2.73,4.551,361,-0.025,1.758,9.438,0
480,35.412,-97.595,256.5,4.31,4.551,361,-1.456,3.592,9.023,0
481,35.411,-97.595,228.2,7,4.551,362,-3.045,3.473,9.039,0
482,35.411,-97.595,224.2,7.6,6.068,364,-2.971,2.603,9.439,0
483,35.411,-97.595,189,8.88,6.068,361,-2.41,2.017,9.435,0
484,35.411,-97.595,181.2,8.83,6.068,361,-1.293,1.762,9.485,0
485,35.411,-97.595,181.2,8.83,7.585,361,-0.35,1.944,9.393,0
486,35.411,-97.595,180.8,9.75,6.068,360,-0.116,2.391,9.317,0
487,35.411,-97.595,180.9,10.31,6.068,360,0.027,2.268,9.313,0
488,35.411,-97.595,180.8,10.88,6.068,361,-0.056,2.225,9.36,0
489,35.411,-97.595,181.5,11.37,6.068,360,-0.156,2.104,9.374,0
490,35.411,-97.595,180.2,11.55,7.585,361,-0.168,2.18,9.362,0
491,35.411,-97.595,181.3,12.16,7.585,363,-0.103,2.225,9.316,0
492,35.41,-97.595,180,12.55,7.585,363,-0.035,2.235,9.274,1
493,35.41,-97.595,180.5,13.1,7.585,362,-0.057,2.336,9.264,1
494,35.41,-97.595,180.2,13.29,7.585,361,-0.086,2.033,9.395,1
495,35.41,-97.595,180.3,13.8,7.585,362,-0.112,1.953,9.407,1
496,35.41,-97.595,179.6,14.09,9.102,361,-0.126,1.992,9.423,1
497,35.41,-97.595,179.7,14.36,9.102,359,-0.069,1.971,9.384,1
498,35.41,-97.595,179.3,14.67,9.102,359,-0.068,2.013,9.434,1
499,35.41,-97.595,180.3,15.16,7.585,359,-0.057,2.022,9.478,1
501,35.409,-97.595,179.2,15.15,7.585,357,-0.029,1.961,9.369,1
502,35.409,-97.595,179.8,15.17,7.585,357,0.052,1.926,9.396,1
503,35.409,-97.595,179.8,15.57,7.585,357,0.014,1.674,9.436,1
504,35.409,-97.595,180.1,15.49,7.585,357,-0.098,1.693,9.517,1
505,35.409,-97.595,180.1,15.49,9.102,357,-0.1,1.51,9.467,1
506,35.409,-97.595,180.2,15.57,12.136,357,-0.104,1.339,9.506,1
507,35.409,-97.595,181,14.85,13.653,358,-0.193,1.467,9.504,1
508,35.409,-97.595,180,14.69,12.136,358,-0.15,1.433,9.48,1
509,35.408,-97.595,179.6,14.48,9.102,359,-0.039,1.472,9.495,1
510,35.408,-97.595,179.8,14.3,6.068,361,-0.033,1.51,9.413,1
511,35.408,-97.595,179.9,14.32,6.068,364,-0.042,1.496,9.426,1
512,35.408,-97.595,179.5,14.38,7.585,364,0.016,1.395,9.467,1
513,35.408,-97.595,180.1,14.19,6.068,362,-0.076,1.261,9.529,1
514,35.408,-97.595,180.3,13.92,6.068,361,-0.043,1.058,9.564,1
515,35.408,-97.595,179.9,13.7,6.068,361,-0.073,0.573,9.724,1
516,35.408,-97.595,180.1,12.86,6.068,362,-0.149,0.771,9.681,1
517,35.407,-97.595,181,11.97,6.068,363,-0.079,1.141,9.594,1
518,35.407,-97.595,182,12.11,7.585,363,-0.052,1.255,9.56,1
519,35.407,-97.595,180.3,11.13,7.585,362,-0.127,1.512,9.567,1
520,35.407,-97.595,180,11.2,7.585,362,-0.158,1.746,9.45,1
521,35.407,-97.595,180,11.2,9.102,362,-0.07,1.435,9.455,1
522,35.407,-97.595,179.5,11.51,7.585,363,-0.093,0.729,9.722,1
523,35.407,-97.595,180.3,10.57,7.585,362,-0.091,0.178,9.846,1
524,35.407,-97.595,180.3,10.57,10.619,362,-0.111,0.191,9.824,1
525,35.407,-97.595,180.6,7.71,7.585,361,-0.056,0.176,9.814,1
526,35.407,-97.595,180.2,7.1,7.585,359,-0.04,-0.058,9.845,1
527,35.407,-97.595,179.9,5.46,7.585,360,0.022,0.885,9.644,1
528,35.407,-97.595,182.5,4.12,7.585,360,0.036,2.6,9.237,1
529,35.406,-97.595,181.1,5.63,7.585,356,0.012,1.324,9.51,1
530,35.406,-97.595,181.1,5.63,9.102,356,0.018,-0.405,9.932,1
531,35.406,-97.595,183,5.61,12.136,356,0.068,-0.166,9.899,0
532,35.406,-97.595,183,5.61,12.136,356,0.1,1.641,9.443,0
533,35.406,-97.595,180.1,1.65,10.619,358,0.45,3.217,9.058,0
534,35.406,-97.595,184.2,3.16,9.102,358,2.036,2.704,8.966,0
535,35.406,-97.595,199.1,4.74,7.585,359,3.08,2.443,9.044,0
536,35.406,-97.595,228.4,5.61,6.068,362,2.793,3.267,8.933,0
537,35.406,-97.595,241.7,6.78,6.068,363,1.756,3.599,8.9,0
538,35.406,-97.595,265.2,10.08,13.653,365,0.718,3.362,9.067,0
539,35.406,-97.595,268,12.01,13.653,365,0.298,3.04,9.116,0
540,35.406,-97.595,269.5,13.43,13.653,366,-0.042,2.405,9.33,1
541,35.406,-97.596,270.1,14.36,13.653,367,-0.307,1.873,9.508,1
542,35.406,-97.596,270.1,14.64,13.653,367,-0.352,1.685,9.461,1
543,35.406,-97.596,269.6,14.54,13.653,367,-0.211,1.804,9.396,1
544,35.406,-97.596,270.3,14.67,13.653,369,-0.232,1.806,9.373,1
545,35.406,-97.596,270.2,15,13.653,369,-0.269,1.678,9.444,1
546,35.406,-97.596,270.5,15.09,13.653,369,-0.43,1.593,9.454,1
547,35.406,-97.597,270.1,15.1,13.653,369,-0.385,1.487,9.459,1
548,35.406,-97.597,269.8,15.16,13.653,369,-0.324,1.41,9.531,1
549,35.406,-97.597,270.1,15.11,13.653,369,-0.281,1.449,9.482,1
550,35.406,-97.597,270.3,14.85,4.551,369,-0.331,1.589,9.488,1
551,35.406,-97.597,269.8,14.99,4.551,369,-0.24,1.633,9.561,1
552,35.406,-97.597,269.9,15.21,4.551,369,-0.19,1.617,9.372,1
553,35.406,-97.597,270,15.3,4.551,369,-0.243,1.415,9.534,1
554,35.406,-97.598,269.9,15.25,4.551,369,-0.167,1.216,9.462,1
555,35.406,-97.598,270.3,14.9,4.551,369,-0.347,1.233,9.7,1
556,35.406,-97.598,270.3,14.64,4.551,369,-0.342,1.19,9.601,1
557,35.406,-97.598,269.3,14.25,4.551,368,-0.296,1.187,9.538,1
558,35.406,-97.598,269.2,13.92,4.551,368,-0.259,1.171,9.557,1
559,35.406,-97.598,269,13.7,4.551,367,-0.058,1.176,9.465,1
560,35.406,-97.599,269.7,13.46,4.551,367,-0.118,1.214,9.62,1
561,35.406,-97.599,270.2,11.76,4.551,367,-0.208,-0.135,9.871,1
562,35.406,-97.599,270,9.57,4.551,367,-0.212,-0.379,9.978,0
563,35.406,-97.599,269.9,8.27,4.551,367,-0.202,0.306,9.782,0
564,35.406,-97.599,269.4,7.3,4.551,367,-0.205,0.397,9.763,0
565,35.406,-97.599,270.4,6.37,4.551,367,-0.163,0.623,9.754,0
566,35.406,-97.599,269.5,5.33,4.551,368,-0.237,0.619,9.653,0
567,35.406,-97.599,268.9,4.93,4.551,369,-0.221,0.876,9.627,0
568,35.406,-97.599,269.5,4.06,4.551,369,-0.217,0.76,9.697,0
569,35.406,-97.599,268,3.27,4.551,368,-0.179,0.77,9.677,0
570,35.406,-97.599,269.3,2.55,4.551,368,-0.206,0.68,9.745,0
571,35.406,-97.599,268.5,1.32,4.551,368,-0.186,0.396,9.769,1
572,35.406,-97.599,268.7,0.35,4.551,369,-0.169,0.602,9.724,1
573,35.406,-97.599,268.7,0.35,4.551,369,-0.157,1.295,9.554,1
574,35.406,-97.599,268.7,0.35,4.551,369,-0.164,1.477,9.514,1
575,35.406,-97.599,0,0,4.551,368,-0.164,1.516,9.502,1
576,35.406,-97.599,0,0,4.551,368,-0.167,1.527,9.501,1
577,35.406,-97.599,0,0,4.551,368,-0.162,1.532,9.499,1
578,35.406,-97.599,0,0,4.551,368,-0.16,1.529,9.499,1
579,35.406,-97.599,0,0,4.551,368,-0.16,1.53,9.498,1
580,35.406,-97.599,0,0,4.551,367,-0.154,1.529,9.502,1
581,35.406,-97.599,0,0,4.551,367,-0.162,1.534,9.494,1
582,35.406,-97.599,0,0,4.551,367,-0.14,1.536,9.494,1
583,35.406,-97.599,0,0,4.551,367,-0.144,1.533,9.496,1
584,35.406,-97.599,0,0,4.551,367,-0.152,1.534,9.495,1
586,35.406,-97.599,0,0,4.551,367,-0.149,1.535,9.497,1
587,35.406,-97.599,0,0,4.551,367,-0.12,3.086,9.119,1
588,35.406,-97.599,0,0,4.551,367,-0.099,3.661,8.936,1
589,35.406,-97.599,0,0,4.551,367,-0.13,3.407,9.034,1
590,35.406,-97.6,269.6,6.17,7.585,368,-1.526,2.183,9.318,1
591,35.406,-97.6,259.7,6.29,7.585,368,-2.701,1.405,9.579,0
592,35.406,-97.6,218.4,6.48,6.068,363,-2.599,1.927,9.389,0
593,35.406,-97.6,217.5,6.53,7.585,363,-3.245,2.176,9.32,0
594,35.406,-97.6,217.5,6.53,10.619,363,-3.068,2.713,9.19,0
595,35.406,-97.6,172.5,7.53,10.619,364,-0.544,3.662,8.966,0
596,35.406,-97.6,159,11.29,7.585,364,-0.028,3.855,8.916,0
597,35.406,-97.6,160.1,13.22,7.585,364,0.012,3.516,8.998,0
598,35.406,-97.6,160.3,16.31,6.068,362,-0.058,3.046,9.176,0
599,35.406,-97.6,159.6,17.03,6.068,361,0.057,2.811,9.143,0
600,35.405,-97.599,160.7,18.25,6.068,360,-0.002,2.498,9.257,0
601,35.405,-97.599,160.6,19.01,6.068,361,-0.012,1.544,9.396,0
602,35.405,-97.599,160.8,19.15,7.585,361,-0.039,1.332,9.591,0
603,35.405,-97.599,160.8,19.04,7.585,362,-0.062,1.533,9.512,1
604,35.405,-97.599,160.7,18.87,7.585,363,-0.056,1.78,9.475,1
605,35.405,-97.599,160.6,19.09,7.585,364,-0.136,1.952,9.439,1
606,35.404,-97.599,160.6,19.08,9.102,363,-0.106,1.808,9.482,1
607,35.404,-97.599,160.6,19.58,6.068,363,-0.096,1.706,9.415,1
608,35.404,-97.599,160.8,19.65,7.585,362,-0.136,1.447,9.477,1
609,35.404,-97.599,160.8,19.65,9.102,362,-0.137,1.371,9.53,1
