time,lat,lng,bearing,spd,acc,alt,accx,accy,accz,stable,
0,35.238,-97.455,153.2,20.77,16.687,325,-2.453,2.076,9.071,1
1,35.238,-97.455,154.2,20.59,16.687,323,-2.336,1.917,9.165,1
2,35.238,-97.455,154.8,20.62,18.204,323,-2.611,2.034,9.209,1
3,35.238,-97.455,154.4,20.22,19.721,323,-2.82,2.245,9.176,1
4,35.238,-97.455,151.4,18.19,21.238,321,-2.821,1.699,8.961,1
5,35.238,-97.455,151.7,18.53,21.238,319,-2.838,1.928,9.298,0
6,35.238,-97.455,156.3,18.39,21.238,321,-2.818,2.091,9.236,1
7,35.237,-97.455,159.8,19.74,21.238,317,-2.787,2.219,9.102,1
8,35.237,-97.455,161.7,19.42,21.238,318,-2.583,2.138,9.037,1
9,35.237,-97.454,161.9,20.47,21.238,318,-2.529,2.3,9.016,1
10,35.237,-97.454,161,19.78,18.204,319,-2.685,2.543,8.838,1
11,35.237,-97.454,162.5,20.12,18.204,320,-2.895,2.643,8.903,1
12,35.236,-97.454,162.5,20.36,18.204,320,-2.827,2.556,8.952,1
14,35.236,-97.454,162.6,20.91,18.204,321,-2.884,2.482,8.877,1
14,35.236,-97.454,162.6,20.91,18.204,321,-2.884,2.482,8.877,1
15,35.236,-97.454,163.2,21.08,18.204,324,-2.635,1.705,9.041,1
16,35.236,-97.454,163.3,21.4,18.204,326,-2.766,1.716,9.046,1
17,35.236,-97.454,162.8,20.74,19.721,328,-2.914,1.724,9.296,1
18,35.235,-97.454,164.4,20.51,18.204,327,-2.905,1.67,9.05,0
19,35.235,-97.454,164.3,20.61,18.204,328,-2.901,1.807,9.435,0
20,35.235,-97.454,165.2,20.62,18.204,329,-2.13,1.711,9.272,1
21,35.235,-97.454,166,19.98,18.204,328,-1.555,1.68,9.304,0
22,35.235,-97.454,169.2,19.29,16.687,329,-2.11,1.672,9.268,0
23,35.234,-97.454,172.8,18.77,16.687,331,-3.341,1.827,9.126,1
24,35.234,-97.454,173.5,18.83,15.17,329,-3.936,1.031,8.945,0
25,35.234,-97.454,171.6,18.55,16.687,331,-2.77,0.513,9.776,0
26,35.234,-97.454,168.1,16.08,16.687,332,-1.376,0.694,9.641,0
27,35.234,-97.453,171.4,14.44,15.17,334,-1.415,0.756,9.701,0
28,35.234,-97.453,171,14.14,16.687,332,-2.601,-0.054,9.57,0
29,35.234,-97.453,172.7,13.75,16.687,332,-2.69,0.333,9.702,0
30,35.233,-97.453,169.8,12.68,18.204,329,-2.663,0.215,9.681,0
31,35.233,-97.453,164,12.6,19.721,329,-2.783,0.199,9.527,0
32,35.233,-97.453,170,10.33,19.721,328,-2.677,0.639,9.575,0
33,35.233,-97.453,172.2,8.25,19.721,329,-2.563,1.784,9.189,0
34,35.233,-97.453,166.9,5.84,19.721,330,-2.572,1.673,9.224,1
35,35.233,-97.453,186.1,4.33,19.721,330,-2.642,0.299,9.396,0
36,35.233,-97.453,176.4,3.81,19.721,330,-2.593,1.048,9.397,0
37,35.233,-97.453,179.7,2.23,19.721,330,-2.529,1.463,9.17,1
38,35.233,-97.453,216.1,1.62,19.721,331,-2.562,1.906,9.163,1
39,35.233,-97.453,201.7,0.85,18.204,329,-2.504,1.891,9.109,1
40,35.233,-97.453,41.5,0.28,18.204,328,-2.544,1.887,9.185,1
41,35.233,-97.453,0,0,18.204,329,-2.545,1.89,9.147,1
42,35.233,-97.453,265.5,0.98,18.204,329,-2.567,1.888,9.202,1
43,35.233,-97.453,26.3,0.82,19.721,329,-2.563,1.899,9.136,1
44,35.233,-97.453,281.8,0.96,18.204,329,-2.573,1.9,9.168,1
45,35.233,-97.453,251,0.55,18.204,329,-2.545,1.893,9.183,1
46,35.233,-97.453,223,1.61,18.204,329,-2.548,1.904,9.177,1
47,35.233,-97.453,223,1.61,18.204,329,-2.534,1.884,9.131,1
48,35.233,-97.453,317,1.17,19.721,330,-2.56,1.889,9.176,1
49,35.233,-97.453,30.2,0.64,19.721,331,-2.577,1.894,9.206,1
50,35.233,-97.453,94.5,1.42,19.721,331,-2.545,1.886,9.161,1
51,35.233,-97.453,131.1,1.77,18.204,330,-2.564,1.897,9.175,1
52,35.233,-97.453,146.5,0.75,18.204,329,-2.533,1.871,9.168,1
53,35.233,-97.453,146.5,0.75,18.204,329,-2.529,1.921,9.192,1
54,35.233,-97.453,337.4,1.88,18.204,331,-2.562,1.891,9.131,1
55,35.233,-97.453,337.4,1.88,18.204,331,-2.536,1.899,9.202,1
56,35.233,-97.453,349.6,0.89,18.204,329,-2.534,1.884,9.166,1
57,35.233,-97.453,327.4,1.07,18.204,327,-2.538,1.897,9.163,1
58,35.233,-97.453,310.3,1.81,18.204,325,-2.51,1.897,9.106,1
59,35.233,-97.453,318.5,1.35,18.204,325,-2.589,1.901,9.187,1
60,35.233,-97.453,318.5,1.35,18.204,325,-2.532,1.902,9.15,1
61,35.233,-97.453,244,1.13,18.204,322,-2.519,1.894,9.144,1
62,35.233,-97.453,149.9,1.46,18.204,323,-2.556,1.915,9.204,1
63,35.233,-97.453,147.8,0.28,18.204,323,-2.569,1.892,9.182,1
64,35.233,-97.453,169.1,1.44,18.204,324,-2.53,1.907,9.115,1
65,35.233,-97.453,176,1.98,16.687,323,-2.558,1.905,9.209,1
66,35.233,-97.453,189,1.35,18.204,323,-2.54,1.883,9.105,1
67,35.233,-97.453,189,1.35,18.204,323,-2.539,1.898,9.12,1
68,35.233,-97.453,189,1.35,18.204,323,-2.553,1.88,9.141,1
69,35.233,-97.453,189,1.35,18.204,323,-2.571,1.905,9.151,1
71,35.233,-97.453,5.4,1.69,18.204,325,-2.56,1.885,9.14,1
71,35.233,-97.453,5.4,1.69,18.204,325,-2.56,1.885,9.14,1
72,35.233,-97.453,44,1.55,16.687,324,-2.558,1.909,9.148,1
73,35.233,-97.453,33.2,1.01,18.204,325,-2.575,1.889,9.148,1
74,35.233,-97.453,6.1,0.56,18.204,326,-2.586,1.89,9.165,1
75,35.233,-97.453,310.6,1.14,16.687,326,-2.55,1.901,9.165,1
76,35.233,-97.453,295.3,0.85,18.204,325,-2.472,1.881,9.114,1
77,35.233,-97.453,295.3,0.85,18.204,325,-2.483,1.901,9.183,1
78,35.233,-97.453,132.4,1.16,18.204,327,-2.471,1.904,9.15,1
79,35.233,-97.453,162.1,2.13,16.687,327,-2.514,1.894,9.194,1
80,35.233,-97.453,170.9,1.09,16.687,327,-2.547,1.88,9.118,1
81,35.233,-97.453,189.9,1.04,16.687,326,-2.568,1.912,9.169,1
82,35.233,-97.453,249.5,1.32,16.687,327,-2.521,1.895,9.159,1
83,35.233,-97.453,314.3,1.31,16.687,328,-2.553,1.902,9.086,1
84,35.233,-97.453,341.9,1.32,16.687,329,-2.455,1.892,9.107,1
85,35.233,-97.453,1.4,1.37,18.204,329,-2.553,1.903,9.151,1
86,35.233,-97.453,34,1.25,18.204,328,-2.545,1.892,9.153,1
87,35.233,-97.453,69.3,0.75,18.204,329,-2.551,1.894,9.159,1
88,35.233,-97.453,139.9,1.51,18.204,330,-2.585,1.88,9.184,1
89,35.233,-97.453,199.6,2.25,16.687,330,-2.547,1.903,9.178,1
90,35.233,-97.453,223.1,2.01,16.687,329,-2.54,1.902,9.185,1
91,35.233,-97.453,243.8,2.04,16.687,329,-2.547,1.888,9.14,1
92,35.233,-97.454,268.5,1.38,18.204,330,-2.57,1.899,9.198,1
93,35.233,-97.454,284.5,0.69,18.204,331,-2.518,1.905,9.132,1
94,35.233,-97.454,284.5,0.69,18.204,331,-2.537,1.896,9.134,1
95,35.233,-97.454,183.2,1.17,16.687,331,-2.561,1.893,9.167,1
96,35.233,-97.453,123.9,1.44,18.204,333,-2.535,1.887,9.124,1
97,35.233,-97.453,106.3,1.16,18.204,333,-2.552,1.913,9.182,1
98,35.233,-97.453,74.4,1.45,18.204,332,-2.569,1.895,9.194,1
99,35.233,-97.453,76.4,0.89,18.204,332,-2.586,1.892,9.188,1
100,35.233,-97.453,90.6,1.82,18.204,333,-2.514,1.911,9.147,1
101,35.233,-97.453,116.3,1.68,18.204,332,-2.543,1.904,9.18,1
102,35.233,-97.453,135.9,1.31,18.204,332,-2.543,1.898,9.144,1
103,35.233,-97.453,188.1,2.65,18.204,331,-2.522,1.905,9.156,1
104,35.233,-97.453,203.1,1.05,18.204,331,-2.566,1.898,9.191,1
105,35.233,-97.453,212.6,1.49,16.687,332,-2.525,1.9,9.108,1
106,35.233,-97.453,207.3,1.92,16.687,332,-2.55,1.9,9.169,1
107,35.233,-97.453,217.7,2.33,18.204,332,-2.534,1.9,9.13,1
108,35.233,-97.453,237.3,1.87,18.204,334,-2.544,1.896,9.154,1
109,35.233,-97.453,280.4,2.05,18.204,334,-2.552,1.882,9.137,1
110,35.233,-97.454,328.1,1.35,18.204,335,-2.561,1.897,9.176,1
111,35.233,-97.453,8.9,2.28,18.204,336,-2.573,1.89,9.173,1
112,35.233,-97.453,27.9,2.11,18.204,336,-2.537,1.906,9.163,1
113,35.233,-97.453,31.4,0.64,18.204,336,-2.557,1.869,9.139,1
114,35.233,-97.453,14.3,0.81,18.204,337,-2.563,1.902,9.178,1
115,35.233,-97.453,346.4,1.07,18.204,336,-2.539,1.887,9.125,1
116,35.233,-97.453,316.4,0.73,18.204,336,-2.554,1.897,9.165,1
117,35.233,-97.453,316.4,0.73,18.204,336,-2.537,1.885,9.163,1
118,35.233,-97.453,193,0.71,18.204,334,-2.554,1.886,9.156,1
119,35.233,-97.453,138.8,1.02,18.204,335,-2.532,1.899,9.149,1
120,35.233,-97.453,105.3,1.06,18.204,335,-2.575,1.903,9.176,1
121,35.233,-97.453,105.3,1.46,18.204,335,-2.521,1.896,9.103,1
122,35.233,-97.453,105.3,1.46,18.204,335,-2.554,1.895,9.155,1
124,35.233,-97.453,226.1,1.31,18.204,334,-2.486,1.925,9.124,1
124,35.233,-97.453,226.1,1.31,18.204,334,-2.486,1.925,9.124,1
125,35.233,-97.453,276.8,1.06,18.204,335,-2.584,1.892,9.196,1
126,35.233,-97.453,295.6,0.67,16.687,335,-2.579,1.899,9.189,1
127,35.233,-97.453,295.6,0.67,16.687,335,-2.53,1.901,9.116,1
128,35.233,-97.454,213.2,0.96,16.687,333,-2.539,1.894,9.139,1
129,35.233,-97.454,186.1,1.05,18.204,332,-2.538,1.913,9.182,1
130,35.233,-97.453,172.1,0.96,16.687,334,-2.538,1.895,9.196,1
131,35.233,-97.453,177.7,1.29,16.687,334,-2.556,1.906,9.168,1
132,35.233,-97.453,180.3,1.45,16.687,334,-2.555,1.906,9.199,1
133,35.233,-97.453,173.9,0.9,16.687,334,-2.553,1.887,9.192,1
134,35.233,-97.453,125.8,1.65,18.204,334,-2.519,1.91,9.104,1
135,35.233,-97.453,96.6,1.2,18.204,335,-2.544,1.885,9.127,1
136,35.233,-97.453,64.6,1.54,18.204,337,-2.563,1.895,9.193,1
137,35.233,-97.453,54.4,1.71,18.204,337,-2.555,1.897,9.161,1
138,35.233,-97.453,38.2,1.18,18.204,337,-2.54,1.897,9.164,1
139,35.233,-97.453,41,1.57,18.204,337,-2.543,1.892,9.138,1
140,35.233,-97.453,38.1,1.11,18.204,337,-2.531,1.884,9.14,1
141,35.233,-97.453,40.9,0.84,18.204,339,-2.533,1.89,9.162,1
142,35.233,-97.453,36.3,0.85,18.204,340,-2.528,1.903,9.135,1
143,35.233,-97.453,36.3,0.85,18.204,340,-2.546,1.893,9.144,1
144,35.233,-97.453,36.3,0.85,18.204,340,-2.579,1.881,9.146,1
145,35.233,-97.453,36.3,0.85,18.204,340,-2.527,1.921,9.167,1
146,35.233,-97.453,251.4,1.48,18.204,338,-2.543,1.895,9.19,1
147,35.233,-97.453,245.4,1.62,16.687,338,-2.57,1.883,9.112,1
148,35.233,-97.453,232.5,1.78,18.204,339,-2.523,1.897,9.131,1
149,35.233,-97.453,231.3,1.04,16.687,341,-2.515,2.511,9.021,1
150,35.233,-97.453,231.3,1.04,16.687,341,-2.417,3.415,8.754,1
151,35.233,-97.453,231.3,1.04,16.687,341,-2.408,3.673,8.563,1
152,35.233,-97.453,219.4,0.97,18.204,346,-2.573,3.748,8.72,1
153,35.233,-97.453,190.5,3.16,16.687,345,-2.97,3.255,8.702,1
154,35.233,-97.453,185.9,3.66,16.687,344,-3.552,2.552,8.377,0
155,35.233,-97.453,182.7,3.66,16.687,344,-3.555,2.033,8.842,0
156,35.233,-97.453,180.6,4.03,16.687,343,-4.382,2.041,8.556,0
157,35.233,-97.453,151.2,7.14,16.687,342,-5.379,1.942,8.306,0
158,35.233,-97.453,135.3,7.75,15.17,342,-5.496,1.876,8.017,0
159,35.233,-97.453,119.1,8.42,15.17,341,-4.47,2.491,8.235,0
160,35.233,-97.453,101.6,8.59,15.17,343,-3.056,2.948,8.59,1
161,35.233,-97.453,90.4,9.58,15.17,342,-2.747,2.948,8.913,1
162,35.233,-97.453,90.8,11.3,15.17,341,-2.69,2.873,8.743,1
163,35.233,-97.453,86.2,12.3,15.17,341,-2.828,2.889,8.89,0
164,35.233,-97.452,87.5,13.6,15.17,341,-2.915,2.375,8.983,0
165,35.233,-97.452,88.4,14.75,15.17,341,-2.97,2.423,8.933,1
166,35.233,-97.452,88.1,15.54,15.17,337,-2.68,2.285,8.582,0
167,35.233,-97.452,89.5,16.18,15.17,336,-2.537,2.018,9.138,0
168,35.233,-97.452,89.6,16.8,15.17,336,-2.705,1.998,8.652,0
169,35.233,-97.452,90,16.92,15.17,334,-2.854,1.723,9.162,0
170,35.233,-97.451,90,17.07,15.17,334,-3.113,2.388,9.436,0
171,35.233,-97.451,89.9,16.82,16.687,336,-2.889,2.226,8.994,0
172,35.233,-97.451,91,17.34,16.687,335,-2.759,2.175,9.16,0
173,35.233,-97.451,90.7,16.91,15.17,335,-2.612,2.375,9.145,0
174,35.233,-97.451,90.1,17.5,15.17,335,-2.785,2.564,8.939,0
175,35.233,-97.451,91.9,17.31,15.17,334,-2.817,2.542,9.01,0
176,35.233,-97.45,90.9,17.05,15.17,333,-2.821,2.5,8.869,0
178,35.233,-97.45,90.3,17.21,15.17,331,-2.748,2.474,9.017,0
178,35.233,-97.45,90.3,17.21,15.17,331,-2.748,2.474,9.017,0
179,35.233,-97.45,90.1,17.5,15.17,329,-2.626,2.51,8.725,1
180,35.233,-97.45,90.9,17.4,15.17,331,-2.509,3.015,8.525,0
181,35.233,-97.449,88.7,17.37,15.17,330,-2.626,2.917,8.864,1
182,35.233,-97.449,90,18.1,15.17,332,-3.017,2.931,8.583,1
183,35.233,-97.449,90.7,18.94,15.17,332,-2.892,3.194,8.703,1
184,35.233,-97.449,90.6,19.35,16.687,332,-2.371,3.577,8.475,1
185,35.233,-97.449,90.7,21.03,15.17,331,-2.543,3.102,8.747,1
186,35.233,-97.448,89.6,21.14,16.687,332,-2.709,2.527,9.463,0
187,35.233,-97.448,89.4,22.35,18.204,333,-2.822,1.699,8.892,0
188,35.233,-97.448,89.5,22.84,16.687,332,-2.994,2.051,9.128,0
189,35.233,-97.448,89.8,23.04,16.687,329,-2.758,2.285,9.493,0
190,35.233,-97.447,89.9,23.3,18.204,328,-2.707,2.244,9.189,0
191,35.233,-97.447,89.8,23.33,18.204,328,-2.597,2.143,9.134,1
192,35.233,-97.447,90.2,23.57,19.721,328,-2.788,1.942,8.896,1
193,35.233,-97.446,91.1,23.46,18.204,326,-2.846,1.691,9.165,1
194,35.233,-97.446,90.2,23.25,18.204,326,-2.725,1.808,9.36,0
195,35.233,-97.446,90.4,23.04,18.204,326,-2.402,1.626,9.144,0
196,35.233,-97.446,90.4,22.57,16.687,326,-2.862,1.834,9.06,1
197,35.233,-97.445,90.5,22.59,16.687,327,-2.898,1.923,8.937,1
198,35.233,-97.445,90.5,22.4,16.687,326,-2.949,1.758,9.183,0
199,35.233,-97.445,90.8,22.42,16.687,327,-2.925,1.733,9.34,0
200,35.233,-97.445,91.2,22.83,16.687,326,-3.059,2.042,10.241,0
201,35.233,-97.444,89.6,21.21,16.687,328,-2.933,1.688,9.039,0
202,35.233,-97.444,89.7,21.06,16.687,328,-2.897,1.724,9.218,0
203,35.233,-97.444,90.4,21.05,16.687,329,-2.855,1.706,9.185,1
204,35.233,-97.444,91.3,20.27,16.687,329,-2.943,1.716,9.188,0
205,35.233,-97.444,91.1,20.09,16.687,329,-3.033,1.747,9.181,1
206,35.233,-97.443,90.9,19.97,16.687,330,-2.812,1.72,9.198,1
207,35.233,-97.443,91.7,19.35,16.687,329,-2.853,1.719,9.085,1
208,35.233,-97.443,92.1,18.9,18.204,328,-2.806,0.715,9.097,0
209,35.233,-97.443,93.9,19.49,19.721,332,-3.003,-0.479,9.634,0
210,35.233,-97.443,93.3,18.7,19.721,331,-3.1,-0.961,9.994,0
211,35.233,-97.442,91.3,14.11,18.204,330,-2.955,1.778,9.161,1
212,35.233,-97.442,91.7,12.61,16.687,329,-2.999,1.683,8.958,1
213,35.233,-97.442,92.2,12.39,18.204,329,-2.886,1.701,9.112,1
214,35.233,-97.442,90.9,12.09,18.204,329,-2.936,0.594,9.33,0
215,35.233,-97.442,92.3,11.12,19.721,330,-2.926,1.136,9.284,1
216,35.233,-97.442,92.6,9.05,18.204,329,-2.921,1.193,9.298,1
217,35.233,-97.442,88.8,8.02,16.687,329,-3.029,0.58,9.359,0
218,35.233,-97.442,90.1,7.72,16.687,328,-3.005,0.47,9.479,0
219,35.233,-97.442,90.4,6.8,18.204,326,-2.943,0.979,9.292,0
220,35.233,-97.442,89.4,5.78,18.204,326,-2.961,0.883,9.394,1
221,35.233,-97.442,91.4,4.82,18.204,326,-3.019,0.845,9.41,1
222,35.233,-97.442,106.3,2.72,19.721,327,-2.871,2.087,9.018,1
223,35.233,-97.442,134.9,0.7,18.204,326,-2.888,2.077,9.049,1
224,35.233,-97.442,84.9,0.2,18.204,327,-2.836,2.076,8.978,1
225,35.233,-97.442,0,0,18.204,328,-2.886,2.07,9.042,1
226,35.233,-97.442,0,0,18.204,328,-2.876,2.081,9.041,1
228,35.233,-97.442,0,0,16.687,328,-2.849,2.079,9.005,1
228,35.233,-97.442,0,0,16.687,328,-2.849,2.079,9.005,1
229,35.233,-97.442,0,0,16.687,329,-2.889,2.086,9.063,1
230,35.233,-97.442,0,0,16.687,329,-2.841,2.076,8.978,1
231,35.233,-97.442,0,0,16.687,329,-2.849,2.081,8.986,1
232,35.233,-97.442,0,0,16.687,329,-2.853,2.063,9.014,1
233,35.233,-97.442,0,0,15.17,331,-2.846,2.07,8.984,1
234,35.233,-97.442,0,0,15.17,331,-2.851,2.07,8.988,1
235,35.233,-97.442,0,0,15.17,331,-2.854,2.072,8.987,1
236,35.233,-97.442,0,0,15.17,331,-2.891,2.072,9.052,1
237,35.233,-97.442,0,0,15.17,331,-2.847,2.079,9.007,1
238,35.233,-97.442,0,0,15.17,331,-2.865,2.059,8.985,1
239,35.233,-97.442,0,0,15.17,331,-2.859,2.075,8.988,1
240,35.233,-97.442,0,0,15.17,331,-2.876,2.068,9.027,1
241,35.233,-97.442,0,0,15.17,331,-2.874,2.064,9.04,1
242,35.233,-97.442,0,0,15.17,331,-2.864,2.419,8.911,1
243,35.233,-97.442,0,0,15.17,331,-2.811,2.544,8.85,1
244,35.233,-97.442,0,0,15.17,331,-2.808,2.963,8.762,1
245,35.233,-97.442,0,0,15.17,331,-2.765,4.056,8.451,1
246,35.233,-97.442,0,0,15.17,331,-2.664,3.43,8.54,1
247,35.233,-97.442,0,0,15.17,331,-2.687,3.666,8.55,1
248,35.233,-97.442,87.6,5.16,15.17,333,-2.707,3.486,8.874,0
249,35.233,-97.441,89.6,6.8,15.17,332,-2.682,3.204,8.592,1
250,35.233,-97.441,92.7,8.1,15.17,331,-2.698,3.207,8.683,1
251,35.233,-97.441,88.2,9.08,15.17,331,-2.677,3.349,8.853,0
252,35.233,-97.441,89.3,10.19,15.17,331,-2.67,3.328,8.716,1
253,35.233,-97.441,89.1,11.31,15.17,332,-2.681,3.222,8.546,0
254,35.233,-97.441,89.6,12.27,15.17,332,-2.849,2.53,9.013,1
255,35.233,-97.441,89,13.67,15.17,331,-2.831,2.466,8.891,1
256,35.233,-97.441,88,14.04,15.17,331,-2.748,2.46,8.964,1
257,35.233,-97.44,87.9,14.38,15.17,333,-2.693,2.441,9.036,1
258,35.233,-97.44,87.9,14.77,16.687,332,-2.676,2.244,8.945,1
259,35.233,-97.44,91.1,15.58,16.687,332,-2.868,2.191,9.075,1
260,35.233,-97.44,91.1,15.76,16.687,330,-2.868,2.118,9.18,0
261,35.233,-97.44,90.7,15.88,16.687,331,-2.785,2.077,8.86,1
262,35.233,-97.439,89.7,15.68,18.204,332,-2.875,2.19,9.188,0
263,35.233,-97.439,93.5,16.07,16.687,330,-2.725,2.145,8.95,1
264,35.233,-97.439,93.3,16.15,16.687,329,-2.869,2.144,8.951,1
265,35.233,-97.439,91.7,16.37,18.204,330,-2.818,1.752,8.95,1
266,35.233,-97.439,91.8,16.11,16.687,329,-2.881,2.141,9.043,1
267,35.233,-97.439,90.7,15.5,16.687,327,-2.893,2.075,8.901,1
268,35.233,-97.438,90.5,15.41,16.687,329,-2.805,2.123,9.243,1
269,35.233,-97.438,89,15.12,16.687,329,-2.787,2.005,8.883,1
270,35.233,-97.438,89.2,14.84,16.687,327,-2.737,1.988,8.9,1
271,35.233,-97.438,88.6,15.16,18.204,328,-2.694,1.988,9.027,0
272,35.233,-97.438,91.9,15.73,16.687,328,-2.613,2.33,8.942,0
273,35.233,-97.438,88.7,15.58,16.687,327,-3.036,2.474,9.173,0
274,35.233,-97.437,89.8,15.39,16.687,330,-2.924,2.507,8.838,0
275,35.233,-97.437,90.7,16.17,16.687,330,-3.008,2.138,9.087,0
276,35.233,-97.437,90.6,16.45,16.687,327,-2.802,2.175,9.046,1
277,35.233,-97.437,90.4,16.55,18.204,327,-2.679,2.332,8.932,1
279,35.233,-97.437,90.3,16.78,18.204,327,-2.746,2.531,9.043,1
279,35.233,-97.437,90.3,16.78,18.204,327,-2.746,2.531,9.043,1
280,35.233,-97.436,90,17.55,16.687,328,-2.868,2.628,9.16,0
281,35.233,-97.436,89.7,18,16.687,327,-2.846,2.401,9.09,1
282,35.233,-97.436,90.7,18.34,18.204,329,-2.424,2.275,9.182,1
283,35.233,-97.436,90.7,18.22,18.204,331,-2.497,2.045,8.985,0
284,35.233,-97.436,92.3,18,18.204,331,-3,1.945,8.812,1
285,35.233,-97.435,92.6,18.24,18.204,330,-3.034,1.895,8.787,1
286,35.233,-97.435,92.2,17.86,16.687,329,-3.131,2.01,8.993,1
287,35.233,-97.435,92.6,17.78,16.687,327,-3.313,1.978,8.958,1
288,35.233,-97.435,90,17.73,16.687,327,-2.977,1.948,8.806,1
289,35.233,-97.434,89.9,17.81,16.687,327,-2.861,1.912,8.593,0
290,35.233,-97.434,89.5,18.2,16.687,326,-3.002,2.034,8.98,0
291,35.233,-97.434,88.7,17.83,16.687,326,-2.922,2.073,8.977,1
292,35.233,-97.434,89.4,18.06,16.687,326,-2.895,2.125,9.092,1
293,35.233,-97.434,90,18.17,15.17,326,-2.9,2.091,8.879,1
294,35.233,-97.433,88.8,18.38,16.687,325,-2.855,2.151,8.989,0
295,35.233,-97.433,89,18.7,16.687,326,-2.936,2.057,8.987,0
296,35.233,-97.433,89.3,18.87,16.687,324,-2.99,2.05,9.034,0
297,35.233,-97.433,89,18.59,16.687,324,-2.967,2.134,9.01,1
298,35.233,-97.433,88.4,18.65,16.687,325,-2.836,2.043,8.902,1
299,35.233,-97.432,88.3,18.84,16.687,325,-2.836,2.02,8.866,0
300,35.233,-97.432,90.2,19.22,16.687,323,-2.977,2.182,9.22,0
301,35.233,-97.432,90.5,19.5,16.687,323,-2.952,2.193,9.106,1
302,35.233,-97.432,90.1,19.22,16.687,327,-2.936,2.116,8.767,1
303,35.233,-97.432,90.2,19.35,16.687,327,-3.054,2.087,8.953,0
304,35.233,-97.431,90.1,19.43,16.687,326,-2.979,1.697,9.014,1
305,35.233,-97.431,88.4,19.16,16.687,327,-3.031,1.729,9.018,1
306,35.233,-97.431,89.8,18.86,16.687,327,-3.07,1.863,8.946,1
307,35.233,-97.431,90.7,18.94,16.687,327,-3.019,2.107,8.996,1
308,35.233,-97.431,90.1,18.45,16.687,326,-3.052,2.28,9.091,0
309,35.233,-97.43,90.3,18.49,16.687,327,-3.003,2.146,8.89,1
310,35.233,-97.43,88.9,18.55,16.687,326,-3.03,2.114,8.76,1
311,35.233,-97.43,89.9,18.74,16.687,327,-2.981,2.194,8.878,1
312,35.233,-97.43,89,18.64,16.687,327,-2.866,2.166,8.809,1
313,35.233,-97.43,89.4,18.91,16.687,327,-2.862,2.165,8.972,1
314,35.233,-97.429,89.9,19.15,16.687,328,-3.03,2.206,8.932,1
315,35.233,-97.429,90,19.23,16.687,328,-3.158,2.199,8.897,1
316,35.233,-97.429,90.6,19.39,15.17,328,-3.144,2.148,8.778,1
317,35.233,-97.429,89.8,19.17,15.17,329,-2.746,2.16,8.834,0
318,35.233,-97.428,89.2,19.35,15.17,331,-2.925,2.206,8.895,1
319,35.233,-97.428,89,19.53,15.17,330,-2.789,2.151,8.955,1
320,35.233,-97.428,88.3,19.5,16.687,330,-2.871,2.176,8.906,1
321,35.233,-97.428,88.6,19.24,16.687,330,-2.963,2.206,9.142,1
322,35.233,-97.428,89.3,19.32,16.687,330,-2.961,2.268,9.215,0
323,35.233,-97.427,90,19.39,15.17,332,-2.891,1.769,8.872,1
324,35.233,-97.427,89.3,19.16,15.17,332,-2.955,2.005,9.052,1
325,35.233,-97.427,89.7,19.28,15.17,332,-2.863,2.066,9.003,1
326,35.233,-97.427,89.6,19.26,15.17,334,-2.814,2.096,9.074,1
327,35.233,-97.427,90.9,19.23,15.17,335,-2.896,1.845,9.053,1
328,35.233,-97.426,90.8,19.07,15.17,335,-3.063,1.651,9.123,0
329,35.233,-97.426,90.2,18.95,15.17,334,-2.726,2.208,9.07,0
330,35.233,-97.426,92.3,18.88,15.17,334,-2.681,2.137,9.133,0
332,35.233,-97.426,92.8,18.56,15.17,334,-2.786,2.228,8.524,1
332,35.233,-97.426,92.8,18.56,15.17,334,-2.786,2.228,8.524,1
333,35.233,-97.425,92.7,18.67,15.17,335,-3.124,2.358,8.307,0
334,35.233,-97.425,91.8,19.02,15.17,334,-2.825,2.507,8.575,0
335,35.233,-97.425,90.2,19.44,15.17,333,-3.206,1.988,9.677,0
336,35.233,-97.425,89.8,19.42,15.17,333,-2.795,1.578,8.567,0
337,35.233,-97.424,88.9,18.77,15.17,333,-2.89,1.814,9.564,0
338,35.233,-97.424,89.1,18.56,15.17,334,-3.208,0.84,10.041,0
339,35.233,-97.424,89.2,17.38,15.17,334,-3.087,-0.345,9.635,0
340,35.233,-97.424,91.8,14.89,15.17,334,-2.648,-0.742,10.309,0
341,35.233,-97.424,92.9,12.11,15.17,333,0.454,-0.466,10.48,0
342,35.233,-97.424,99.5,9.66,15.17,331,1.302,2.547,9.095,0
343,35.233,-97.424,127.4,8.27,15.17,332,2.315,3.621,9.203,0
344,35.233,-97.424,132.1,8.71,16.687,331,-0.745,4.541,8.697,0
345,35.233,-97.423,137.6,9.37,18.204,331,-2.73,3.458,8.972,0
346,35.233,-97.423,145.5,9.7,21.238,332,-2.936,2.132,8.98,0
347,35.232,-97.423,148.3,11.37,24.272,332,-2.822,2.243,8.917,0
348,35.232,-97.423,167.5,11.71,27.306,331,-2.458,2.132,8.884,0
349,35.232,-97.423,167.3,13.88,21.238,332,-2.521,2.315,9.213,0
350,35.232,-97.423,169.3,13.14,21.238,333,-2.504,2.179,8.867,0
351,35.232,-97.423,172.4,15.09,22.755,333,-2.974,1.932,8.806,0
352,35.232,-97.423,176.6,16.04,21.238,334,-2.73,2.003,8.611,0
353,35.231,-97.423,181.1,17.84,22.755,334,-2.783,2.124,9.267,0
354,35.231,-97.424,184.6,18.54,24.272,335,-3.203,2.262,8.864,0
355,35.231,-97.424,186.4,19.07,21.238,335,-2.787,2.183,8.466,0
356,35.231,-97.424,190.5,18.38,21.238,335,-2.949,2.382,9.005,1
357,35.231,-97.424,183,18.76,21.238,334,-2.883,1.799,9.183,1
358,35.231,-97.424,185.7,19.36,21.238,335,-3,1.715,9.202,1
359,35.23,-97.424,181.4,19.05,19.721,334,-2.94,1.973,8.908,1
360,35.23,-97.424,183.3,19.36,19.721,333,-3.03,1.685,9.066,0
361,35.23,-97.424,183.5,19.72,18.204,334,-3.112,1.967,9.016,1
362,35.23,-97.424,180.3,18.62,18.204,333,-2.767,2.094,8.947,0
363,35.23,-97.424,178.6,17.37,19.721,331,-2.519,2.234,9.117,1
364,35.23,-97.424,174.7,15.88,18.204,330,-2.437,1.824,9.373,1
365,35.23,-97.424,174.3,16.06,18.204,328,-2.829,1.953,8.913,1
366,35.229,-97.424,178.2,16.77,18.204,329,-2.744,2.033,8.98,1
367,35.229,-97.424,180.4,17.31,18.204,330,-2.756,2.105,8.961,1
368,35.229,-97.424,180.3,16.75,18.204,330,-2.704,2.256,8.993,1
369,35.229,-97.424,183.6,17.78,18.204,331,-2.734,2.061,8.903,1
370,35.229,-97.424,181.5,18.37,18.204,331,-2.845,1.79,8.933,1
371,35.229,-97.424,180,17.81,18.204,330,-3.02,2.004,9.238,0
373,35.228,-97.424,180.9,17.68,18.204,329,-3.019,2.199,8.989,1
373,35.228,-97.424,180.9,17.68,18.204,329,-3.019,2.199,8.989,1
374,35.228,-97.424,187.4,17.05,19.721,330,-2.879,2.182,8.964,1
375,35.228,-97.424,182.5,16.11,19.721,329,-2.847,1.692,9.058,1
376,35.228,-97.424,177.2,15.09,19.721,326,-2.88,1.692,9.049,1
377,35.228,-97.424,177.1,16.41,21.238,327,-2.721,1.638,8.958,1
378,35.227,-97.424,171.7,17.23,21.238,328,-2.83,1.887,9.221,1
379,35.227,-97.423,172.6,17.58,19.721,329,-2.878,1.867,9.324,1
380,35.227,-97.423,173.2,18.3,21.238,330,-2.873,2.373,9.081,1
381,35.227,-97.424,180.4,19.14,21.238,330,-2.742,2.636,8.708,1
382,35.227,-97.424,184.2,19.26,21.238,331,-2.816,3.047,8.832,1
383,35.227,-97.424,182.5,20.07,21.238,333,-2.817,2.52,8.789,1
384,35.226,-97.424,182.4,20.42,21.238,331,-2.768,2.487,8.895,1
385,35.226,-97.424,184.9,20.55,19.721,332,-2.72,2.568,8.839,0
386,35.226,-97.424,193.5,18.72,19.721,332,-2.759,2.167,8.575,0
387,35.226,-97.424,194.9,17.82,21.238,332,-3.097,1.745,9.307,0
388,35.226,-97.424,186.6,18.6,22.755,333,-2.893,1.903,8.747,0
389,35.226,-97.424,181.4,20.6,21.238,334,-3.017,1.754,9.054,0
390,35.225,-97.424,179.5,20.6,21.238,333,-2.744,1.633,9.002,1
391,35.225,-97.424,174.1,19.6,21.238,332,-2.496,1.719,9.313,0
392,35.225,-97.424,172.8,18.27,19.721,330,-2.8,1.672,9.096,0
393,35.225,-97.424,174.6,18.95,21.238,330,-2.691,1.687,9.002,0
394,35.225,-97.424,175.6,21.25,21.238,328,-2.847,1.997,9.056,0
395,35.224,-97.424,179.2,20.95,19.721,330,-2.789,1.976,9.008,1
396,35.224,-97.424,177.7,20.91,19.721,330,-2.813,1.897,8.98,1
397,35.224,-97.424,176.6,20.52,19.721,330,-2.809,1.681,9.024,0
398,35.224,-97.424,184.1,20.09,21.238,331,-2.923,1.98,8.95,0
399,35.224,-97.424,182.9,20.85,19.721,329,-2.866,1.977,8.899,1
400,35.223,-97.424,180.8,20.98,19.721,330,-2.899,2.043,9.134,1
401,35.223,-97.424,181.2,19.77,19.721,331,-2.884,1.99,9.086,1
402,35.223,-97.424,179.3,20.44,19.721,332,-2.711,2.003,9.048,1
403,35.223,-97.424,179.8,19.43,18.204,332,-2.71,1.97,9.069,0
404,35.223,-97.424,177.5,19.48,18.204,333,-2.62,1.99,9.076,1
405,35.223,-97.424,178.1,18.51,19.721,333,-2.756,2.186,9.008,1
406,35.223,-97.424,180.6,18.12,18.204,333,-2.753,2.157,9.075,1
407,35.222,-97.424,180,18.2,18.204,333,-3.071,2.325,9.081,0
408,35.222,-97.424,179.2,19.09,18.204,332,-2.806,2.149,9.075,0
409,35.222,-97.424,177.7,20.13,18.204,334,-2.77,2.134,9.094,0
410,35.222,-97.424,179.4,21.13,18.204,333,-2.705,2.182,8.96,1
411,35.222,-97.424,181.8,21.72,18.204,333,-2.748,1.837,9.287,0
412,35.221,-97.424,175.8,19.77,18.204,332,-2.831,1.621,9.171,0
413,35.221,-97.424,179.2,19.48,18.204,333,-2.77,1.66,9.259,0
414,35.221,-97.424,182.3,19.44,19.721,333,-3.238,1.704,9.179,0
415,35.221,-97.424,186.3,19.29,19.721,334,-3.029,1.71,8.996,0
416,35.221,-97.424,181.9,18.3,18.204,334,-2.809,1.474,9.066,0
417,35.221,-97.424,177.5,18.42,18.204,333,-2.72,1.526,9.11,0
418,35.22,-97.424,178.8,18.68,18.204,334,-2.652,1.458,8.033,0
419,35.22,-97.424,182.9,20.5,19.721,331,-3.083,1.772,9.428,0
421,35.22,-97.424,181.6,21.11,18.204,330,-2.596,1.616,8.915,0
421,35.22,-97.424,181.6,21.11,18.204,330,-2.596,1.616,8.915,0
422,35.22,-97.424,179.6,19.81,18.204,329,-2.504,1.541,8.923,0
423,35.219,-97.424,178.4,18.97,18.204,328,-2.099,1.564,9.421,0
424,35.219,-97.424,182.6,18.28,19.721,329,-1.958,2.494,8.821,1
425,35.219,-97.424,184.6,17.95,19.721,330,-2.92,3.199,8.721,0
426,35.219,-97.424,185,18.95,18.204,331,-3.753,3.054,8.395,0
427,35.219,-97.424,183.7,19.1,16.687,331,-3.2,1.926,8.865,0
428,35.219,-97.424,184.4,19.63,18.204,329,-3.919,2.445,10.861,0
429,35.218,-97.424,184.9,19.53,18.204,329,-2.422,1.924,9.06,0
430,35.218,-97.424,182.9,20.96,19.721,330,-3.045,2.103,9.38,0
431,35.218,-97.424,183.1,22.2,21.238,330,-2.761,1.84,8.416,0
432,35.218,-97.424,178.1,19.28,19.721,330,-2.87,2.236,8.787,0
433,35.218,-97.424,175.3,18.89,19.721,327,-3.497,2.568,9.181,0
434,35.218,-97.424,176.4,19.66,21.238,327,-3.179,2.432,9.145,0
435,35.217,-97.424,175.9,20.79,21.238,326,-2.186,1.893,7.99,0
436,35.217,-97.424,175.1,21.32,19.721,324,-2.709,1.854,9.747,0
437,35.217,-97.424,175.8,20.89,21.238,324,-2.703,1.641,9.451,0
438,35.217,-97.424,178.3,20.82,19.721,325,-2.705,1.63,8.633,0
439,35.217,-97.424,176.6,20.09,19.721,324,-2.981,1.951,8.985,0
440,35.216,-97.424,177.9,21.29,19.721,324,-2.695,2.063,8.979,0
441,35.216,-97.424,181.4,22.37,19.721,323,-2.783,2.182,9.332,1
442,35.216,-97.424,180.1,21.9,19.721,323,-2.888,2.065,9.118,1
443,35.216,-97.424,182.6,21.65,19.721,324,-2.785,2.051,9.026,0
444,35.216,-97.424,181.9,21.6,19.721,323,-2.83,2.084,8.983,1
445,35.215,-97.424,183.7,21.72,19.721,322,-2.997,2.088,8.933,1
446,35.215,-97.424,183,21.34,19.721,322,-2.976,2.098,8.931,1
447,35.215,-97.424,182.4,22.71,18.204,321,-2.731,2.024,8.635,1
448,35.215,-97.424,183.7,23.41,18.204,321,-2.932,2.172,9.227,0
449,35.215,-97.424,181.5,21.55,18.204,318,-2.888,1.673,9.054,1
450,35.214,-97.424,180.1,20.9,18.204,317,-2.86,1.621,8.989,1
451,35.214,-97.424,179.2,20.09,18.204,319,-2.89,1.625,9.146,0
452,35.214,-97.424,176.1,19.34,18.204,315,-3.008,1.97,9.248,0
453,35.214,-97.424,174.4,18.61,19.721,312,-2.952,1.764,9.073,0
454,35.214,-97.424,178.3,19.93,19.721,311,-2.931,2.121,9.197,1
455,35.214,-97.424,180.5,20.84,19.721,310,-2.791,2.256,9.08,1
456,35.213,-97.424,180.8,20.34,19.721,321,-2.79,2.234,8.999,1
457,35.213,-97.424,180.9,21,19.721,319,-2.814,2.191,9.042,1
458,35.213,-97.424,181.8,21.24,19.721,319,-2.807,2.084,8.853,1
459,35.213,-97.424,179.2,20.14,21.238,315,-2.85,2.21,9.067,0
460,35.213,-97.424,178.4,20.73,21.238,315,-2.791,1.746,9.084,1
461,35.212,-97.424,182.3,21.32,21.238,313,-2.804,2.232,8.858,1
462,35.212,-97.424,182,20.28,21.238,311,-2.859,2.303,9.137,0
463,35.212,-97.424,184.3,20.6,21.238,310,-2.927,2.069,9.251,1
464,35.212,-97.424,177.2,20.16,21.238,308,-2.84,2.05,9.15,0
465,35.212,-97.424,175.7,20.64,19.721,308,-2.917,2.109,9.158,1
466,35.212,-97.424,178.3,19.53,19.721,308,-2.82,2.161,9.007,0
468,35.211,-97.424,179.9,19.18,21.238,307,-2.888,2.155,9.037,0
468,35.211,-97.424,179.9,19.18,21.238,307,-2.888,2.155,9.037,0
469,35.211,-97.424,182,20.2,21.238,307,-2.784,2.25,8.802,1
470,35.211,-97.424,178.5,18.59,21.238,306,-2.925,1.922,8.883,1
471,35.211,-97.424,173.8,18.16,21.238,304,-2.876,2.195,8.721,0
472,35.211,-97.424,175.6,18.98,19.721,303,-2.882,2.201,8.936,1
473,35.21,-97.424,177,20.17,19.721,302,-2.509,2.199,8.924,1
474,35.21,-97.424,176.3,19.52,19.721,301,-2.508,2.31,9.204,1
475,35.21,-97.424,175.1,19.36,19.721,301,-2.797,2.195,8.866,0
476,35.21,-97.424,176.7,19.62,18.204,300,-2.68,2.03,8.959,0
477,35.21,-97.424,178.6,20.85,19.721,300,-2.763,2.078,9.226,1
478,35.209,-97.424,180.6,21.59,21.238,301,-2.733,1.899,9.014,1
479,35.209,-97.424,183,23.66,19.721,300,-2.853,1.713,9.072,1
480,35.209,-97.424,184.4,24.74,19.721,301,-2.858,1.746,9.249,1
481,35.209,-97.424,185.7,24.24,18.204,299,-2.801,1.951,9.139,1
482,35.208,-97.424,184,23.36,18.204,298,-2.805,1.782,9.053,1
483,35.208,-97.424,182.2,21.53,18.204,297,-2.756,1.861,9.068,0
484,35.208,-97.424,182,21.73,18.204,296,-2.881,1.809,9.139,1
485,35.208,-97.424,181.3,20.45,18.204,297,-2.547,2.235,9.048,0
486,35.208,-97.424,180.5,19.19,18.204,298,-2.591,1.979,9.167,0
487,35.208,-97.424,179.6,19.66,18.204,298,-2.914,2.024,9.159,1
488,35.207,-97.424,179,20.06,18.204,298,-2.992,1.819,9.166,1
489,35.207,-97.424,179.1,19.74,18.204,298,-2.901,1.968,8.945,1
490,35.207,-97.424,179.7,19.68,18.204,295,-2.856,1.907,9.063,1
491,35.207,-97.424,179.2,19.27,19.721,295,-2.921,2.057,9.125,1
492,35.207,-97.424,176.7,19.04,19.721,294,-2.899,1.826,9.298,0
493,35.207,-97.424,178.9,19.91,21.238,294,-2.77,1.62,8.886,1
494,35.206,-97.424,180,20.87,21.238,294,-2.951,1.736,9.325,0
495,35.206,-97.424,182.2,20.71,21.238,295,-2.429,1.24,8.527,0
496,35.206,-97.424,183.6,21.17,21.238,295,-2.923,0.797,9.921,0
497,35.206,-97.424,184.6,20.36,21.238,293,-2.77,0.244,9.131,0
498,35.206,-97.424,182.6,18.39,19.721,292,-2.899,0.179,8.887,0
499,35.205,-97.424,184.5,18.62,19.721,291,-3.316,0.353,8.973,0
500,35.205,-97.424,184.4,16.91,19.721,291,-3.319,0.473,9.783,0
501,35.205,-97.424,181.9,14.43,19.721,292,-2.836,-0.748,9.516,0
502,35.205,-97.424,178.8,12.99,21.238,293,-2.566,1.754,9.131,0
503,35.205,-97.424,178.5,10.48,22.755,292,-2.597,1.618,9.105,0
504,35.205,-97.424,182.5,10.53,24.272,293,-2.704,0.268,9.983,0
505,35.205,-97.424,182.5,10.53,24.272,293,-2.313,1.798,9.092,0
506,35.205,-97.424,182.3,6.8,24.272,292,-2.241,1.841,8.868,0
507,35.205,-97.424,181,6.56,25.789,293,-2.402,2.068,9.372,1
508,35.205,-97.424,177.1,6.3,30.34,293,-2.257,2.459,8.948,0
509,35.205,-97.424,183.1,6.66,28.823,294,-1.932,2.718,8.596,0
510,35.205,-97.424,180.3,5.87,28.823,296,-2.143,2.169,9.431,0
511,35.205,-97.424,182.9,7.28,25.789,296,-2.573,2.133,9.263,0
512,35.205,-97.424,179.4,7.01,24.272,297,-2.492,0.868,9.318,0
513,35.205,-97.424,176.1,7.04,21.238,296,-2.496,0.939,9.561,1
514,35.205,-97.424,173,6.19,21.238,296,-2.584,1.489,9.534,0
515,35.204,-97.424,175.4,5.62,21.238,295,-2.355,1.533,9.36,0
516,35.204,-97.424,184.1,5.85,21.238,295,-2.485,1.516,9.145,1
517,35.204,-97.424,188.2,5.34,19.721,296,-2.578,1.624,9.384,1
518,35.204,-97.424,187.3,5.25,21.238,297,-2.387,0.971,9.307,1
519,35.204,-97.424,192.5,4.74,19.721,298,-2.46,1.145,9.471,1
521,35.204,-97.424,193.5,4.4,19.721,297,-2.372,1.151,9.315,1
521,35.204,-97.424,193.5,4.4,19.721,297,-2.372,1.151,9.315,1
522,35.204,-97.424,206.4,2.15,18.204,302,-2.366,1.989,9.184,1
523,35.204,-97.424,208.2,0.76,18.204,302,-2.34,1.989,9.152,1
524,35.204,-97.424,196.4,0.16,19.721,302,-2.347,1.993,9.158,1
525,35.204,-97.424,55.5,0.98,19.721,303,-2.364,2.054,9.188,1
526,35.204,-97.424,358.4,0.44,19.721,302,-2.351,1.978,9.146,1
527,35.204,-97.424,59.1,0.31,19.721,302,-2.374,1.999,9.194,1
528,35.204,-97.424,103.3,1.19,19.721,304,-2.362,1.985,9.209,1
529,35.204,-97.424,133.5,1.64,18.204,304,-2.351,2.006,9.132,1
530,35.204,-97.424,205.2,0.92,18.204,304,-2.312,2.543,9.088,1
531,35.204,-97.424,170.9,1.57,18.204,306,-2.33,2.433,9.006,1
532,35.204,-97.424,194,2.17,19.721,308,-2.368,2.097,9.035,1
533,35.204,-97.424,198.2,1.03,19.721,310,-2.284,2.464,9.008,1
534,35.204,-97.424,198.2,1.03,19.721,310,-2.338,3.178,8.801,1
535,35.204,-97.424,107.2,1.81,18.204,310,-2.252,3.846,8.807,1
536,35.204,-97.424,84.3,0.38,19.721,311,-2.357,3.338,8.593,1
537,35.204,-97.424,128,2.71,19.721,311,-2.423,2.622,8.912,1
538,35.204,-97.424,166.2,3.39,19.721,311,-2.699,2.501,8.805,1
539,35.204,-97.424,172.7,4.36,18.204,310,-4.363,2.618,8.458,0
540,35.204,-97.424,173.5,6.84,16.687,310,-5.323,1.737,7.926,0
541,35.204,-97.424,153.3,7.84,16.687,309,-6.112,2.136,7.883,0
542,35.204,-97.424,130.9,7.83,16.687,307,-5.169,2.954,8.407,0
543,35.204,-97.423,128.3,7.77,16.687,308,-4.79,3.292,8.06,0
544,35.204,-97.423,98.3,9.24,16.687,308,-3.289,3.159,8.669,0
545,35.204,-97.423,97.8,9.45,16.687,310,-2.518,2.956,8.91,0
546,35.204,-97.423,92.3,10.95,16.687,311,-2.556,3.133,8.641,0
547,35.204,-97.423,90.6,12.31,16.687,311,-2.691,2.828,8.215,0
548,35.204,-97.423,86,13.19,18.204,309,-2.47,2.779,8.417,0
549,35.204,-97.423,86.1,13.65,16.687,310,-2.304,2.687,8.304,0
550,35.204,-97.423,86.4,14.01,18.204,308,-2.232,2.416,9.409,0
551,35.204,-97.422,88.1,14.59,19.721,308,-2.231,2.401,8.968,0
552,35.204,-97.422,91.6,15.98,21.238,310,-2.75,2.474,9.2,0
553,35.204,-97.422,85.2,16.08,21.238,310,-2.668,2.347,9.605,0
554,35.204,-97.422,87.4,15.89,21.238,309,-2.591,1.725,9.191,0
555,35.204,-97.422,88,16.88,22.755,310,-2.643,1.683,9.058,0
556,35.204,-97.421,90.8,16.87,21.238,311,-2.673,0.779,9.654,0
557,35.204,-97.421,91.9,17.32,21.238,312,-3.194,0.315,9.644,0
558,35.204,-97.421,90.8,16.97,21.238,312,-3.412,0.04,9.274,0
559,35.204,-97.421,94.4,15.41,19.721,311,-3.357,0.33,9.558,0
560,35.204,-97.421,93.9,13.75,19.721,312,-2.446,0.34,9.565,0
561,35.204,-97.42,100,12.96,19.721,311,-2.475,1.983,9.169,0
562,35.204,-97.42,98.8,13.18,21.238,312,-2.929,1.798,9.589,0
563,35.204,-97.42,95.4,11.75,19.721,312,-2.645,1.835,8.992,0
565,35.204,-97.42,85.9,9.42,19.721,312,-4.755,2.563,8.415,0
565,35.204,-97.42,85.9,9.42,19.721,312,-4.755,2.563,8.415,0
566,35.204,-97.42,85.4,8.36,19.721,312,-5.733,2.025,8.024,0
567,35.204,-97.42,60.5,7.16,18.204,312,-5.236,1.685,9.301,0
568,35.204,-97.42,59.8,6.88,18.204,311,-4.788,1.974,8.728,0
569,35.204,-97.42,53.3,6.14,18.204,310,-3.882,2.613,8.778,0
570,35.204,-97.42,2.6,6.75,16.687,311,-2.944,2.899,8.859,0
571,35.204,-97.42,359.7,7.84,16.687,310,-2.454,2.075,9.137,0
572,35.204,-97.42,357.6,7.89,15.17,309,-2.635,1.973,9.015,0
573,35.204,-97.42,358.1,7.8,15.17,309,-1.784,1.107,9.74,0
574,35.204,-97.42,359.3,7.16,15.17,308,-0.203,1.293,10.059,0
575,35.204,-97.42,2.5,6.38,16.687,307,0.508,1.537,10.241,0
576,35.204,-97.42,47.7,5.16,16.687,307,-0.444,1.828,9.19,0
577,35.204,-97.42,48.7,5.42,16.687,308,-3.245,2.586,8.962,0
578,35.204,-97.42,80.9,4.7,16.687,310,-2.819,2.936,8.74,0
579,35.204,-97.42,81,5.03,18.204,311,-3.03,2.396,9.019,0
580,35.204,-97.42,84.5,5.84,18.204,312,-2.993,1.972,9.263,1
581,35.204,-97.42,85,6.46,18.204,312,-2.484,1.868,9.15,0
582,35.204,-97.42,79.2,6.33,18.204,312,-2.507,1.984,9.386,0
583,35.204,-97.42,82.2,5.86,18.204,311,-2.349,2.014,9.514,0
584,35.204,-97.419,84.7,5.98,19.721,311,-2.534,1.846,8.978,0
585,35.205,-97.419,79.5,7.79,21.238,311,-2.321,1.878,9.209,0
586,35.205,-97.419,83.3,8.09,21.238,311,-2.499,1.899,9.155,1
587,35.205,-97.419,85.3,7.44,21.238,311,-2.568,1.419,9.465,0
588,35.205,-97.419,85.9,7.14,21.238,311,-2.688,0.528,9.608,0
589,35.205,-97.419,85,8.13,21.238,310,-2.865,1.836,8.887,1
590,35.205,-97.419,92.2,7.27,21.238,310,-3.328,1.91,8.709,0
591,35.204,-97.419,110.8,2.27,22.755,311,-4.285,2.258,8.837,0
592,35.204,-97.419,83.8,3.68,21.238,312,-4.75,2.196,8.859,0
593,35.205,-97.419,62.3,2.24,21.238,313,-3.263,2.422,8.682,0
594,35.205,-97.419,21.2,3.28,18.204,313,-3.074,1.977,8.929,0
595,35.205,-97.419,9.3,4.05,18.204,314,-2.679,1.91,9.107,1
596,35.205,-97.419,5.7,5.09,18.204,313,-2.915,0.899,9.622,0
597,35.205,-97.419,9,5.04,18.204,312,-2.673,1.393,8.997,0
598,35.205,-97.419,0.9,3.92,16.687,311,-2.886,1.291,9.222,1
599,35.205,-97.419,0,3.2,15.17,311,-3.44,1.771,8.943,0
600,35.205,-97.419,357.9,2.76,15.17,309,-3.738,0.991,9.03,0
