time,lat,lng,bearing,spd,acc,alt,accx,accy,accz,stable,
0,35.238,-97.455,153.5,20.67,10,332,2.875,2.853,8.969,1
1,35.238,-97.455,153.9,20.62,9,332,3.043,3.001,8.776,1
2,35.238,-97.455,155.2,20.68,9,333,3.111,2.675,8.917,1
3,35.238,-97.455,157,20.33,9,331,2.968,2.85,8.82,1
4,35.238,-97.455,158.1,20.29,9,331,2.736,2.849,8.962,1
5,35.238,-97.455,158.5,20.26,9,331,2.736,2.54,8.896,1
6,35.237,-97.455,158.8,19.94,9,332,2.739,2.703,8.883,1
7,35.237,-97.455,159.3,19.69,9,332,2.737,3.002,8.956,1
8,35.237,-97.454,159.8,19.67,9,331,2.722,3.037,8.821,1
9,35.237,-97.454,160.2,19.73,9,331,2.863,3.117,8.846,1
10,35.237,-97.454,161.1,19.83,9,332,2.868,3.305,8.802,1
11,35.237,-97.454,162.2,20.06,9,332,2.656,3.453,8.802,1
12,35.236,-97.454,162.8,20.49,9,332,2.455,3.378,8.804,1
13,35.236,-97.454,162.9,20.94,9,333,2.489,3.377,8.955,1
14,35.236,-97.454,163,21.4,9,332,2.668,3.025,8.959,1
15,35.236,-97.454,163,21.69,9,332,2.745,2.639,9.025,1
16,35.236,-97.454,163.2,21.37,9,332,2.688,2.575,8.819,1
17,35.235,-97.454,163.4,20.971,9,332,2.698,2.584,9.01,1
18,35.235,-97.454,163.6,20.69,9,332,2.73,2.519,8.89,1
19,35.235,-97.454,163.4,20.28,9,332,3.099,2.58,8.755,1
20,35.235,-97.454,163.9,19.9,9,332,3.397,2.672,8.76,1
21,35.235,-97.454,165.8,19.47,9,332,4.346,2.798,8.39,1
22,35.235,-97.454,168.9,19.071,9,333,3.333,2.613,8.531,1
23,35.234,-97.454,171.2,18.69,9,333,2.13,2.091,9.415,0
24,35.234,-97.454,172,18.37,9,333,2.439,1.747,9.941,0
25,35.234,-97.453,168.4,17.36,9,332,3.629,1.477,9.251,0
26,35.234,-97.453,167.4,15.79,9,331,4.264,1.95,8.401,0
28,35.234,-97.453,168.2,15.26,9,331,3.751,1.548,8.744,0
28,35.234,-97.453,168.2,15.26,9,331,3.751,1.548,8.744,0
29,35.234,-97.453,178.2,11.47,9,331,3.494,0.955,9.148,0
30,35.234,-97.453,178.7,9.4,9,330,3.364,1.082,8.961,0
31,35.233,-97.453,179.1,7.46,9,330,3.385,0.92,9.042,0
32,35.233,-97.453,179.1,5.5501,9,329,3.202,1.36,9.003,0
33,35.233,-97.453,178.9,4.14,9,328,3.147,1.686,8.975,0
34,35.233,-97.453,178.3,3.31,9,328,3.055,2.459,8.844,1
35,35.233,-97.453,179.6,3.1,9,329,3.199,1.785,9.035,1
36,35.233,-97.453,179,2.1104,9,330,3.221,1.537,9.045,1
37,35.233,-97.453,179,2.1104,9,330,3.082,2.106,8.891,1
38,35.233,-97.453,179,2.1104,9,330,2.98,2.588,8.824,1
39,35.233,-97.453,0,0,9,333,2.956,2.749,8.811,1
40,35.233,-97.453,0,0,9,333,2.952,2.775,8.801,1
41,35.233,-97.453,0,0,9,333,2.957,2.78,8.812,1
42,35.233,-97.453,0,0,9,333,2.965,2.793,8.825,1
43,35.233,-97.453,0,0,9,333,2.947,2.787,8.818,1
44,35.233,-97.453,0,0,9,333,2.941,2.793,8.801,1
45,35.233,-97.453,0,0,9,333,2.958,2.795,8.814,1
46,35.233,-97.453,0,0,9,333,2.952,2.787,8.799,1
47,35.233,-97.453,0,0,9,333,2.951,2.792,8.804,1
48,35.233,-97.453,0,0,9,333,2.945,2.787,8.814,1
49,35.233,-97.453,0,0,9,333,2.944,2.789,8.792,1
50,35.233,-97.453,0,0,9,334,2.951,2.784,8.808,1
51,35.233,-97.453,0,0,9,334,2.955,2.791,8.808,1
52,35.233,-97.453,0,0,9,334,2.962,2.789,8.837,1
53,35.233,-97.453,0,0,9,334,2.941,2.783,8.8,1
54,35.233,-97.453,0,0,9,334,2.945,2.792,8.801,1
55,35.233,-97.453,0,0,9,334,2.953,2.788,8.815,1
56,35.233,-97.453,0,0,9,334,2.943,2.784,8.808,1
57,35.233,-97.453,0,0,9,334,2.945,2.781,8.806,1
58,35.233,-97.453,0,0,9,334,2.962,2.786,8.813,1
59,35.233,-97.453,0,0,9,334,2.954,2.783,8.815,1
60,35.233,-97.453,0,0,9,334,2.942,2.779,8.787,1
61,35.233,-97.453,0,0,9,334,2.955,2.782,8.794,1
62,35.233,-97.453,0,0,9,334,2.964,2.778,8.801,1
63,35.233,-97.453,0,0,9,334,2.974,2.773,8.826,1
64,35.233,-97.453,0,0,9,334,2.954,2.779,8.842,1
65,35.233,-97.453,0,0,9,334,2.94,2.787,8.804,1
66,35.233,-97.453,0,0,9,334,2.939,2.778,8.807,1
67,35.233,-97.453,0,0,9,334,2.952,2.779,8.815,1
68,35.233,-97.453,0,0,9,334,2.947,2.784,8.813,1
69,35.233,-97.453,0,0,9,334,2.957,2.789,8.823,1
70,35.233,-97.453,0,0,9,334,2.937,2.797,8.82,1
71,35.233,-97.453,0,0,9,334,2.955,2.793,8.81,1
72,35.233,-97.453,0,0,9,334,2.949,2.768,8.827,1
73,35.233,-97.453,0,0,9,334,2.963,2.791,8.787,1
74,35.233,-97.453,0,0,9,334,2.956,2.791,8.802,1
75,35.233,-97.453,0,0,9,334,2.964,2.782,8.796,1
76,35.233,-97.453,0,0,9,334,2.937,2.78,8.801,1
77,35.233,-97.453,0,0,9,334,2.951,2.792,8.825,1
78,35.233,-97.453,0,0,9,334,2.926,2.779,8.804,1
79,35.233,-97.453,0,0,9,334,2.94,2.782,8.801,1
80,35.233,-97.453,0,0,9,334,2.951,2.792,8.803,1
81,35.233,-97.453,0,0,9,334,2.952,2.781,8.815,1
82,35.233,-97.453,0,0,9,334,2.955,2.778,8.801,1
83,35.233,-97.453,0,0,9,334,2.933,2.789,8.805,1
84,35.233,-97.453,0,0,9,334,2.969,2.785,8.811,1
85,35.233,-97.453,0,0,9,334,2.962,2.785,8.815,1
86,35.233,-97.453,0,0,9,334,2.956,2.788,8.818,1
87,35.233,-97.453,0,0,9,334,2.952,2.788,8.815,1
88,35.233,-97.453,0,0,9,334,2.943,2.782,8.811,1
89,35.233,-97.453,0,0,9,334,2.942,2.784,8.792,1
90,35.233,-97.453,0,0,9,334,2.959,2.785,8.822,1
91,35.233,-97.453,0,0,9,334,2.955,2.783,8.823,1
92,35.233,-97.453,0,0,9,334,2.959,2.782,8.821,1
93,35.233,-97.453,0,0,9,334,2.945,2.782,8.804,1
94,35.233,-97.453,0,0,9,334,2.946,2.79,8.805,1
95,35.233,-97.453,0,0,9,334,2.952,2.779,8.823,1
96,35.233,-97.453,0,0,9,334,2.928,2.777,8.8,1
97,35.233,-97.453,0,0,9,334,2.944,2.794,8.8,1
98,35.233,-97.453,0,0,9,334,2.944,2.79,8.8,1
99,35.233,-97.453,0,0,9,334,2.939,2.791,8.805,1
100,35.233,-97.453,0,0,9,334,2.944,2.786,8.818,1
101,35.233,-97.453,0,0,9,334,2.936,2.791,8.798,1
102,35.233,-97.453,0,0,9,334,2.948,2.778,8.825,1
103,35.233,-97.453,0,0,9,334,2.94,2.784,8.793,1
104,35.233,-97.453,0,0,9,334,2.94,2.779,8.807,1
105,35.233,-97.453,0,0,9,334,2.958,2.782,8.811,1
106,35.233,-97.453,0,0,9,334,2.956,2.779,8.802,1
107,35.233,-97.453,0,0,9,334,2.952,2.787,8.811,1
108,35.233,-97.453,0,0,9,334,2.959,2.782,8.827,1
109,35.233,-97.453,0,0,9,334,2.937,2.787,8.807,1
110,35.233,-97.453,0,0,9,334,2.936,2.788,8.802,1
111,35.233,-97.453,0,0,9,334,2.95,2.778,8.816,1
112,35.233,-97.453,0,0,9,334,2.939,2.788,8.796,1
113,35.233,-97.453,0,0,9,334,2.949,2.782,8.807,1
114,35.233,-97.453,0,0,9,334,2.941,2.789,8.803,1
115,35.233,-97.453,0,0,9,334,2.94,2.788,8.808,1
116,35.233,-97.453,0,0,9,334,2.953,2.782,8.811,1
117,35.233,-97.453,0,0,9,334,2.935,2.782,8.807,1
118,35.233,-97.453,0,0,9,334,2.956,2.79,8.809,1
119,35.233,-97.453,0,0,9,334,2.958,2.776,8.823,1
120,35.233,-97.453,0,0,9,334,2.944,2.779,8.812,1
121,35.233,-97.453,0,0,9,334,2.956,2.774,8.831,1
122,35.233,-97.453,0,0,9,334,2.939,2.787,8.824,1
123,35.233,-97.453,0,0,9,334,2.958,2.783,8.827,1
124,35.233,-97.453,0,0,9,334,2.951,2.782,8.821,1
125,35.233,-97.453,0,0,9,334,2.94,2.79,8.8,1
126,35.233,-97.453,0,0,9,334,2.948,2.778,8.828,1
127,35.233,-97.453,0,0,9,334,2.939,2.793,8.812,1
128,35.233,-97.453,0,0,9,334,2.945,2.775,8.797,1
129,35.233,-97.453,0,0,9,334,2.938,2.78,8.807,1
130,35.233,-97.453,0,0,9,334,2.945,2.784,8.806,1
131,35.233,-97.453,0,0,9,334,2.948,2.787,8.819,1
132,35.233,-97.453,0,0,9,334,2.939,2.793,8.797,1
133,35.233,-97.453,0,0,9,334,2.948,2.781,8.822,1
134,35.233,-97.453,0,0,9,334,2.949,2.776,8.814,1
135,35.233,-97.453,0,0,9,334,2.945,2.781,8.813,1
136,35.233,-97.453,0,0,9,334,2.939,2.786,8.803,1
137,35.233,-97.453,0,0,9,334,2.95,2.768,8.806,1
138,35.233,-97.453,0,0,9,334,2.944,2.78,8.794,1
139,35.233,-97.453,0,0,9,334,2.944,2.791,8.799,1
140,35.233,-97.453,0,0,9,334,2.943,2.783,8.805,1
141,35.233,-97.453,0,0,9,334,2.942,2.78,8.798,1
142,35.233,-97.453,0,0,9,334,2.933,2.776,8.774,1
143,35.233,-97.453,0,0,9,334,2.959,2.769,8.808,1
144,35.233,-97.453,0,0,9,334,2.947,2.775,8.809,1
145,35.233,-97.453,0,0,9,334,2.941,2.774,8.808,1
146,35.233,-97.453,0,0,9,334,2.933,2.769,8.81,1
147,35.233,-97.453,0,0,9,334,2.882,3.057,8.779,1
149,35.233,-97.453,0,0,9,334,2.734,3.866,8.668,1
149,35.233,-97.453,0,0,9,334,2.734,3.866,8.668,1
149,35.233,-97.453,0,0,9,334,2.734,3.866,8.668,1
151,35.233,-97.453,181.2,0.80006,9,336,2.72,3.841,8.635,1
152,35.233,-97.453,179,1.9401,9,335,2.5,4.583,8.567,0
153,35.233,-97.453,178.8,3.8001,9,335,2.351,4.154,8.554,0
154,35.233,-97.453,176.4,5.3701,9,335,1.937,3.732,8.919,0
155,35.233,-97.453,171.3,6.69,9,335,1.779,2.86,9.138,0
156,35.233,-97.453,159.6,7.3406,9,336,1.51,2.712,9.42,0
157,35.233,-97.453,156.7,7.4,9,336,0.706,2.523,9.643,0
158,35.233,-97.453,134.2,7.8996,9,336,0.179,2.429,9.707,0
159,35.233,-97.453,117.2,7.8811,9,336,0.74,2.912,9.508,0
160,35.233,-97.453,102.9,9.04,9,335,1.841,3.585,8.904,0
161,35.233,-97.453,89.9,10.02,9,335,2.448,3.806,8.69,0
162,35.233,-97.453,89.7,11.56,9,335,2.56,3.69,8.806,0
163,35.233,-97.453,90.4,12.82,9,335,2.667,3.711,8.967,0
164,35.233,-97.453,92.2,13.784,9,334,2.548,3.242,9.026,0
165,35.233,-97.452,90.6,15.006,9,333,2.531,3.273,8.683,0
166,35.233,-97.452,89.8,15.681,9,332,2.531,3.129,8.637,0
167,35.233,-97.452,89.6,16.37,10,332,2.687,2.99,8.874,0
169,35.233,-97.452,87.9,16.38,10,332,2.562,2.957,8.906,0
169,35.233,-97.452,87.9,16.38,10,332,2.562,2.957,8.906,0
170,35.233,-97.451,89.8,17.101,10,330,2.848,2.471,8.728,0
171,35.233,-97.451,89.9,16.892,10,329,2.636,2.813,8.9,0
172,35.233,-97.451,90.1,16.6,10,329,2.588,3.003,9.121,0
173,35.233,-97.451,89.8,16.95,10,329,2.754,3.039,9.087,0
174,35.233,-97.451,90,17.051,10,328,2.8,3.207,8.721,0
175,35.233,-97.45,90.5,17.172,10,328,2.519,3.44,8.524,0
176,35.233,-97.45,90.1,17.243,10,329,2.552,3.516,8.871,0
177,35.233,-97.45,90.1,17.294,10,330,2.586,3.082,8.864,0
178,35.233,-97.45,90.2,17.224,10,330,2.59,3.234,8.63,0
179,35.233,-97.45,89.9,17.134,10,332,2.589,3.117,8.658,0
180,35.233,-97.45,90,17.173,10,332,2.551,3.771,8.608,0
181,35.233,-97.449,90.9,17.824,10,333,2.524,3.814,8.801,0
182,35.233,-97.449,90.6,18.381,10,332,2.205,3.709,8.726,0
183,35.233,-97.449,89.5,19.081,10,333,2.293,3.989,8.47,0
184,35.233,-97.449,89.8,20.09,10,333,2.545,4.343,8.484,0
185,35.233,-97.448,89.5,21.37,9,333,2.542,4.103,8.791,0
186,35.233,-97.448,89.8,22.52,9,334,2.74,3.301,8.838,0
187,35.233,-97.448,90,22.9,9,332,2.75,2.724,8.984,0
188,35.233,-97.448,90.1,23.031,10,331,2.648,2.932,8.998,0
189,35.233,-97.447,90.3,23.011,9,330,2.756,3.025,8.9,0
190,35.233,-97.447,90.2,23.112,9,329,2.706,2.963,8.835,0
191,35.233,-97.447,90.1,23.26,9,328,2.769,2.95,8.786,0
192,35.233,-97.447,90,23.42,9,328,2.682,2.863,8.719,0
193,35.233,-97.446,90.1,23.612,10,327,2.83,2.603,8.861,1
194,35.233,-97.446,90.5,23.32,9,327,2.799,2.406,9.076,0
195,35.233,-97.446,90.2,22.921,9,327,3.033,2.564,8.943,0
196,35.233,-97.446,91.5,22.66,9,327,2.763,2.653,8.963,0
197,35.233,-97.445,92.3,22.37,10,328,2.54,2.588,8.994,0
198,35.233,-97.445,91.5,22.25,9,328,2.715,2.559,9.083,0
199,35.233,-97.445,91,22.04,9,329,2.798,2.5,9.319,0
200,35.233,-97.445,90.6,21.69,9,329,2.744,2.521,9.052,0
201,35.233,-97.444,90.9,21.49,9,329,2.725,2.557,8.99,0
202,35.233,-97.444,90.7,20.97,9,329,2.738,2.551,8.936,0
203,35.233,-97.444,90.7,20.61,9,328,2.766,2.554,8.889,0
204,35.233,-97.444,90.4,20.24,9,329,2.686,2.496,8.982,0
205,35.233,-97.444,90.8,19.87,9,328,2.7,2.547,8.911,0
206,35.233,-97.443,90.5,19.351,9,329,2.74,2.558,8.823,0
207,35.233,-97.443,90.2,19.02,9,329,2.742,2.535,8.995,1
208,35.233,-97.443,91.1,18.841,9,328,2.886,1.729,9.127,1
209,35.233,-97.443,90.5,18.241,9,328,3.135,0.692,9.282,1
210,35.233,-97.443,90.8,16.772,9,328,3.014,0.972,9.215,1
211,35.233,-97.442,92,14.001,9,328,2.685,2.313,9.033,1
212,35.233,-97.442,91.5,12.45,9,327,2.595,2.532,8.97,1
214,35.233,-97.442,91,12.061,9,328,2.83,2.026,9.001,1
214,35.233,-97.442,91,12.061,9,328,2.83,2.026,9.001,1
215,35.233,-97.442,89.9,10.47,9,329,2.994,1.415,9.11,1
216,35.233,-97.442,90.5,9.0107,9,330,2.859,1.839,9.067,1
217,35.233,-97.442,90.2,7.9501,9,329,2.885,1.793,9.095,1
218,35.233,-97.442,92.2,6.9504,9,330,2.915,1.405,9.107,1
219,35.233,-97.442,93.2,5.52,9,330,2.928,1.346,9.15,1
220,35.233,-97.442,96.3,3.9508,9,331,2.91,1.599,9.027,1
221,35.233,-97.442,99.4,2.8004,9,332,2.856,1.717,9.036,1
222,35.233,-97.442,97.5,1.5264,9,333,2.867,1.659,9.093,1
223,35.233,-97.442,97.5,1.5264,9,333,2.691,2.657,8.961,1
224,35.233,-97.441,0,0,9,334,2.645,2.859,8.92,1
225,35.233,-97.441,0,0,9,334,2.629,2.918,8.915,1
226,35.233,-97.441,0,0,9,334,2.64,2.908,8.924,1
227,35.233,-97.442,0,0,9,334,2.621,2.911,8.906,1
228,35.233,-97.442,0,0,9,334,2.632,2.919,8.928,1
229,35.233,-97.442,0,0,9,334,2.635,2.911,8.928,1
230,35.233,-97.442,0,0,9,334,2.634,2.91,8.919,1
231,35.233,-97.442,0,0,9,334,2.641,2.91,8.921,1
232,35.233,-97.442,0,0,9,334,2.638,2.911,8.934,1
233,35.233,-97.442,0,0,9,334,2.624,2.916,8.91,1
234,35.233,-97.442,0,0,9,334,2.638,2.911,8.932,1
235,35.233,-97.442,0,0,9,334,2.624,2.912,8.923,1
236,35.233,-97.442,0,0,9,334,2.637,2.907,8.928,1
237,35.233,-97.442,0,0,9,334,2.624,2.908,8.929,1
238,35.233,-97.442,0,0,9,334,2.626,2.907,8.921,1
239,35.233,-97.442,0,0,9,334,2.632,2.905,8.932,1
240,35.233,-97.442,0,0,9,334,2.618,2.914,8.926,1
241,35.233,-97.442,0,0,9,334,2.616,2.907,8.913,1
242,35.233,-97.442,0,0,9,334,2.605,3.089,8.901,1
243,35.233,-97.442,0,0,9,334,2.552,3.334,8.855,1
244,35.233,-97.442,0,0,9,334,2.48,3.7,8.795,1
245,35.233,-97.441,99.7,0.93536,9,335,2.287,4.609,8.621,0
246,35.233,-97.441,88.4,2.6205,10,336,2.331,4.285,8.621,0
247,35.233,-97.441,87.3,4.021,10,336,2.33,4.46,8.612,0
248,35.233,-97.441,89.3,5.4904,10,336,2.345,4.3,8.616,0
249,35.233,-97.441,89.1,6.85,10,335,2.368,4.145,8.663,0
250,35.233,-97.441,89.6,8.1801,10,336,2.432,4.156,8.752,0
251,35.233,-97.441,89.1,9.3406,10,335,2.409,4.193,8.645,0
252,35.233,-97.441,88.4,10.33,10,335,2.425,4.227,8.835,0
253,35.233,-97.441,90.3,11.81,10,335,2.338,4.183,9.113,0
254,35.233,-97.441,89.9,13.083,10,335,2.586,3.548,8.902,0
255,35.233,-97.441,88.5,13.9,10,334,2.612,3.387,8.914,0
256,35.233,-97.44,89.4,14.33,10,334,2.585,3.269,8.854,0
257,35.233,-97.44,90.1,14.75,10,333,2.644,3.281,8.884,0
258,35.233,-97.44,90.3,15.12,10,333,2.678,3.211,8.912,0
259,35.233,-97.44,89.7,15.241,10,334,2.687,3.112,8.909,0
261,35.233,-97.44,89.8,15.58,10,334,2.707,2.955,9.036,0
261,35.233,-97.44,89.8,15.58,10,334,2.707,2.955,9.036,0
262,35.233,-97.439,90,15.795,10,335,2.72,2.953,8.953,1
263,35.233,-97.439,90.8,15.882,10,336,2.682,2.929,8.818,1
264,35.233,-97.439,90.3,15.64,10,335,2.664,3.047,8.893,1
265,35.233,-97.439,89.5,15.54,10,336,2.638,3.072,8.854,1
266,35.233,-97.439,90,15.64,10,336,2.687,2.772,8.941,1
267,35.233,-97.438,89.9,15.33,10,336,2.592,2.951,8.835,1
268,35.233,-97.438,90.4,15.42,10,336,2.628,2.864,8.889,1
269,35.233,-97.438,89.8,15.46,10,336,2.717,2.898,8.929,1
270,35.233,-97.438,89.5,15.45,10,335,2.7,2.965,8.844,1
271,35.233,-97.438,89.1,15.562,10,335,2.693,2.88,8.878,1
272,35.233,-97.438,88.5,15.501,10,336,2.814,2.991,9.007,1
273,35.233,-97.437,89.1,15.511,10,336,2.769,2.992,8.807,1
274,35.233,-97.437,90.8,15.76,10,336,2.536,3.235,8.78,1
275,35.233,-97.437,90.1,16.09,10,337,2.42,3.328,8.859,1
276,35.233,-97.437,89.3,16.491,10,338,2.484,3.059,9.006,1
277,35.233,-97.437,89.6,16.77,10,337,2.674,2.95,8.964,1
278,35.233,-97.437,89.8,16.53,10,337,2.687,3.156,8.693,1
279,35.233,-97.436,88.7,16.63,10,337,2.641,3.308,8.756,1
280,35.233,-97.436,90.1,17.22,9,337,2.673,3.461,8.956,1
281,35.233,-97.436,89,17.53,10,337,2.68,3.299,8.824,1
282,35.233,-97.436,89.8,17.79,10,337,2.908,3.196,8.663,1
283,35.233,-97.436,90.9,18.02,10,337,2.95,3.07,8.731,1
284,35.233,-97.435,92.5,18.23,9,336,2.613,2.863,8.869,1
285,35.233,-97.435,92.3,18.15,10,336,2.501,2.863,8.965,1
286,35.233,-97.435,92.4,18.07,10,336,2.446,2.778,8.906,1
287,35.233,-97.435,91.3,17.722,10,335,2.353,2.75,8.983,1
288,35.233,-97.435,90.3,17.91,10,336,2.524,2.72,8.989,1
289,35.233,-97.434,90.6,18.01,10,337,2.505,2.648,8.754,1
290,35.233,-97.434,89.8,18.08,10,337,2.506,2.775,8.994,1
291,35.233,-97.434,89.4,18.08,10,337,2.56,2.826,8.959,1
292,35.233,-97.434,89.3,18.22,10,336,2.55,2.805,8.929,1
293,35.233,-97.434,88.5,18.191,10,337,2.551,2.965,8.984,1
294,35.233,-97.433,89.4,18.49,10,336,2.545,2.958,9.08,1
295,35.233,-97.433,88.9,18.59,10,338,2.594,2.926,8.964,0
296,35.233,-97.433,89.4,18.711,10,338,2.529,2.928,8.941,0
297,35.233,-97.433,89.5,18.871,10,338,2.61,2.883,8.854,0
298,35.233,-97.433,90.1,19.12,10,338,2.584,2.904,8.978,0
299,35.233,-97.432,89.4,19.02,10,337,2.562,2.847,8.841,0
300,35.233,-97.432,90,19.21,10,338,2.607,2.924,8.999,0
301,35.233,-97.432,90.5,19.29,10,338,2.568,2.924,8.963,0
302,35.233,-97.432,89.8,19.14,10,338,2.545,3.031,9.045,1
303,35.233,-97.432,90.4,19.34,9,339,2.426,2.882,9.038,1
304,35.233,-97.431,89.3,19.31,9,338,2.53,2.599,8.973,1
305,35.233,-97.431,89.7,19.22,10,338,2.597,2.546,8.974,1
306,35.233,-97.431,89.8,18.92,10,339,2.524,2.668,9.082,1
307,35.233,-97.431,89.5,18.43,10,339,2.527,2.907,9.053,1
308,35.233,-97.43,89.3,18.462,10,340,2.45,3.074,8.927,1
309,35.233,-97.43,89.6,18.46,10,340,2.429,2.994,8.912,1
310,35.233,-97.43,90.5,18.66,10,339,2.423,2.977,8.93,1
312,35.233,-97.43,89.8,18.71,9,340,2.432,3.019,8.949,1
312,35.233,-97.43,89.8,18.71,9,340,2.432,3.019,8.949,1
313,35.233,-97.429,89.1,18.72,9,341,2.567,3.019,8.914,1
314,35.233,-97.429,89.7,19.111,9,341,2.519,3.039,8.892,1
315,35.233,-97.429,89.3,19.04,9,341,2.43,3.004,8.868,1
316,35.233,-97.429,89.2,19.161,9,341,2.394,2.994,9.023,1
317,35.233,-97.429,89.3,19.441,9,342,2.403,2.987,8.99,1
318,35.233,-97.428,88.9,19.41,9,342,2.622,3.02,8.797,1
319,35.233,-97.428,89.5,19.33,9,342,2.586,3.011,8.881,1
320,35.233,-97.428,89.4,19.36,9,343,2.592,3.02,8.907,1
321,35.233,-97.428,89.4,19.38,9,342,2.561,3.045,8.894,1
322,35.233,-97.428,88.9,19.51,9,341,2.535,3.025,9.014,1
323,35.233,-97.427,89.8,19.58,9,341,2.499,3.002,8.815,1
324,35.233,-97.427,90.6,19.64,9,339,2.577,2.712,8.928,1
325,35.233,-97.427,90,19.32,9,339,2.562,2.787,8.764,1
326,35.233,-97.427,90.1,19.34,9,340,2.666,2.829,8.743,1
327,35.233,-97.426,90.2,19.11,10,340,2.658,2.948,8.957,1
328,35.233,-97.426,90.3,19,10,339,2.674,2.681,9.21,1
329,35.233,-97.426,91.7,18.95,10,339,2.705,2.514,9.12,0
330,35.233,-97.426,90.4,18.43,10,339,2.962,2.879,8.793,0
331,35.233,-97.426,92.3,18.58,10,340,2.718,2.93,8.869,0
332,35.233,-97.425,92.1,18.41,10,340,2.383,3.069,8.556,0
333,35.233,-97.425,92.1,18.72,10,339,2.248,3.17,9.027,0
334,35.233,-97.425,91.4,19.18,10,340,2.477,3.176,8.982,0
335,35.233,-97.425,91.3,19.66,10,339,2.63,2.603,9.153,0
336,35.233,-97.425,90.3,19.37,10,339,2.647,2.632,9.167,0
337,35.233,-97.424,89.8,18.93,10,339,2.738,2.394,8.85,0
338,35.233,-97.424,90,18.47,10,338,2.889,1.102,9.1,0
339,35.233,-97.424,90,17.221,9,337,3.07,0.496,9.139,0
340,35.233,-97.424,89.3,14.45,9,337,4.079,0.094,9.205,0
341,35.233,-97.424,91.2,11.451,9,337,6.359,1.173,7.798,0
342,35.233,-97.424,103.8,8.4509,9,337,6.788,3.978,7.063,0
343,35.233,-97.424,135.3,8.1851,9,338,6.57,5.174,6.802,0
344,35.233,-97.424,151.6,8.9014,9,337,4.144,5.364,7.754,0
345,35.233,-97.424,159.9,9.2108,10,336,2.562,4.351,8.456,0
346,35.232,-97.424,173.6,12.212,10,336,2.427,3.291,8.643,0
347,35.232,-97.424,180.1,15.522,10,335,2.52,3.184,8.974,0
348,35.232,-97.424,179.9,15.98,10,335,2.73,2.952,8.88,0
349,35.232,-97.424,179.7,16.26,10,332,2.88,3.111,8.837,0
350,35.232,-97.424,179.7,16.511,10,333,2.92,2.929,8.94,0
351,35.232,-97.424,180.5,16.801,10,332,2.728,2.815,9.204,0
352,35.232,-97.424,180.9,16.81,10,332,2.509,2.984,9.522,0
353,35.231,-97.424,180.9,16.85,9,330,2.47,2.921,9.008,0
354,35.231,-97.424,180.5,16.93,9,329,2.335,3.058,8.976,0
355,35.231,-97.424,179.7,17.04,9,330,2.587,3.127,8.946,0
357,35.231,-97.424,178.7,17.31,9,329,2.523,3.185,8.946,0
357,35.231,-97.424,178.7,17.31,9,329,2.523,3.185,8.946,0
358,35.231,-97.424,178.5,17.86,9,327,2.642,2.699,9.009,0
359,35.23,-97.424,178.5,17.68,9,326,2.634,2.539,9.01,0
360,35.23,-97.424,178.8,17.431,9,325,2.593,2.722,8.829,0
361,35.23,-97.424,178.8,17.4,9,326,2.512,2.698,9.019,1
362,35.23,-97.424,178.4,17.221,9,326,2.429,2.686,9.149,1
363,35.23,-97.424,177.8,17.25,9,327,2.651,2.841,8.963,1
364,35.23,-97.424,178.2,17.4,9,327,2.824,3.044,8.741,1
365,35.23,-97.424,178.9,17.58,9,326,3.035,2.842,8.795,1
366,35.229,-97.424,180.4,17.47,9,326,2.712,2.847,8.901,1
367,35.229,-97.424,180.2,17.373,9,323,2.675,2.858,8.885,1
368,35.229,-97.424,180.5,17.422,9,323,2.689,2.867,8.817,1
369,35.229,-97.424,180.6,17.611,9,322,2.739,3.06,9.041,1
370,35.229,-97.424,181.1,17.86,9,322,2.761,2.923,8.899,1
371,35.229,-97.424,181.5,17.95,9,322,2.708,2.67,8.974,1
372,35.228,-97.424,181.6,17.85,9,323,2.566,2.796,9.009,1
373,35.228,-97.424,181.1,17.84,9,324,2.514,2.952,9.022,1
374,35.228,-97.424,180.9,18.03,9,325,2.575,2.977,8.965,1
375,35.228,-97.424,180.5,18.17,9,324,2.671,2.657,8.939,1
376,35.228,-97.424,180.5,18.04,9,326,2.691,2.538,8.85,1
377,35.228,-97.424,180.4,17.7,9,327,2.753,2.517,9.051,1
378,35.227,-97.424,180.5,17.42,9,328,2.742,2.528,8.849,1
379,35.227,-97.424,180.4,17.18,9,327,2.675,2.672,8.945,1
380,35.227,-97.424,180.7,17.021,9,325,2.647,3.059,8.864,1
381,35.227,-97.424,180.8,17.25,9,326,2.55,3.511,8.839,1
382,35.227,-97.424,178.9,17.34,10,324,2.448,3.798,8.906,1
383,35.227,-97.424,180.1,18.03,10,324,2.423,3.498,8.809,1
384,35.226,-97.424,183.3,18.88,11,324,2.603,3.341,8.813,1
385,35.226,-97.424,181.6,19.75,11,324,2.552,3.383,8.754,1
386,35.226,-97.424,179.5,20.07,11,323,2.656,3.183,9.062,1
387,35.226,-97.424,179.4,20.57,11,322,2.652,2.628,8.906,1
388,35.226,-97.424,178.5,20.671,10,320,2.49,2.657,8.785,1
389,35.226,-97.424,180.3,20.84,10,320,2.6,2.511,8.982,1
390,35.225,-97.424,179.8,20.76,10,321,2.714,2.512,8.887,1
391,35.225,-97.424,179.6,20.51,10,321,2.952,2.546,8.802,1
392,35.225,-97.424,180.4,20.25,10,322,2.834,2.523,8.967,1
393,35.225,-97.424,180.4,19.94,9,322,2.68,2.553,9.005,1
394,35.225,-97.424,180.6,19.6,9,322,2.677,2.783,8.966,1
395,35.224,-97.424,180.4,19.48,9,322,2.685,2.823,8.938,1
396,35.224,-97.424,180.3,19.56,9,322,2.711,2.768,8.867,1
397,35.224,-97.424,180.4,19.61,9,322,2.735,2.614,9.112,1
398,35.224,-97.424,180.3,19.5,9,321,2.687,2.723,8.827,1
399,35.224,-97.424,180.3,19.4,9,320,2.602,2.815,8.918,1
400,35.224,-97.424,180.3,19.39,9,321,2.605,2.855,8.844,1
401,35.223,-97.424,179.9,19.4,9,322,2.659,2.791,8.806,1
402,35.223,-97.424,179.8,19.46,9,322,2.778,2.789,8.829,1
403,35.223,-97.424,179.7,19.54,9,322,2.818,2.793,8.863,1
405,35.223,-97.424,179.8,19.55,9,321,2.791,2.81,8.827,1
405,35.223,-97.424,179.8,19.55,9,321,2.791,2.81,8.827,1
406,35.223,-97.424,180.3,19.62,9,322,2.747,2.964,8.892,1
407,35.222,-97.424,180.4,19.83,9,321,2.668,3.002,8.808,1
408,35.222,-97.424,180.4,20.09,9,322,2.675,2.957,8.919,1
409,35.222,-97.424,180.3,20.34,9,321,2.666,2.964,8.823,1
410,35.222,-97.424,180.5,20.42,9,321,2.692,2.937,8.882,1
411,35.222,-97.424,180.7,20.59,9,320,2.763,3.123,9.279,0
412,35.221,-97.424,181,20.81,9,320,2.84,2.689,9.089,0
413,35.221,-97.424,181.6,20.71,9,320,2.743,2.556,9.021,0
414,35.221,-97.424,181.8,20.42,9,320,2.604,2.46,8.68,0
415,35.221,-97.424,181.6,20.2,9,320,2.547,2.46,8.784,0
416,35.221,-97.424,181,19.89,9,321,2.543,2.454,8.898,0
417,35.22,-97.424,180.6,19.59,9,321,2.721,2.446,8.859,0
418,35.22,-97.424,180.3,19.311,9,321,2.724,2.552,8.819,0
419,35.22,-97.424,180.1,19.041,9,319,2.704,2.459,8.588,1
420,35.22,-97.424,180.4,18.84,9,319,2.738,2.676,9.257,0
421,35.22,-97.424,180.1,18.6,9,318,2.892,2.473,8.834,0
422,35.22,-97.424,180.2,18.3,9,318,2.865,2.556,8.696,0
423,35.219,-97.424,180.7,18,9,318,3.394,2.497,8.229,0
424,35.219,-97.424,181.8,17.69,9,318,3.397,3.364,8.388,0
425,35.219,-97.424,184.2,18.01,9,319,2.292,3.395,8.328,0
426,35.219,-97.424,185,18.661,9,316,1.641,3.524,9.313,0
427,35.219,-97.424,182.3,19.96,9,316,2.147,2.923,8.954,0
428,35.219,-97.424,180.8,20.23,9,315,2.264,2.657,9.297,0
429,35.218,-97.424,180,20.05,9,314,2.612,2.654,8.333,0
430,35.218,-97.424,179.4,19.97,9,314,2.776,2.612,8.216,0
431,35.218,-97.424,180.2,20.171,9,313,2.536,2.667,8.456,0
432,35.218,-97.424,180.1,20.3,9,314,2.436,3.12,9.336,0
433,35.218,-97.424,179.7,20.6,9,312,1.957,3.264,9.366,0
434,35.218,-97.424,178.8,20.971,9,313,2.228,3.037,8.966,0
435,35.217,-97.424,177.8,21.452,9,313,2.679,3.008,9.129,0
436,35.217,-97.424,178,21.911,9,314,2.979,2.582,8.818,0
437,35.217,-97.424,178.6,21.94,9,314,3,2.525,8.789,0
438,35.217,-97.424,179.1,21.68,9,312,2.789,2.587,8.91,0
439,35.217,-97.424,179.6,21.42,9,312,2.636,2.738,9.021,0
440,35.216,-97.424,179.7,21.34,9,312,2.715,2.877,8.96,0
441,35.216,-97.424,179.7,21.36,9,313,2.785,2.905,8.938,0
442,35.216,-97.424,180,21.28,9,310,2.686,2.924,9.058,0
443,35.216,-97.424,180,21.35,9,310,2.677,2.945,9.03,1
444,35.216,-97.424,180.1,21.351,9,310,2.616,2.916,8.982,1
445,35.215,-97.424,180.3,21.311,9,311,2.502,2.941,9.052,1
446,35.215,-97.424,180.2,21.261,9,311,2.421,2.894,8.845,1
447,35.215,-97.424,179.9,21.12,9,312,2.639,2.871,8.707,1
448,35.215,-97.424,179.8,21.22,9,312,2.624,2.93,8.833,1
449,35.215,-97.424,180.1,21.361,9,312,2.703,2.592,8.933,1
451,35.214,-97.424,180.1,21.28,9,312,2.691,2.506,9.014,1
451,35.214,-97.424,180.1,21.28,9,312,2.691,2.506,9.014,1
452,35.214,-97.424,180,20.751,9,311,2.706,2.512,9.018,1
453,35.214,-97.424,180,20.5,9,309,2.661,2.613,9.168,1
454,35.214,-97.424,179.7,20.361,9,310,2.562,2.53,8.943,0
455,35.214,-97.424,179.6,19.92,9,308,2.6,2.837,8.927,0
456,35.213,-97.424,179.7,19.91,9,308,2.688,2.997,9.059,0
457,35.213,-97.424,180,20.031,9,308,2.662,2.994,8.99,0
458,35.213,-97.424,179.8,20.05,9,309,2.628,2.999,8.862,0
459,35.213,-97.424,180,20.1,9,309,2.59,3.068,8.789,0
460,35.213,-97.424,180.1,20.191,9,310,2.634,3.015,8.871,0
461,35.212,-97.424,180.1,20.18,9,310,2.692,2.805,8.83,1
462,35.212,-97.424,180.1,19.99,9,309,2.648,3.007,8.857,1
463,35.212,-97.424,180.2,20.07,9,308,2.6,3.19,8.801,1
464,35.212,-97.424,180.3,20.24,9,308,2.622,3.046,8.873,1
465,35.212,-97.424,180.4,20.24,9,310,2.573,2.889,8.906,1
466,35.212,-97.424,180.3,20.18,9,309,2.604,2.876,8.929,1
467,35.211,-97.424,180.1,20.19,9,309,2.608,2.89,8.928,1
468,35.211,-97.424,180,20.21,9,310,2.566,2.952,8.883,1
469,35.211,-97.424,179.8,20.2,9,310,2.497,3.103,8.899,1
470,35.211,-97.424,179.6,20.32,9,310,2.568,2.876,9.094,1
471,35.211,-97.424,179.3,20.32,9,311,2.453,3.007,8.919,1
472,35.21,-97.424,179,20.46,9,312,2.572,3.002,8.791,1
473,35.21,-97.424,178.7,20.63,9,311,2.663,3.06,8.699,1
474,35.21,-97.424,178.9,20.84,9,312,2.822,3.092,8.716,1
475,35.21,-97.424,179.6,21.08,9,312,2.653,3.072,8.784,1
476,35.21,-97.424,179.8,21.3,9,313,2.756,2.928,8.918,1
477,35.209,-97.424,179.8,21.48,9,312,2.776,2.85,8.794,1
478,35.209,-97.424,179.9,21.6,9,310,2.874,2.823,8.892,1
479,35.209,-97.424,180,21.59,9,310,2.733,2.545,8.861,1
480,35.209,-97.424,180.3,21.48,9,311,2.657,2.6,8.849,1
481,35.209,-97.424,180.2,21.19,9,311,2.753,2.73,8.814,1
482,35.209,-97.424,180,20.97,9,310,2.792,2.573,8.843,1
483,35.208,-97.424,180,20.786,9,308,2.708,2.684,8.894,1
484,35.208,-97.424,179.6,20.631,9,308,2.747,2.613,9.061,1
485,35.208,-97.424,179.9,20.57,9,308,2.805,2.938,8.778,1
486,35.208,-97.424,180,20.54,9,308,2.87,2.759,8.797,1
487,35.208,-97.424,180.7,20.63,9,308,2.664,2.747,8.874,1
488,35.207,-97.424,179.8,21.022,9,308,2.622,2.53,8.93,1
489,35.207,-97.424,180.1,20.451,9,307,2.601,2.653,8.93,1
490,35.207,-97.424,180.1,20.1,9,307,2.663,2.552,9.035,1
491,35.207,-97.424,180,20.05,9,307,2.594,2.771,8.921,1
492,35.207,-97.424,179.8,19.871,9,306,2.637,2.675,8.969,1
493,35.207,-97.424,179.7,19.89,9,307,2.669,2.55,8.972,1
494,35.206,-97.424,179.7,19.63,9,307,2.736,2.573,8.894,1
496,35.206,-97.424,179.9,19.42,10,307,2.903,2.621,9.616,0
496,35.206,-97.424,179.9,19.42,10,307,2.903,2.621,9.616,0
497,35.206,-97.424,180.1,18.84,10,306,3.225,1.486,9.286,0
498,35.206,-97.424,180.3,17.26,9,305,3.034,1.035,9.231,0
499,35.206,-97.424,180.1,15.61,9,305,2.915,1.207,9.114,0
500,35.205,-97.424,179.2,13.81,9,305,2.576,1.028,8.695,0
501,35.205,-97.424,177.5,12.11,9,305,3.016,0.898,9.265,0
502,35.205,-97.424,177.2,9.96,9,304,3.151,0.877,9.426,0
503,35.205,-97.424,177.5,8.4304,9,305,3.034,2.291,9.257,0
504,35.205,-97.424,176.7,8,9,304,3.054,2.083,8.928,0
505,35.205,-97.424,176.9,7.1907,9,305,3.225,1.92,8.83,0
506,35.205,-97.424,177.2,6.29,9,306,3.12,2.725,8.842,0
507,35.205,-97.424,178,6.1204,9,305,3.069,2.941,8.828,0
508,35.205,-97.424,178.6,6.0601,9,304,2.949,2.768,8.762,0
509,35.205,-97.424,177.5,6.03,10,303,2.958,3.166,8.576,0
510,35.205,-97.424,179.7,6.2503,10,304,2.885,3.577,8.43,0
511,35.205,-97.424,182,6.291,10,302,2.963,3.075,8.633,1
512,35.205,-97.424,175.3,6.3801,11,302,2.966,2.625,8.704,1
513,35.205,-97.424,181.8,6.7609,11,302,3.169,1.818,9.134,1
514,35.204,-97.424,187.8,6.9903,11,301,3.162,1.884,9.09,1
515,35.204,-97.424,182.2,5.6403,12,303,3.129,2.268,8.898,1
516,35.204,-97.424,159.9,4.6001,12,300,3.128,2.342,8.737,1
517,35.204,-97.424,163.3,4.35,12,302,3.174,2.357,8.888,1
518,35.204,-97.424,165.7,3.7301,12,302,3.186,2.266,8.849,1
519,35.204,-97.424,213.4,4.2402,12,303,3.205,2.003,8.896,1
520,35.204,-97.424,181.9,2.1015,13,302,3.205,2.062,8.845,1
521,35.204,-97.424,193.3,1.5108,12,306,3.149,2.43,8.779,1
522,35.204,-97.424,222.1,0.6703,12,305,3.074,2.814,8.742,1
523,35.204,-97.424,0,0,12,304,3.07,2.868,8.757,1
524,35.204,-97.424,0,0,12,304,3.044,2.881,8.729,1
525,35.204,-97.424,0,0,12,304,3.065,2.879,8.742,1
526,35.204,-97.424,0,0,12,304,3.054,2.888,8.735,1
527,35.204,-97.424,0,0,12,304,3.064,2.888,8.743,1
528,35.204,-97.424,0,0,12,304,3.063,2.895,8.749,1
529,35.204,-97.424,0,0,12,302,3.055,2.889,8.739,1
530,35.204,-97.424,0,0,12,302,3,3.186,8.699,1
531,35.204,-97.424,260.3,1.17,12,301,2.952,3.236,8.698,1
532,35.204,-97.424,188,0.33,11,302,2.985,3.192,8.716,1
533,35.204,-97.424,114.2,0.614,11,300,2.867,3.833,8.613,1
534,35.204,-97.424,215.8,1.4603,12,300,2.927,3.695,8.61,1
535,35.204,-97.424,179.1,2.5224,10,301,2.781,4.336,8.475,1
536,35.204,-97.424,186.3,3.6323,10,301,2.68,4.53,8.31,0
537,35.204,-97.424,179.9,5.1119,10,301,2.86,3.631,8.736,0
538,35.204,-97.424,179.2,6.2726,10,300,2.178,3.699,9.502,0
539,35.204,-97.424,178.6,6.8729,9,300,0.987,2.953,9.353,0
541,35.204,-97.424,168.8,7.531,9,299,0.25,2.453,9.692,0
541,35.204,-97.424,168.8,7.531,9,299,0.25,2.453,9.692,0
542,35.204,-97.423,129.2,7.5602,10,302,-0.189,2.576,9.948,0
543,35.204,-97.423,107.5,8.5003,10,303,-0.193,3.68,9.982,0
544,35.204,-97.423,94.3,10.09,10,301,1.234,3.945,9.23,0
545,35.204,-97.423,88.6,11.12,10,300,1.824,3.842,8.806,0
546,35.204,-97.423,87.5,12.09,10,301,2.608,3.731,8.67,0
547,35.204,-97.423,88.7,13.181,9,302,2.406,3.915,8.94,0
548,35.204,-97.423,88.2,14.331,9,301,2.525,3.844,8.832,0
549,35.204,-97.423,86.5,15.101,10,302,2.616,3.772,8.955,0
550,35.204,-97.422,86.6,15.96,10,302,3.241,3.561,8.641,0
551,35.204,-97.422,86.2,16.02,10,302,3.106,3.182,8.505,0
552,35.204,-97.422,87.7,16.32,11,302,2.961,3.178,8.505,0
553,35.204,-97.422,87.9,16.51,11,303,2.939,3.293,8.953,0
554,35.204,-97.422,88.7,17.05,11,303,2.923,2.898,8.766,0
555,35.204,-97.421,89.3,17.28,11,302,2.857,2.515,8.776,0
556,35.204,-97.421,91.1,17.19,12,303,2.886,2.315,8.783,0
557,35.204,-97.421,91.3,16.53,12,303,3.227,1.586,9.033,0
558,35.204,-97.421,92.2,15.182,11,304,2.687,1.017,9.507,0
559,35.204,-97.421,90.5,13.83,12,303,2.659,0.976,9.214,0
560,35.204,-97.421,88.4,11.83,11,303,2.929,0.992,9.167,0
561,35.204,-97.421,85,9.4401,11,303,3.062,1.371,8.794,1
562,35.204,-97.42,86.6,8.1001,10,304,3.333,2.862,8.526,1
563,35.204,-97.42,86.5,8.0302,10,305,3.13,2.271,8.693,1
564,35.204,-97.42,90.7,7.5401,11,305,2.824,2.633,8.644,1
565,35.204,-97.42,91.1,7.4702,11,305,0.796,2.706,9.507,1
566,35.204,-97.42,83.7,7.8706,11,305,0.31,1.157,9.991,0
567,35.204,-97.42,55.9,7.3436,10,305,0.604,1.492,9.99,0
568,35.204,-97.42,34,6.1001,10,304,1.209,2.648,9.475,0
569,35.204,-97.42,17.8,6.4449,10,304,1.601,3.269,9.132,0
570,35.204,-97.42,2.7,7.07,9,304,2.467,3.192,9.052,0
571,35.204,-97.42,358.6,7.86,9,304,2.435,2.446,9.215,0
572,35.204,-97.42,358.3,7.9401,9,304,2.878,1.9,8.877,0
573,35.204,-97.42,358.1,7.6901,9,304,3.958,2.016,8.638,0
574,35.204,-97.42,4.5,6.2408,4,304,5.445,2.398,7.869,0
575,35.204,-97.42,12.2,7.34,4,304,6.115,2.486,7.576,0
576,35.205,-97.42,20.7,7.1306,5,305,5.096,2.593,7.842,0
577,35.205,-97.42,73.9,4.7993,5,305,2.717,3.199,8.773,0
578,35.204,-97.42,94.7,5.2306,4,306,2.473,3.52,8.682,0
579,35.204,-97.42,91.3,5.8912,4,307,2.466,3.149,8.759,0
580,35.204,-97.42,90.3,6.19,5,307,2.706,2.957,8.79,0
581,35.204,-97.42,88.3,6.6506,4,308,2.812,2.828,8.743,0
582,35.204,-97.42,88,6.6801,4,309,2.917,2.815,8.695,0
583,35.204,-97.419,87,6.5303,4,308,2.906,2.887,8.764,1
584,35.204,-97.419,87.6,6.5601,5,308,2.866,2.919,8.673,1
585,35.204,-97.419,91.1,6.5601,6,308,3.051,2.952,8.824,1
586,35.204,-97.419,90.1,6.5,6,308,2.951,2.916,8.908,1
587,35.204,-97.419,93.6,6.47,6,309,3.121,1.971,8.835,1
589,35.204,-97.419,91.9,6.1,5,307,3.221,1.581,8.923,1
589,35.204,-97.419,91.9,6.1,5,307,3.221,1.581,8.923,1
590,35.204,-97.419,89.7,3.6327,5,307,2.434,2.518,9.033,1
591,35.204,-97.419,77.5,4.0717,5,308,1.886,2.597,9.264,1
592,35.205,-97.419,58.3,3.7206,4,308,1.368,2.652,9.56,0
593,35.205,-97.419,36.9,4.2103,4,308,1.543,2.955,9.43,0
594,35.205,-97.419,31.1,4.01,4,308,1.916,2.915,9.153,0
595,35.205,-97.419,13.8,4.9017,4,309,2.33,2.863,9.049,0
596,35.205,-97.419,6.6,4.811,4,309,2.778,2.63,8.837,0
597,35.205,-97.419,4.3,4.63,4,310,2.922,1.994,9.099,0
598,35.205,-97.419,4,3.7705,3,310,2.871,2.237,9.05,0
599,35.205,-97.419,2.2,3.1501,3,309,2.626,2.154,8.989,0
600,35.205,-97.419,354.8,2.5172,3,308,2.106,2.29,9.297,0
