time,lat,lng,bearing,spd,acc,alt,accx,accy,accz,stable,
0,35.228,-97.423,358.7,17.54,18.204,330,-0.854,2.799,9.153,1
2,35.228,-97.423,358.4,17.15,19.721,331,-0.985,2.789,9.234,1
2,35.228,-97.423,358.4,17.15,19.721,331,-0.985,2.789,9.234,1
3,35.229,-97.423,358.1,18.57,19.721,330,-0.581,2.138,9.123,1
4,35.229,-97.423,358.4,18.73,19.721,331,-0.996,2.157,9.429,1
5,35.229,-97.423,0.6,19.11,18.204,332,-0.775,2.028,9.429,1
6,35.229,-97.423,359.5,18.34,18.204,333,-0.711,1.965,9.369,1
7,35.229,-97.423,0.6,17.7,18.204,334,-0.746,2.74,9.11,1
8,35.229,-97.423,1,17.76,16.687,335,-0.93,2.714,9.065,1
9,35.23,-97.423,0,18.21,16.687,337,-0.799,2.525,9.437,1
10,35.23,-97.423,0.6,18.15,16.687,339,-0.704,2.187,9.506,1
11,35.23,-97.423,359.9,18.38,16.687,341,-0.924,2.103,9.083,1
12,35.23,-97.423,1.8,18.72,16.687,341,-0.937,2.129,9.435,0
13,35.23,-97.423,1,18.58,16.687,340,-0.723,2.316,9.175,1
14,35.23,-97.423,0.9,18.54,16.687,340,-0.87,2.374,9.247,1
15,35.231,-97.423,2.1,18.33,16.687,341,-0.845,2.219,9.312,1
16,35.231,-97.423,1.6,18.25,16.687,339,-1.262,2.225,9.253,1
17,35.231,-97.423,0.7,18.06,15.17,338,-0.652,2.29,9.069,1
18,35.231,-97.423,359.7,18.22,15.17,339,-0.904,2.172,9.952,0
19,35.231,-97.423,1.3,17.99,15.17,336,-0.53,1.288,9.397,0
20,35.231,-97.423,0.7,17.88,15.17,334,-0.597,0.957,8.985,0
21,35.232,-97.423,0.9,16.7,15.17,333,-0.947,1.741,10.229,0
22,35.232,-97.423,1.6,15.57,15.17,333,-0.674,1.291,9.506,0
23,35.232,-97.423,0.7,14.91,15.17,334,-1.086,0.655,9.746,0
24,35.232,-97.423,0.8,14.57,15.17,334,-0.936,0.449,9.896,0
25,35.232,-97.423,0,13.73,16.687,334,-0.864,0.056,10.141,0
26,35.232,-97.423,359.9,12.13,16.687,335,-0.831,-0.257,10.184,0
27,35.232,-97.423,0.9,10.13,16.687,336,-0.842,1.509,9.275,0
28,35.232,-97.423,5.1,7.66,18.204,335,-0.851,1.593,9.588,1
29,35.232,-97.423,6.1,5.66,18.204,335,-0.869,2.183,9.305,1
30,35.232,-97.423,6.1,4.72,18.204,336,-0.797,2.347,9.098,1
31,35.232,-97.423,7.9,3.13,18.204,337,-0.855,3.94,8.974,1
32,35.232,-97.423,12.2,2.46,18.204,336,-0.79,4.255,8.666,1
33,35.232,-97.423,359.8,2.58,16.687,335,-0.89,4.18,8.647,0
34,35.232,-97.423,357.4,4.01,16.687,334,-0.74,3.833,8.762,0
35,35.233,-97.423,356.1,5.42,16.687,335,-0.753,2.672,8.561,0
36,35.233,-97.423,357.3,6.55,16.687,334,-0.72,2.954,9.072,0
37,35.233,-97.423,355,7.34,16.687,334,-0.813,3.163,8.984,0
38,35.233,-97.423,356.6,7.84,16.687,335,-1.035,3.187,9.277,0
40,35.233,-97.423,357.4,7.94,15.17,336,-0.563,2.987,8.853,1
40,35.233,-97.423,357.4,7.94,15.17,336,-0.563,2.987,8.853,1
41,35.233,-97.423,1.3,9.3,16.687,337,-0.858,3.15,9.097,0
42,35.233,-97.423,5.2,11.41,16.687,338,-0.669,2.723,9.225,1
43,35.233,-97.423,2.7,12.56,16.687,339,-0.909,3.2,9.334,1
44,35.233,-97.423,2.8,13.9,16.687,340,-0.955,2.888,9.087,1
45,35.234,-97.423,359.3,14.75,16.687,339,-0.92,2.759,10.07,0
46,35.234,-97.423,1.8,14.38,16.687,341,-0.9,2.492,9.536,0
47,35.234,-97.423,2.8,15.39,16.687,340,-1.232,2.423,9.257,0
48,35.234,-97.423,357.9,14.98,16.687,338,-1.117,2.599,9.358,0
49,35.234,-97.423,356.9,14.75,16.687,339,-1.044,2.555,8.959,1
50,35.234,-97.423,357.4,15.63,15.17,340,-0.702,2.623,9.096,0
51,35.234,-97.423,358.9,16.23,15.17,338,-0.719,2.242,9.162,0
52,35.235,-97.423,358.7,16.82,15.17,339,-1.161,2.255,9.813,0
53,35.235,-97.423,358.3,16.55,15.17,340,-0.864,2.087,9.471,0
54,35.235,-97.423,358.6,16.44,15.17,340,-0.89,2.155,9.462,1
55,35.235,-97.423,358.8,16.47,15.17,340,-0.931,2.277,9.31,1
56,35.235,-97.423,358.2,16.35,15.17,339,-0.711,2.283,9.566,1
57,35.235,-97.423,358,16.5,15.17,337,-0.815,1.152,9.593,0
58,35.235,-97.423,359.5,16.1,13.653,337,-0.524,1.758,9.508,0
59,35.236,-97.423,359,15.28,13.653,336,-0.739,1.328,9.59,0
60,35.236,-97.423,359.2,14.67,13.653,336,-0.801,0.485,9.995,0
61,35.236,-97.423,358.8,13.82,13.653,338,-0.723,1.025,9.678,0
62,35.236,-97.423,359.9,11.9,13.653,337,-0.747,0.964,9.743,1
63,35.236,-97.423,0.1,10.53,13.653,336,-0.899,1.358,9.704,1
64,35.236,-97.423,0.1,9.42,13.653,336,-0.841,1.942,9.553,1
65,35.236,-97.423,0.1,8.55,13.653,336,-0.842,1.986,9.438,1
66,35.236,-97.423,2.2,7.96,13.653,337,-0.826,2.053,9.417,1
67,35.236,-97.423,359.6,7.98,13.653,336,-0.793,0.891,9.823,1
68,35.236,-97.423,1.5,7.38,15.17,337,-0.834,0.351,10.04,0
69,35.236,-97.423,0.7,7.44,15.17,337,-0.873,0.978,9.806,0
70,35.236,-97.423,359.9,3.95,15.17,337,-0.823,1.058,9.727,1
71,35.236,-97.423,0.5,2.3,13.653,339,-0.818,1.312,9.626,1
72,35.236,-97.423,0.3,1.39,13.653,338,-0.829,1.67,9.547,1
73,35.236,-97.423,0.3,1.39,13.653,338,-0.81,2.353,9.215,1
74,35.236,-97.423,0.3,1.39,13.653,338,-0.836,2.635,9.129,1
75,35.236,-97.423,0.2,0.3,13.653,336,-0.797,3.226,9.016,1
76,35.236,-97.423,0.2,0.3,13.653,336,-0.781,3.871,8.906,1
77,35.236,-97.423,8.2,1.29,13.653,337,-0.781,3.986,8.789,1
79,35.237,-97.423,1.1,2.78,13.653,336,-0.809,3.319,8.948,1
79,35.237,-97.423,1.1,2.78,13.653,336,-0.809,3.319,8.948,1
80,35.237,-97.423,1.3,5.46,13.653,338,-0.966,3.357,8.958,1
81,35.237,-97.423,1.1,6.85,13.653,338,-0.931,3.463,8.884,1
82,35.237,-97.423,0.4,7.2,13.653,339,-0.909,3.353,8.822,1
83,35.237,-97.423,0.1,9.58,13.653,339,-0.832,3.083,9.089,1
84,35.237,-97.423,359,10.74,13.653,337,-0.815,2.566,9.151,0
85,35.237,-97.423,359.2,10.94,13.653,337,-0.788,2.787,9.174,1
86,35.237,-97.423,358.8,11.26,15.17,338,-0.825,2.895,9.062,1
87,35.237,-97.423,0,11.33,15.17,337,-0.786,3.009,9.232,1
88,35.237,-97.423,358.7,13.18,15.17,337,-0.698,2.985,9.069,1
89,35.238,-97.423,358.9,13.52,15.17,337,-0.774,3.017,9.236,1
90,35.238,-97.423,359.4,14.25,15.17,336,-0.895,3.074,9.098,1
91,35.238,-97.423,0,15,13.653,338,-0.874,3.118,9.166,1
92,35.238,-97.423,0,15.21,15.17,338,-0.867,3.074,8.959,1
93,35.238,-97.423,1.1,16.22,15.17,335,-0.769,2.391,9.419,1
94,35.238,-97.423,359,16.55,15.17,335,-0.933,2.291,9.295,1
95,35.238,-97.423,357.9,16.78,15.17,334,-0.87,2.396,9.467,1
96,35.239,-97.423,359.6,16.74,15.17,336,-0.713,2.598,9.356,1
97,35.239,-97.423,0,16.79,13.653,337,-0.866,2.792,9.223,1
98,35.239,-97.423,359.6,17.19,13.653,337,-0.723,2.877,9.257,1
99,35.239,-97.423,359.9,17.21,13.653,336,-0.7,2.798,8.862,0
100,35.239,-97.423,359.7,17.95,13.653,336,-0.712,2.855,9.118,1
101,35.239,-97.423,359.3,18.32,13.653,335,-0.96,2.939,9.296,1
102,35.24,-97.423,359.1,18.63,13.653,335,-0.787,2.914,9.075,1
103,35.24,-97.423,359.5,19.05,13.653,334,-0.872,2.999,9.286,0
104,35.24,-97.423,359.1,19.32,13.653,334,-0.759,2.911,9.288,1
105,35.24,-97.424,359.6,19.69,15.17,334,-0.893,2.151,9.279,1
106,35.24,-97.423,359.9,19.98,13.653,335,-0.74,1.998,9.091,1
107,35.24,-97.424,359.9,19.97,15.17,335,-0.893,2.054,9.378,0
108,35.241,-97.424,0,19.76,15.17,336,-0.864,2.539,9.068,1
109,35.241,-97.424,359.2,19.41,15.17,334,-0.81,2.418,8.979,1
110,35.241,-97.424,359.4,19.44,15.17,335,-0.708,2.519,9.178,1
111,35.241,-97.424,359.3,19.56,15.17,334,-0.662,2.392,9.055,1
112,35.241,-97.424,359.3,20.29,13.653,335,-0.738,2.436,8.796,1
113,35.242,-97.424,359.9,20.19,13.653,334,-0.737,2.46,9.052,1
114,35.242,-97.424,359.9,20.8,13.653,334,-0.797,2.131,9.345,1
115,35.242,-97.424,359.6,21.09,13.653,334,-0.781,1.947,9.215,1
116,35.242,-97.424,0,21.53,13.653,332,-0.846,1.895,9.497,1
117,35.242,-97.424,0.1,21.1,13.653,332,-0.765,1.876,9.255,0
118,35.242,-97.424,359.7,21.09,13.653,332,-0.831,1.875,9.365,1
119,35.243,-97.424,359.7,20.66,13.653,331,-0.79,1.946,9.405,1
120,35.243,-97.424,359.7,20.65,13.653,329,-0.805,1.962,9.746,0
121,35.243,-97.424,359.5,20.64,13.653,329,-0.417,1.938,9.646,1
123,35.243,-97.424,359.4,20.79,13.653,328,-0.542,1.991,9.674,0
123,35.243,-97.424,359.4,20.79,13.653,328,-0.542,1.991,9.674,0
124,35.244,-97.424,0.5,20.06,13.653,328,-0.411,1.835,9.308,1
125,35.244,-97.424,0.1,19.56,13.653,327,-0.251,1.848,9.102,1
126,35.244,-97.424,1.5,19.53,13.653,328,-0.652,2.472,9.001,1
127,35.244,-97.424,1.7,19.9,13.653,328,-0.704,2.508,9.301,1
128,35.244,-97.424,1.6,20.1,13.653,326,-0.816,2.231,9.354,0
129,35.244,-97.424,1.2,20.29,15.17,326,-0.772,2.343,9.509,0
130,35.245,-97.423,1.6,19.75,13.653,327,-0.815,2.505,9.313,0
131,35.245,-97.423,1.3,20.18,13.653,327,-0.826,2.255,9.663,0
132,35.245,-97.423,1.3,20.09,13.653,328,-0.443,2.063,9.346,0
133,35.245,-97.423,1.7,19.97,13.653,329,-0.895,1.959,9.312,0
134,35.245,-97.423,2.1,19.33,13.653,329,-0.535,1.909,9.416,1
135,35.246,-97.423,2,18.6,13.653,330,-0.858,0.823,9.595,1
136,35.246,-97.423,2.7,17.52,13.653,330,-0.691,0.871,9.603,1
137,35.246,-97.423,4.1,16.56,13.653,331,-0.938,1.362,9.469,1
138,35.246,-97.423,2.6,14.94,13.653,331,-0.906,2.088,9.233,1
139,35.246,-97.423,0.8,14.22,13.653,333,-0.73,2.072,9.173,1
140,35.246,-97.423,2.2,13.57,13.653,334,-0.626,0.74,9.61,1
141,35.246,-97.423,2.7,13.27,13.653,333,-1.006,0.348,9.68,0
142,35.246,-97.423,2.3,11.29,13.653,334,-0.891,-0.053,9.96,0
143,35.247,-97.423,2,9.41,13.653,335,-0.723,0.52,9.838,0
144,35.247,-97.423,1,7.47,13.653,335,-0.784,0.95,9.723,1
145,35.247,-97.423,2.5,5.73,13.653,333,-0.791,0.756,9.793,1
146,35.247,-97.423,358.9,4.92,13.653,332,-0.846,1.009,9.625,1
147,35.247,-97.423,359.3,3.43,13.653,331,-0.725,1.66,9.595,1
148,35.247,-97.423,356.2,2.33,13.653,330,-0.804,1.919,9.341,1
149,35.247,-97.423,357.9,2.1,13.653,330,-0.76,1.789,9.462,1
150,35.247,-97.423,356.7,1.91,13.653,329,-0.751,1.57,9.513,1
151,35.247,-97.423,356.7,1.91,13.653,329,-0.758,1.363,9.659,1
152,35.247,-97.423,356.7,1.91,13.653,329,-0.778,2.129,9.382,1
153,35.247,-97.423,357.1,0.22,13.653,330,-0.74,2.048,9.307,1
154,35.247,-97.423,357.1,0.22,13.653,330,-0.772,2.054,9.392,1
155,35.247,-97.423,357.1,0.22,13.653,330,-0.771,2.62,9.216,1
156,35.247,-97.423,357.1,0.22,13.653,330,-0.779,3.479,8.963,1
158,35.247,-97.423,357.1,0.22,13.653,330,-0.705,4.244,8.761,1
158,35.247,-97.423,357.1,0.22,13.653,330,-0.705,4.244,8.761,1
159,35.247,-97.423,1.6,3.77,13.653,331,-0.838,4.101,8.697,1
160,35.247,-97.423,1.1,6,13.653,331,-0.636,3.94,8.816,1
161,35.247,-97.423,0.6,8.14,13.653,331,-0.755,3.769,8.833,1
162,35.247,-97.423,0.7,9.48,13.653,329,-0.856,3.291,8.833,1
163,35.247,-97.423,359.8,11.35,13.653,329,-0.788,3.344,8.91,1
164,35.247,-97.423,359.7,13.35,13.653,329,-0.805,3.339,9.106,1
165,35.247,-97.423,0.7,14.47,13.653,329,-1.355,3.412,9.177,0
166,35.248,-97.423,359.6,16.04,13.653,328,-1.209,3.259,8.955,1
167,35.248,-97.423,357.5,17.66,13.653,328,-0.874,2.866,9.179,0
168,35.248,-97.423,357.5,19.13,13.653,329,-1.034,2.199,9.629,0
169,35.248,-97.423,356.8,19.38,13.653,328,-1.038,2.186,9.545,0
170,35.248,-97.423,355.9,19.38,13.653,327,-0.667,2.051,9.35,0
171,35.248,-97.423,356,19.41,13.653,327,-0.577,2.585,9.461,0
172,35.249,-97.424,356.6,19.43,13.653,328,-0.435,2.606,9.185,0
173,35.249,-97.424,356.5,19.59,13.653,327,-0.627,2.734,9.319,1
174,35.249,-97.424,358.9,19.98,13.653,327,-0.933,2.692,9.314,1
175,35.249,-97.424,358,20.18,13.653,327,-0.828,2.442,8.96,1
176,35.249,-97.424,358.3,20.31,13.653,327,-0.596,2.108,9.294,1
177,35.25,-97.424,358.7,19.97,13.653,328,-0.641,2.166,9.161,1
178,35.25,-97.424,358.3,19.27,13.653,328,-0.89,2.455,9.115,1
179,35.25,-97.424,358.1,19.54,13.653,327,-0.591,2.08,9.183,1
180,35.25,-97.424,358,19.53,13.653,328,-0.709,2.078,9.304,1
181,35.25,-97.424,359,19.17,13.653,328,-0.93,2.246,9.311,1
182,35.25,-97.424,358.8,19.22,13.653,328,-0.8,2.171,9.308,1
183,35.251,-97.424,359.1,19.56,13.653,327,-0.699,2.256,9.38,1
184,35.251,-97.424,359.2,19.64,13.653,327,-1.025,2.47,9.439,1
185,35.251,-97.424,359.3,19.78,13.653,327,-0.954,0.354,9.881,0
186,35.251,-97.424,359.2,19.88,15.17,327,-0.808,-1.064,10.545,0
187,35.251,-97.424,359.2,17.54,13.653,325,-0.861,-1.059,10.481,0
188,35.251,-97.424,358.7,14.53,13.653,325,-0.591,0.208,10.192,0
189,35.251,-97.424,359.4,11.48,13.653,325,-0.803,2.699,9.254,1
190,35.252,-97.424,359.2,9.85,13.653,327,-0.71,3.128,9.274,1
191,35.252,-97.424,0.2,9.29,13.653,327,-0.262,3.693,8.933,1
192,35.252,-97.424,1.9,10.05,13.653,327,-0.627,3.708,8.98,1
193,35.252,-97.424,4.9,11.18,13.653,327,-1.125,3.619,9.027,1
194,35.252,-97.424,4.7,11.49,15.17,327,-1.264,3.622,8.984,0
195,35.252,-97.424,6.1,13.09,13.653,327,-1.79,3.504,8.774,0
196,35.252,-97.424,5.8,13.51,13.653,328,-1.228,3.516,8.988,1
197,35.252,-97.424,3.5,14.9,13.653,327,-1.269,3.414,8.696,1
198,35.252,-97.424,1.7,15.97,13.653,329,-1.03,3.463,9.116,0
199,35.253,-97.424,0,16.86,15.17,328,-0.846,2.806,9.183,1
200,35.253,-97.424,0.1,17.2,13.653,330,-0.918,2.827,9.139,1
202,35.253,-97.424,0,17.61,13.653,332,-0.778,2.751,9.135,1
202,35.253,-97.424,0,17.61,13.653,332,-0.778,2.751,9.135,1
203,35.253,-97.424,359.1,17.68,13.653,334,-0.731,2.747,9.064,1
204,35.253,-97.424,0.1,18.02,13.653,334,-0.765,2.73,9.141,1
205,35.254,-97.424,0.9,18.36,13.653,334,-0.801,2.721,9.037,1
206,35.254,-97.424,0.8,18.45,13.653,335,-1.006,2.297,9.722,0
207,35.254,-97.424,0.4,18.53,13.653,336,-0.903,2.359,9.59,1
208,35.254,-97.424,0.2,18.46,13.653,336,-0.99,2.942,9.595,0
209,35.254,-97.424,0.8,18.95,13.653,337,-0.995,3.065,8.937,1
210,35.254,-97.424,0.3,19.05,13.653,335,-0.982,3.054,8.847,1
211,35.255,-97.424,359.4,19.8,13.653,336,-0.815,3.034,8.594,0
212,35.255,-97.423,359.5,20.62,13.653,336,-0.741,3.145,9.56,0
213,35.255,-97.424,359.1,21.77,13.653,335,-0.886,2.526,9.183,1
214,35.255,-97.424,359.4,22.16,13.653,336,-0.847,2.079,9.218,1
215,35.255,-97.424,359,22.48,13.653,334,-1,2.052,9.37,1
216,35.256,-97.424,359.2,22.18,13.653,335,-1.001,1.868,9.104,0
217,35.256,-97.424,358.7,22.71,13.653,335,-0.917,1.976,9.321,0
218,35.256,-97.424,358.3,22.84,13.653,333,-0.574,2.024,9.476,1
219,35.256,-97.424,358.6,22.96,13.653,333,-0.758,1.769,8.626,0
220,35.256,-97.424,359.4,22.66,13.653,334,-0.899,1.149,9.659,0
221,35.257,-97.424,359.8,22.74,13.653,333,-1.055,1.157,9.674,1
222,35.257,-97.424,359.6,22.09,13.653,333,-0.896,1.54,9.474,0
223,35.257,-97.424,359.5,21.43,13.653,334,-1.391,2.056,9.23,1
224,35.257,-97.424,359.2,21.76,15.17,333,-1.125,2.195,9.913,0
225,35.257,-97.424,358.7,22.03,15.17,331,-1.053,2.05,9.485,0
226,35.258,-97.424,359,21.69,15.17,330,-0.949,2.03,9.287,1
227,35.258,-97.424,359.2,21.81,15.17,330,-1.12,2.046,9.363,0
228,35.258,-97.424,359.4,21.87,15.17,328,-1.056,1.972,9.393,0
229,35.258,-97.424,359.1,22.09,15.17,327,-1.223,2.031,9.534,0
230,35.258,-97.424,359.4,22.22,13.653,326,-1.154,1.979,9.052,0
231,35.259,-97.424,359.6,22.12,13.653,326,-1.051,1.769,9.256,0
232,35.259,-97.424,359.5,22.07,15.17,326,-1.139,1.916,9.995,0
233,35.259,-97.424,359.7,21.84,15.17,324,-0.918,1.746,9.573,0
234,35.259,-97.424,359.3,22.47,13.653,324,-0.943,1.728,9.618,0
235,35.259,-97.424,359.4,22.31,13.653,324,-1.127,1.247,10.162,0
236,35.26,-97.424,359.8,21.58,13.653,323,-0.887,0.877,9.632,1
237,35.26,-97.424,359,21.03,15.17,323,-0.849,1.424,9.582,0
238,35.26,-97.424,359,20.34,15.17,324,-0.63,1.451,9.207,0
239,35.26,-97.424,359.9,19.35,13.653,323,-0.984,0.706,9.864,1
240,35.26,-97.424,0.9,18.35,13.653,324,-1.119,0.928,9.622,0
241,35.26,-97.424,1,17.79,13.653,323,-1.056,1.04,9.724,0
243,35.261,-97.424,0.5,16.24,13.653,322,-0.974,1.114,9.547,0
243,35.261,-97.424,0.5,16.24,13.653,322,-0.974,1.114,9.547,0
244,35.261,-97.424,0.1,14.62,13.653,319,-0.811,0.934,9.655,0
245,35.261,-97.424,0.1,13.58,13.653,318,-1.11,0.404,9.989,0
246,35.261,-97.424,358.4,12.83,13.653,317,-0.947,0.033,9.997,0
247,35.261,-97.424,357,11.08,15.17,317,-1.101,0.702,9.752,0
248,35.261,-97.424,356,9.45,15.17,317,-1.076,0.812,9.743,0
249,35.261,-97.424,356.2,8.01,15.17,317,-1.205,1.189,9.761,1
250,35.261,-97.424,354.6,6.65,15.17,317,-1.098,1.208,9.737,1
251,35.261,-97.424,355.9,5.33,15.17,316,-1.016,1.119,9.728,1
252,35.261,-97.424,356.2,4.48,15.17,317,-1.084,1.431,9.519,1
253,35.262,-97.424,354.5,3.67,15.17,315,-1.033,1.36,9.575,1
254,35.262,-97.424,354.5,3.67,15.17,315,-1.03,1.432,9.581,1
255,35.262,-97.424,3.9,0.96,13.653,314,-1.033,1.519,9.497,1
256,35.262,-97.424,3.9,0.96,13.653,314,-1.033,2.17,9.264,1
257,35.262,-97.424,0,0,13.653,313,-1.024,2.159,9.338,1
258,35.262,-97.424,0,0,13.653,313,-1.017,2.199,9.417,1
259,35.262,-97.424,0,0,13.653,313,-1.028,2.176,9.377,1
260,35.262,-97.424,0,0,13.653,313,-1.022,2.198,9.419,1
261,35.262,-97.424,0,0,13.653,313,-1.038,2.158,9.264,1
262,35.262,-97.424,0,0,13.653,313,-1.032,2.213,9.413,1
263,35.262,-97.424,0,0,13.653,313,-1.028,2.178,9.245,1
264,35.262,-97.424,0,0,13.653,313,-1.037,2.169,9.357,1
265,35.262,-97.424,0,0,13.653,312,-1.025,2.16,9.259,1
266,35.262,-97.424,0,0,13.653,312,-1.022,2.146,9.242,1
267,35.262,-97.424,0,0,13.653,312,-1.028,2.188,9.395,1
268,35.262,-97.424,0,0,13.653,312,-1.037,2.191,9.403,1
269,35.262,-97.424,0,0,13.653,312,-1.025,2.163,9.248,1
270,35.262,-97.424,0,0,13.653,310,-1.03,2.193,9.435,1
271,35.262,-97.424,0,0,13.653,310,-1.032,2.191,9.422,1
272,35.262,-97.424,0,0,13.653,310,-1.022,2.181,9.393,1
273,35.262,-97.424,0,0,13.653,310,-1.027,2.169,9.243,1
274,35.262,-97.424,0,0,13.653,310,-1.028,2.184,9.371,1
275,35.262,-97.424,0,0,13.653,310,-1.026,2.201,9.417,1
276,35.262,-97.424,0,0,13.653,310,-1.032,2.148,9.264,1
277,35.262,-97.424,0,0,13.653,310,-1.032,2.171,9.256,1
278,35.262,-97.424,0,0,13.653,310,-1.017,2.572,9.162,1
279,35.262,-97.424,0,0,13.653,310,-1.054,4.085,8.748,1
281,35.262,-97.424,0,0,13.653,310,-1.01,4.291,8.79,1
281,35.262,-97.424,0,0,13.653,310,-1.01,4.291,8.79,1
282,35.262,-97.424,359.3,3.73,13.653,311,-1.065,4.134,8.687,1
283,35.262,-97.424,0.9,5.57,13.653,313,-1.139,3.889,8.615,1
284,35.262,-97.424,358.7,7.51,13.653,310,-1.202,3.896,8.893,1
285,35.262,-97.424,359.6,9.42,13.653,311,-1.063,3.664,8.568,1
286,35.262,-97.424,1,10.31,13.653,312,-0.994,3.345,8.866,1
287,35.262,-97.424,0.3,12.19,13.653,312,-1.188,3.405,9.063,0
288,35.262,-97.424,0.8,13.06,13.653,311,-1.224,3.324,8.874,1
289,35.262,-97.424,359.5,14.8,13.653,308,-0.957,3.465,9.157,0
290,35.262,-97.424,359,15.58,13.653,309,-1.111,3.297,9.044,1
291,35.263,-97.424,359.9,17.01,13.653,310,-1.067,3.032,8.911,1
292,35.263,-97.424,0.1,17.93,13.653,310,-1.126,2.102,9.378,1
293,35.263,-97.424,359.8,18.43,13.653,309,-1.16,2.061,9.43,1
294,35.263,-97.424,359.4,18.2,13.653,308,-1.162,2.399,8.879,1
295,35.263,-97.424,359.3,18.25,13.653,308,-0.887,2.698,9.069,1
296,35.263,-97.424,358.8,19.04,13.653,308,-0.741,2.124,9.385,1
297,35.264,-97.424,359.1,19.34,13.653,307,-0.202,2.163,9.968,0
298,35.264,-97.424,1,19.54,13.653,307,-0.755,2.151,9.268,0
299,35.264,-97.424,2,19.79,13.653,307,-1.809,2.524,9.551,0
300,35.264,-97.424,1.7,19.65,13.653,308,-1.109,2.644,9.247,0
301,35.264,-97.424,0.9,19.97,15.17,307,-0.636,2.263,9.304,1
302,35.264,-97.424,1.2,18.55,16.687,307,-1.543,2.293,9.557,1
303,35.265,-97.424,1.2,19.62,15.17,306,-1.178,2.655,9.351,0
304,35.265,-97.424,359.6,19.9,15.17,307,-0.689,2.656,9.01,0
305,35.265,-97.424,359.2,20.13,13.653,309,-1.17,2.681,9.26,0
306,35.265,-97.424,359.2,20.36,13.653,310,-1.096,2.691,9.061,0
307,35.265,-97.424,358.6,20.41,13.653,311,-0.938,2.818,8.991,0
308,35.265,-97.424,358.6,20.48,13.653,311,-0.527,2.726,8.812,1
309,35.266,-97.424,358.5,20.62,13.653,313,-0.654,2.858,9.076,1
310,35.266,-97.424,359.8,20.92,13.653,314,-1.128,2.764,9.091,1
311,35.266,-97.424,0.9,20.96,13.653,315,-1.012,2.848,9.352,1
312,35.266,-97.424,1.4,20.95,13.653,316,-0.96,2.679,8.32,1
313,35.266,-97.424,0.6,22.11,13.653,317,-1.27,2.381,9.428,0
314,35.267,-97.424,0.6,22.64,13.653,318,-0.94,1.997,8.759,1
315,35.267,-97.424,359.9,23.14,13.653,318,-1.198,2.02,9.478,0
316,35.267,-97.424,0.3,23.19,13.653,317,-1.198,1.912,9.373,0
317,35.267,-97.424,0.2,23.02,13.653,316,-1.137,2.318,10.699,0
319,35.267,-97.424,359.7,23.16,13.653,313,-1.177,2.52,9.488,0
319,35.267,-97.424,359.7,23.16,13.653,313,-1.177,2.52,9.488,0
320,35.268,-97.424,0,22.87,15.17,314,-1.9,2.737,9.182,0
321,35.268,-97.424,0.2,22.78,15.17,315,-1.715,2.832,8.95,0
322,35.268,-97.424,0.6,23.37,15.17,315,-0.948,3.034,9.602,0
323,35.269,-97.424,357.8,23.79,15.17,315,-0.446,2.837,8.818,1
324,35.269,-97.424,357.9,23.61,15.17,316,-0.489,2.189,9.082,1
325,35.269,-97.424,358.5,24.04,15.17,318,-0.432,1.918,8.802,1
326,35.269,-97.424,359.5,23.88,15.17,316,-0.546,1.967,9.397,1
327,35.269,-97.424,359.7,23.8,15.17,318,-0.698,2.248,9,1
328,35.27,-97.424,0.4,23.7,15.17,318,-0.956,2.454,8.829,0
329,35.27,-97.424,0.2,24.02,15.17,317,-0.857,2.389,9.124,1
330,35.27,-97.424,0.2,24.74,13.653,317,-0.884,2.202,9.644,1
331,35.27,-97.424,359.4,24.89,15.17,314,-0.666,2.079,9.348,0
332,35.271,-97.424,0.1,24.92,15.17,313,-0.654,1.836,9.047,1
333,35.271,-97.424,0.1,24.22,15.17,313,-0.719,1.863,9.127,0
334,35.271,-97.424,0.3,25.2,15.17,312,-0.831,1.873,9.176,1
335,35.271,-97.424,0.3,26.11,15.17,310,-0.823,1.426,9.344,1
336,35.271,-97.424,359.8,25.84,15.17,309,-0.657,1.103,9.662,0
337,35.272,-97.424,0.1,25.43,15.17,307,-0.625,1.709,9.573,0
338,35.272,-97.424,359.9,25.51,15.17,306,-0.792,1.877,9.443,0
339,35.272,-97.424,0.4,25.44,15.17,305,-0.836,1.941,9.475,0
340,35.272,-97.424,0,25.12,15.17,303,-0.9,1.959,9.472,0
341,35.273,-97.424,0.2,25.85,15.17,301,-0.954,1.913,9.48,0
342,35.273,-97.424,359.6,25.45,15.17,300,-0.762,1.887,9.534,0
343,35.273,-97.424,359.5,25.72,13.653,300,-0.672,2.022,9.989,0
344,35.273,-97.424,359.5,25.5,13.653,301,-0.471,2.031,9.52,0
345,35.273,-97.424,0.1,25.23,13.653,301,-0.586,2.137,9.17,0
346,35.274,-97.424,0.1,24.6,13.653,301,-0.804,2.19,9.293,0
347,35.274,-97.424,359.9,24.1,13.653,301,-0.579,1.996,9.325,0
348,35.274,-97.424,0.2,24.42,13.653,301,-0.458,1.891,8.935,1
349,35.274,-97.424,0.4,23.77,13.653,301,-0.812,2.004,9.168,0
350,35.275,-97.424,0.8,23.75,13.653,302,-1.177,2.187,9.291,0
351,35.275,-97.424,0.2,24.12,13.653,301,-0.787,1.92,8.944,1
352,35.275,-97.424,0.1,23.64,13.653,301,-0.361,2.23,9.907,0
353,35.275,-97.424,0.3,24.3,13.653,300,-1.021,2.033,9.674,0
354,35.275,-97.424,1,24.26,13.653,300,-1.138,2.081,10.004,0
355,35.276,-97.424,1.5,23.82,13.653,299,-0.895,1.981,9.65,0
356,35.276,-97.424,1.2,23.33,13.653,299,-0.982,2.003,9.74,0
357,35.276,-97.424,0.6,23.02,13.653,299,-0.837,2.192,9.509,0
359,35.276,-97.424,0.7,22.69,13.653,299,-0.924,2.03,9.087,0
359,35.276,-97.424,0.7,22.69,13.653,299,-0.924,2.03,9.087,0
360,35.277,-97.424,0.5,22.37,13.653,303,-0.94,2.307,9.626,0
361,35.277,-97.424,359.9,22.25,13.653,302,-0.974,2.261,9.311,0
362,35.277,-97.424,359.3,22.03,13.653,302,-0.817,2.326,9.128,1
363,35.277,-97.424,359.1,21.88,13.653,301,-0.787,2.502,9.637,0
364,35.277,-97.424,359.1,21.98,13.653,301,-0.662,2.481,9.423,0
365,35.278,-97.424,359.4,22,13.653,300,-0.601,2.854,9.507,0
366,35.278,-97.424,359.7,22.27,13.653,301,-1.083,2.969,9.461,0
367,35.278,-97.424,359.8,22.31,13.653,302,-1.009,2.897,9.543,0
368,35.278,-97.424,359.3,22.84,13.653,304,-0.376,2.866,9.183,0
369,35.278,-97.424,359.8,22.64,13.653,305,-0.98,2.849,9.156,1
370,35.279,-97.424,359.9,22.72,13.653,307,-0.779,2.132,9.315,1
371,35.279,-97.424,0.2,22.73,13.653,306,-0.935,2.388,9.136,0
372,35.279,-97.424,0,22.5,13.653,307,-0.846,2.568,9.248,1
373,35.279,-97.424,0.2,22.1,13.653,308,-0.934,2.386,8.789,1
374,35.279,-97.424,0.2,21.98,13.653,309,-0.554,2.577,9.293,1
375,35.28,-97.424,0,21.93,13.653,309,-0.88,2.527,8.99,1
376,35.28,-97.424,0.7,21.83,13.653,310,-1.019,2.602,9.414,1
377,35.28,-97.424,0.9,21.61,13.653,310,-0.832,2.622,9.164,1
378,35.28,-97.424,0.5,22.29,13.653,309,-1.027,2.439,9.654,0
379,35.28,-97.424,0.4,22.3,13.653,310,-0.865,2.231,9.369,1
380,35.281,-97.424,0,22.59,13.653,309,-0.935,2.302,9.251,1
381,35.281,-97.424,359.9,22.65,13.653,310,-0.821,2.384,9.051,0
382,35.281,-97.424,359.9,22.54,13.653,309,-0.929,2.477,9.395,1
383,35.281,-97.424,0.3,22.29,13.653,310,-0.924,2.442,9.221,1
384,35.281,-97.424,359.8,22.57,13.653,310,-0.778,2.452,9.273,1
385,35.282,-97.424,0,22.76,13.653,310,-0.849,2.482,9.289,1
386,35.282,-97.424,0.5,22.83,13.653,310,-0.899,2.386,8.581,1
387,35.282,-97.424,0.1,23.13,13.653,311,-0.917,2.044,9.274,0
388,35.282,-97.424,0.4,23.01,13.653,311,-0.865,2.186,9.561,1
389,35.282,-97.424,359.7,22.95,13.653,312,-0.778,2.154,9.321,1
390,35.283,-97.424,0.5,22.62,13.653,312,-0.959,2.187,9.504,1
391,35.283,-97.424,0.3,22.33,13.653,310,-0.88,2.207,9.248,1
392,35.283,-97.424,0,22.35,13.653,312,-0.926,2.163,9.296,1
393,35.283,-97.424,359.9,22.25,13.653,313,-0.855,2.332,9.444,1
395,35.283,-97.424,359.8,22.4,13.653,314,-0.81,2.204,9.169,1
395,35.283,-97.424,359.8,22.4,13.653,314,-0.81,2.204,9.169,1
396,35.284,-97.424,0.4,22.19,13.653,312,-0.796,2.135,9.211,1
397,35.284,-97.424,359.8,22.33,13.653,311,-0.838,2.245,9.266,1
398,35.284,-97.424,0.3,22.19,13.653,310,-0.949,2.292,9.444,0
399,35.285,-97.424,0.4,22.71,13.653,311,-0.912,2.323,9.384,0
400,35.285,-97.424,0.1,22.63,13.653,310,-0.954,2.134,9.587,0
401,35.285,-97.424,0.2,22.57,13.653,311,-0.903,2.011,9.182,0
402,35.285,-97.424,0.2,22.46,13.653,310,-0.769,1.974,9.25,1
403,35.285,-97.424,0.6,22.76,13.653,309,-0.805,2.049,9.477,0
404,35.286,-97.424,0.4,22.69,15.17,309,-0.795,2.035,9.327,0
405,35.286,-97.424,0,22.08,15.17,309,-0.979,2.03,9.405,1
406,35.286,-97.424,0.2,22.07,15.17,309,-1.007,2.065,9.442,0
407,35.286,-97.424,359.5,22.19,13.653,308,-0.971,2.142,9.733,0
408,35.286,-97.424,359.2,22.27,15.17,307,-0.692,2.063,9.478,0
409,35.287,-97.424,359.2,21.98,13.653,308,-0.87,2.122,9.663,0
410,35.287,-97.424,1,22.01,13.653,307,-0.876,2.043,9.409,0
411,35.287,-97.424,0.7,21.62,13.653,306,-0.736,2.091,9.575,0
412,35.287,-97.424,0.1,21.35,13.653,308,-0.918,2.059,9.432,0
413,35.287,-97.424,0.4,20.95,13.653,309,-0.987,2.144,9.463,0
414,35.287,-97.424,0.3,20.53,13.653,309,-1.047,1.928,9.488,0
415,35.288,-97.424,359.9,20.05,13.653,310,-0.887,2.321,9.28,0
416,35.288,-97.424,359.8,19.84,13.653,311,-0.903,2.34,8.982,1
417,35.288,-97.424,359.6,19.75,13.653,312,-0.836,2.436,9.327,1
418,35.288,-97.424,359.8,19.56,13.653,312,-0.789,2.402,9.192,1
419,35.288,-97.424,359.8,19.41,13.653,314,-0.709,2.867,8.988,1
420,35.289,-97.424,359.7,19.43,13.653,315,-0.969,2.919,9.223,1
421,35.289,-97.424,0.3,19.82,13.653,315,-0.935,2.922,9.288,1
422,35.289,-97.424,0.4,20.74,13.653,314,-0.9,2.86,9.102,1
423,35.289,-97.424,0.3,21.03,13.653,313,-0.774,2.52,9.184,1
424,35.289,-97.424,0.1,21.82,13.653,313,-0.515,2.136,9.254,1
425,35.289,-97.424,0.6,21.89,13.653,312,-0.743,2.158,9.522,0
426,35.29,-97.424,1.4,21.65,13.653,312,-1.043,1.862,9.313,1
427,35.29,-97.424,1.2,21.33,13.653,312,-0.974,2.044,9.571,1
428,35.29,-97.424,1,20.9,15.17,312,-0.852,2.531,9.017,1
429,35.29,-97.424,0.6,20.67,15.17,312,-0.95,2.69,9.264,0
430,35.29,-97.424,0.4,20.62,13.653,312,-0.78,2.719,9.193,1
431,35.291,-97.424,0.3,20.9,13.653,312,-0.721,2.661,9.418,1
433,35.291,-97.424,359.9,21.05,13.653,313,-0.757,2.717,9.152,1
433,35.291,-97.424,359.9,21.05,13.653,313,-0.757,2.717,9.152,1
434,35.291,-97.424,0.2,21.61,13.653,311,-0.805,2.174,9.396,0
435,35.291,-97.424,0,21.57,13.653,311,-0.991,2.021,9.229,1
436,35.292,-97.424,359.7,21.48,13.653,312,-1.008,2.328,9.332,0
437,35.292,-97.424,359,21.31,13.653,311,-0.661,2.583,9.402,1
438,35.292,-97.424,359.1,21.42,13.653,312,-0.627,2.496,9.164,1
439,35.292,-97.424,359.9,21.37,13.653,312,-0.804,2.529,9.263,1
440,35.292,-97.424,0,21.76,13.653,312,-0.907,2.487,8.871,1
441,35.293,-97.424,0.1,21.78,13.653,313,-0.978,2.508,9.007,1
442,35.293,-97.424,0.5,22.23,13.653,313,-1.06,2.617,9.486,0
443,35.293,-97.424,0.2,22.22,13.653,313,-0.98,2.557,9.126,1
444,35.293,-97.424,0.1,22.77,13.653,314,-1.026,2.107,9.193,0
445,35.293,-97.424,0,22.71,13.653,314,-0.806,2.173,9.564,0
446,35.294,-97.424,0.2,22.19,13.653,313,-0.884,2.309,9.364,0
447,35.294,-97.424,0.6,22.06,13.653,312,-0.92,2.439,9.08,0
448,35.294,-97.424,0.8,22.24,13.653,314,-0.951,2.469,9.364,1
449,35.294,-97.424,0.4,21.97,13.653,314,-1.1,2.514,9.414,1
450,35.294,-97.424,0.4,22.29,13.653,315,-0.944,2.42,9.257,1
451,35.295,-97.424,0.1,22.12,13.653,315,-0.883,2.551,9.508,1
452,35.295,-97.424,359.8,22.27,13.653,315,-0.961,2.509,9.312,0
453,35.295,-97.424,0.2,22.54,13.653,316,-0.881,2.211,9.382,1
454,35.295,-97.424,359.9,22.42,13.653,315,-0.958,2.31,9.329,1
455,35.295,-97.424,359.7,22.28,13.653,315,-0.877,2.506,9.076,1
456,35.296,-97.424,0.3,22.39,13.653,316,-0.842,2.44,9.184,1
457,35.296,-97.424,0,22.25,13.653,318,-0.81,2.491,9.382,0
458,35.296,-97.424,0.2,22.65,13.653,319,-0.925,2.305,9.038,1
459,35.296,-97.424,0.6,22.34,13.653,319,-0.849,2.089,9.214,0
460,35.296,-97.424,0,22.24,13.653,319,-0.87,2.174,9.372,1
461,35.297,-97.424,0.3,22.21,13.653,319,-0.867,2.261,9.19,1
462,35.297,-97.424,0.5,22.12,13.653,319,-0.86,2.294,9.053,1
463,35.297,-97.424,0.4,22.45,13.653,319,-0.883,2.377,9.29,1
464,35.297,-97.424,0,22.17,13.653,320,-0.84,2.316,9.458,0
465,35.297,-97.424,0,22.4,13.653,320,-0.925,2.385,9.526,0
466,35.298,-97.424,0.3,22.75,13.653,321,-0.896,2.378,9.45,0
467,35.298,-97.424,0.1,22.75,13.653,321,-0.885,2.357,8.943,0
468,35.298,-97.424,0.4,22.27,13.653,320,-0.892,2.375,8.945,1
469,35.298,-97.424,0.1,21.77,13.653,322,-1.038,2.543,9.534,1
470,35.298,-97.424,359.6,22.33,13.653,324,-0.72,2.296,9.169,1
472,35.299,-97.424,359.4,22.41,13.653,324,-0.87,2.309,9.605,0
472,35.299,-97.424,359.4,22.41,13.653,324,-0.87,2.309,9.605,0
473,35.299,-97.424,0.1,22.4,13.653,324,-0.897,2.137,9.066,0
474,35.299,-97.424,0.7,22.11,13.653,325,-1,2.259,9.829,0
475,35.299,-97.424,0.2,21.9,13.653,324,-0.993,2.088,9.277,1
476,35.3,-97.424,0.4,21.69,13.653,324,-0.845,2.027,9.162,1
477,35.3,-97.424,0.1,21.33,13.653,324,-0.874,2.101,9.286,1
478,35.3,-97.424,0.3,20.66,13.653,326,-0.914,2.507,9.081,1
479,35.3,-97.424,0.3,20.61,13.653,325,-0.755,2.568,9.306,1
480,35.3,-97.424,0,20.76,13.653,326,-0.911,2.56,9.319,1
481,35.301,-97.424,0.2,21.03,13.653,325,-0.948,2.841,9.08,1
482,35.301,-97.424,0.1,21.16,13.653,326,-0.937,3.02,9.377,1
483,35.301,-97.424,0.4,21.42,13.653,327,-0.944,2.937,9.297,1
484,35.301,-97.424,0.2,22.02,13.653,329,-0.807,2.187,9.398,0
485,35.301,-97.424,0.3,22.47,13.653,330,-0.625,2.152,9.532,0
486,35.302,-97.424,0.2,22.26,13.653,330,-0.9,2.439,9.608,1
487,35.302,-97.424,0.8,22.37,13.653,331,-1.012,2.449,9.469,0
488,35.302,-97.424,0.5,22.21,13.653,331,-1.045,2.371,9.282,0
489,35.302,-97.424,359.7,21.76,13.653,331,-0.643,2.417,9.272,1
490,35.302,-97.424,359.7,22.1,13.653,332,-0.599,2.248,8.744,0
491,35.303,-97.424,0.1,22.15,13.653,333,-0.724,2.422,9.381,1
492,35.303,-97.424,0.3,22.36,13.653,333,-0.858,2.342,9.234,1
493,35.303,-97.424,0.3,22.55,13.653,334,-0.752,2.282,8.85,0
494,35.303,-97.424,0.3,22.46,13.653,333,-0.904,2.39,9.389,0
495,35.303,-97.424,0.3,21.7,13.653,333,-0.804,2.434,9.533,1
496,35.304,-97.424,0.6,22.23,13.653,333,-0.65,2.31,9.125,0
497,35.304,-97.424,0.5,21.89,13.653,332,-0.784,2.351,9.353,0
498,35.304,-97.424,0.7,22.36,13.653,333,-0.565,2.434,9.566,1
499,35.304,-97.424,1,22.28,13.653,333,-0.825,2.249,9.065,1
500,35.304,-97.424,1.9,22.39,13.653,334,-0.94,2.356,9.364,1
501,35.305,-97.424,1.8,22.14,13.653,333,-1.015,2.207,9.137,0
503,35.305,-97.424,1.1,21.9,13.653,332,-0.842,2.293,9.269,1
503,35.305,-97.424,1.1,21.9,13.653,332,-0.842,2.293,9.269,1
504,35.305,-97.424,0.1,21.98,13.653,332,-0.936,2.292,9.398,0
505,35.305,-97.424,0.5,22.41,13.653,332,-0.939,2.12,9.46,0
506,35.306,-97.424,0.2,22.49,13.653,333,-1.003,2.253,9.695,0
507,35.306,-97.424,359.5,22.36,13.653,332,-1.159,2.313,9.775,0
508,35.306,-97.424,359.4,22.53,13.653,332,-1.216,2.218,9.192,0
509,35.306,-97.424,357.9,22.22,13.653,332,-0.364,2.291,9.127,0
510,35.306,-97.424,358.7,22.22,13.653,332,-0.371,2.354,9.197,0
511,35.307,-97.424,359.6,22.13,13.653,331,-0.665,2.396,9.754,0
512,35.307,-97.424,0,22.7,13.653,330,-0.792,2.307,9.149,0
513,35.307,-97.424,359.8,22.44,13.653,330,-0.872,2.338,9.768,0
514,35.307,-97.424,0,22.65,13.653,330,-0.673,2.342,9.454,0
515,35.307,-97.424,0.2,22.26,13.653,330,-0.747,2.376,9.358,0
516,35.308,-97.424,0.2,22.24,13.653,330,-0.994,2.312,9.262,0
517,35.308,-97.424,359.8,22.19,13.653,330,-0.752,2.26,8.984,1
518,35.308,-97.424,359.7,22.3,13.653,330,-0.8,2.266,9.253,1
519,35.308,-97.424,359.7,22.38,13.653,330,-0.698,2.2,9.384,1
520,35.308,-97.424,359.9,22.24,13.653,329,-0.98,2.187,9.245,1
521,35.309,-97.424,0.2,22.41,13.653,329,-0.887,2.153,9.363,1
522,35.309,-97.424,359.2,22.26,13.653,327,-0.503,2.08,9.378,1
523,35.309,-97.424,359.4,22.35,13.653,327,-0.838,2.08,9.493,0
524,35.309,-97.424,0.1,22.42,13.653,328,-0.786,2.061,9.201,1
525,35.309,-97.424,359.6,22.49,13.653,328,-0.581,2.055,9.387,1
526,35.31,-97.424,359.9,22.54,13.653,328,-0.826,2.043,9.264,1
527,35.31,-97.424,0.1,22.71,13.653,328,-0.789,2.071,9.43,0
528,35.31,-97.424,0,22.63,13.653,326,-0.744,2.119,9.478,1
529,35.31,-97.424,0,22.79,13.653,326,-0.925,2.041,9.284,1
530,35.31,-97.424,0.3,22.67,13.653,325,-0.832,2.172,9.469,0
531,35.311,-97.424,0.2,22.79,13.653,324,-0.786,2.197,9.625,0
532,35.311,-97.424,359.9,22.67,13.653,324,-0.781,2.147,9.487,1
533,35.311,-97.424,359.7,22.68,13.653,324,-0.664,2.031,9.215,0
534,35.311,-97.424,0.1,22.93,13.653,325,-0.821,2.127,9.506,0
536,35.311,-97.424,0.4,22.77,13.653,325,-0.816,2.083,9.257,0
536,35.311,-97.424,0.4,22.77,13.653,325,-0.816,2.083,9.257,0
537,35.312,-97.424,0,22.05,13.653,325,-0.774,2.206,9.305,1
538,35.312,-97.424,0.5,21.89,13.653,323,-0.832,2.292,9.104,0
539,35.312,-97.424,0,21.94,13.653,322,-0.768,2.364,9.192,1
540,35.312,-97.424,0.2,22.26,13.653,322,-0.818,2.355,9.379,1
541,35.313,-97.424,0.4,22.52,13.653,323,-0.725,2.222,9.273,1
542,35.313,-97.424,359.8,22.31,13.653,324,-0.829,2.188,9.213,1
543,35.313,-97.424,0.5,22.42,13.653,324,-0.883,2.2,9.186,1
544,35.313,-97.424,359.9,21.87,13.653,324,-0.945,2.246,9.556,1
545,35.313,-97.424,0.3,22.57,13.653,324,-0.861,2.279,9.512,0
546,35.314,-97.424,359.7,22.15,13.653,325,-0.848,2.233,9.39,0
547,35.314,-97.424,0.3,22.35,13.653,325,-0.813,2.338,9.722,0
548,35.314,-97.424,359.5,22.26,13.653,326,-0.751,2.34,9.546,0
549,35.314,-97.424,0.2,22.51,13.653,328,-0.935,2.232,9.188,1
550,35.314,-97.424,359.9,22.33,13.653,328,-0.792,2.355,9.391,1
551,35.315,-97.424,359.7,22.6,13.653,329,-0.861,2.325,9.215,1
552,35.315,-97.424,0.1,22.13,13.653,329,-0.738,2.28,9.261,1
553,35.315,-97.424,0,22.5,13.653,329,-0.737,2.357,9.141,1
554,35.315,-97.424,0.1,22.29,13.653,329,-0.757,2.392,9.271,1
555,35.315,-97.424,359.9,22.3,13.653,329,-0.731,2.363,9.374,0
556,35.316,-97.424,0.1,22.35,13.653,330,-0.716,2.396,9.363,1
557,35.316,-97.424,0.3,22.24,13.653,330,-0.807,2.447,9.436,1
558,35.316,-97.424,0.5,21.96,13.653,330,-0.88,2.427,9.529,1
559,35.316,-97.424,0.9,22.15,13.653,331,-0.811,2.334,9.183,1
560,35.316,-97.424,0.1,22.31,13.653,332,-0.769,2.367,9.414,0
561,35.317,-97.424,359.8,22.07,13.653,332,-0.812,2.38,9.271,1
562,35.317,-97.424,0.4,22.16,13.653,333,-1.05,2.398,9.329,0
563,35.317,-97.424,0.6,22.31,13.653,333,-1.024,2.293,9.157,1
564,35.317,-97.424,359.9,22.54,13.653,334,-0.668,2.336,9.348,1
565,35.317,-97.424,359.4,22.45,13.653,334,-0.677,2.349,9.329,0
566,35.318,-97.424,0,22.44,13.653,333,-0.744,2.45,9.731,0
567,35.318,-97.424,359.8,22.09,13.653,333,-0.878,2.417,9.506,0
568,35.318,-97.424,0.5,22.25,13.653,334,-0.947,2.165,9.595,0
569,35.318,-97.424,0.3,22.27,13.653,335,-0.613,0.451,9.851,0
570,35.318,-97.424,0.3,21.6,13.653,336,-0.757,-0.342,9.962,0
571,35.319,-97.424,0.5,19.6,13.653,336,-0.676,0.129,9.978,0
572,35.319,-97.424,1.2,16.7,13.653,336,-0.774,0.883,9.714,0
573,35.319,-97.424,1.2,14.33,13.653,336,-0.877,1.315,9.757,0
574,35.319,-97.424,0.9,12.49,13.653,335,-0.85,1.347,9.627,1
575,35.319,-97.424,1.1,11.43,13.653,335,-0.771,1.077,9.759,1
576,35.319,-97.424,0.7,10.08,13.653,336,-0.774,1.139,9.574,0
578,35.319,-97.424,0.9,8.82,13.653,336,-0.865,1.233,9.699,1
578,35.319,-97.424,0.9,8.82,13.653,336,-0.865,1.233,9.699,1
579,35.319,-97.424,359.8,5.86,13.653,336,-0.901,1.719,9.528,1
580,35.319,-97.424,359.9,4.87,13.653,335,-0.81,2.301,9.258,1
581,35.319,-97.424,358.6,4.79,13.653,336,-0.876,2.657,9.297,1
582,35.319,-97.424,1.1,5.09,13.653,336,-0.861,3.59,9.043,1
583,35.32,-97.424,358.7,5.64,13.653,336,-0.768,3.543,8.926,1
584,35.32,-97.424,359.9,6.69,13.653,335,-0.807,3.287,8.841,1
585,35.32,-97.424,0.4,7.63,13.653,336,-0.64,3.684,8.901,1
586,35.32,-97.424,0.9,8.69,13.653,336,-0.718,3.471,9.107,0
587,35.32,-97.424,0.6,9.91,13.653,336,-0.77,3.279,8.996,1
588,35.32,-97.424,359.5,10.3,13.653,337,-0.766,3.314,8.909,1
589,35.32,-97.424,0.3,11.42,13.653,337,-0.932,3.441,9.017,1
590,35.32,-97.424,359.4,12.21,13.653,337,-0.713,3.405,8.983,1
591,35.32,-97.424,0,13.23,13.653,335,-0.687,3.356,9.003,1
592,35.32,-97.424,0.1,14.76,13.653,335,-0.683,3.46,8.891,1
593,35.321,-97.424,359.8,15.36,13.653,337,-1.003,3.36,8.636,1
594,35.321,-97.424,359.3,16.48,13.653,337,-0.83,3.045,9.002,0
595,35.321,-97.424,358.8,17.54,13.653,337,-0.79,2.755,8.783,0
596,35.321,-97.424,358.5,18.34,13.653,338,-0.652,2.24,9.214,1
597,35.321,-97.424,358.8,17.99,13.653,337,-0.667,2.5,9.167,1
598,35.321,-97.424,358.9,17.95,13.653,337,-0.628,2.889,9.157,1
599,35.321,-97.424,359.9,18.58,13.653,337,-0.867,2.921,9.11,1
600,35.322,-97.424,359.7,19.23,13.653,336,-0.795,2.961,8.997,1
601,35.322,-97.424,0,19.68,13.653,336,-0.885,2.889,8.929,1
602,35.322,-97.424,0.5,20.31,13.653,336,-0.905,2.955,9.236,0
603,35.322,-97.424,0.1,20.86,13.653,336,-0.923,2.941,9.14,1
604,35.322,-97.424,359.9,21.54,13.653,336,-0.852,2.912,9.071,1
605,35.323,-97.424,359.7,22,13.653,337,-0.788,2.729,9.154,1
606,35.323,-97.424,0.1,22.72,13.653,338,-0.883,2.186,9.66,1
607,35.323,-97.424,0,22.75,13.653,337,-0.88,2.123,9.494,1
608,35.323,-97.424,359.8,22.76,13.653,338,-0.983,2.359,9.307,1
610,35.323,-97.424,359.9,22.25,13.653,338,-0.605,2.424,9.22,1
610,35.323,-97.424,359.9,22.25,13.653,338,-0.605,2.424,9.22,1
611,35.324,-97.424,359.8,22.38,13.653,340,-0.72,2.404,9.244,1
612,35.324,-97.424,0.2,22.64,13.653,340,-0.907,2.416,9.202,1
613,35.324,-97.424,359.4,22.93,13.653,341,-0.722,2.336,9.495,1
614,35.324,-97.424,359.4,22.9,13.653,342,-0.7,2.383,9.289,1
615,35.325,-97.424,0,22.59,13.653,343,-0.91,2.34,9.124,1
616,35.325,-97.424,0.1,22.8,13.653,342,-0.843,2.317,8.876,1
617,35.325,-97.424,359.7,22.73,13.653,343,-0.765,2.345,9.214,1
618,35.325,-97.424,359.9,22.76,13.653,345,-0.766,2.344,9.31,1
619,35.325,-97.424,359.8,22.72,13.653,345,-0.598,2.336,8.99,1
620,35.326,-97.424,0.1,22.63,13.653,344,-0.684,2.288,9.252,1
621,35.326,-97.424,0.1,23.2,13.653,344,-0.821,2.193,9.18,1
622,35.326,-97.424,0.2,22.97,13.653,344,-0.935,2.116,9.439,1
623,35.326,-97.424,0.5,22.75,13.653,344,-0.952,1.174,9.7,1
624,35.327,-97.424,0.1,22.52,13.653,342,-0.767,2.007,9.363,0
625,35.327,-97.424,359.8,21.72,13.653,342,-0.942,2.072,9.298,1
626,35.327,-97.424,359.9,21.61,13.653,343,-0.816,2.46,9.436,0
627,35.327,-97.424,359.6,21.55,13.653,342,-0.632,2.2,9.521,1
628,35.327,-97.424,359.7,21.67,13.653,342,-0.832,2.225,9.433,1
629,35.327,-97.424,359.8,21.6,13.653,341,-0.878,2.379,9.358,1
630,35.328,-97.424,359.9,21.92,13.653,341,-0.782,2.366,9.237,1
631,35.328,-97.424,0,22.03,13.653,341,-1.029,2.422,9.213,1
632,35.328,-97.424,0.3,22.1,13.653,341,-0.812,2.335,9.323,1
633,35.328,-97.424,359.8,22.49,13.653,339,-0.795,2.089,9.267,1
634,35.328,-97.424,359.7,22.56,13.653,340,-0.82,2.504,9.262,1
635,35.329,-97.424,359.8,22.67,13.653,340,-0.446,2.101,9.084,1
636,35.329,-97.424,359.5,23.26,13.653,340,-0.811,2.056,9.338,1
638,35.329,-97.424,0,23.32,13.653,335,-0.932,1.974,9.403,1
638,35.329,-97.424,0,23.32,13.653,335,-0.932,1.974,9.403,1
639,35.33,-97.424,359.8,23.2,13.653,336,-0.906,2.093,9.491,1
