time,lat,lng,bearing,spd,acc,alt,accx,accy,accz,stable,
0,35.204,-97.475,270,14.18,3,326,0.03,-0.417,9.856,0
1,35.204,-97.475,270,13.89,3,327,0.048,-0.46,9.678,1
2,35.204,-97.475,269.9,13.46,3,326,0.056,-0.783,9.345,0
3,35.204,-97.475,269.9,13.09,3,326,0.072,-0.276,9.593,0
4,35.204,-97.475,270,12.72,3,327,-0.048,-0.191,10.049,0
5,35.204,-97.476,270.1,12.33,3,326,0.918,0.785,9.768,0
6,35.204,-97.476,270.3,11.03,3,326,0.671,0.429,9.647,0
7,35.204,-97.476,270.6,9.67,3,326,0.978,0.349,9.969,0
8,35.204,-97.476,271.4,8.7103,3,326,1.167,0.027,10.253,0
9,35.204,-97.476,272.2,7.4401,3,326,0.694,-0.024,9.641,0
10,35.204,-97.476,272.8,6.241,3,326,1.044,0.31,10.223,0
11,35.204,-97.476,272.8,4.8803,3,326,0.34,-0.16,9.669,0
12,35.204,-97.476,272.6,4.0208,3,326,-0.037,-0.323,9.893,1
13,35.204,-97.476,272.5,3.6009,3,326,0.492,-0.113,9.81,0
14,35.204,-97.476,272.3,1.4717,3,326,0.413,-0.056,9.848,1
15,35.204,-97.476,272.3,1.4717,3,326,-0.276,-0.483,9.804,1
16,35.204,-97.476,272.3,1.4717,3,326,-0.304,-0.484,9.713,1
17,35.204,-97.476,272.3,1.4717,3,326,-0.272,-0.438,9.73,1
18,35.204,-97.476,272.3,1.4717,3,326,-0.258,-0.47,9.751,1
19,35.204,-97.476,272.3,1.4717,3,326,-0.284,-0.501,9.657,1
20,35.204,-97.476,272.3,1.4717,3,326,-0.275,-0.478,9.761,1
21,35.204,-97.476,272.3,1.4717,3,326,-0.285,-0.461,9.772,1
22,35.204,-97.476,272.3,1.4717,3,326,-0.259,-0.498,9.753,1
23,35.204,-97.476,272.3,1.4717,3,326,-0.284,-0.467,9.716,1
24,35.204,-97.476,272.3,1.4717,3,326,-0.284,-0.473,9.783,1
25,35.204,-97.476,272.3,1.4717,3,326,-0.284,-0.468,9.687,1
26,35.204,-97.476,272.3,1.4717,3,326,-0.27,-0.454,9.75,1
27,35.204,-97.476,272.3,1.4717,3,326,-0.274,-0.501,9.788,1
28,35.204,-97.476,272.3,1.4717,3,326,-0.262,-0.46,9.759,1
29,35.204,-97.476,272.3,1.4717,3,326,-0.277,-0.47,9.742,1
30,35.204,-97.476,272.3,1.4717,3,326,-0.264,-0.491,9.775,1
31,35.204,-97.476,272.3,1.4717,3,326,-0.269,-0.457,9.763,1
32,35.204,-97.476,272.3,1.4717,3,326,-0.29,-0.464,9.788,1
33,35.204,-97.476,272.3,1.4717,3,326,-0.267,-0.492,9.721,1
34,35.204,-97.476,272.3,1.4717,3,326,-0.263,-0.475,9.747,1
35,35.204,-97.476,272.3,1.4717,3,326,-0.283,-0.477,9.739,1
36,35.204,-97.476,272.3,1.4717,3,326,-0.281,-0.467,9.768,1
37,35.204,-97.476,272.3,1.4717,3,326,-0.261,-0.476,9.777,1
38,35.204,-97.476,272.3,1.4717,3,326,-0.267,-0.488,9.769,1
39,35.204,-97.476,272.3,1.4717,3,326,-0.284,-0.46,9.7,1
40,35.204,-97.476,272.3,1.4717,3,326,-0.308,-0.478,9.704,1
41,35.204,-97.476,0,0.01,3,326,-0.298,-0.468,9.613,1
42,35.204,-97.476,0,0.01,3,326,-0.276,-0.485,9.716,1
43,35.204,-97.476,0,0.01,3,326,-0.314,-0.464,9.629,1
44,35.204,-97.476,0,0.01,3,326,-0.302,-0.492,9.625,1
45,35.204,-97.476,0,0.01,3,326,-0.319,-0.482,9.664,1
46,35.204,-97.476,0,0.01,3,326,-0.28,-0.508,9.633,1
47,35.204,-97.476,0,0.01,3,326,-0.307,-0.471,9.659,1
48,35.204,-97.476,0,0.01,3,326,-0.276,-0.505,9.695,1
49,35.204,-97.476,0,0.01,3,326,-0.296,-0.486,9.634,1
50,35.204,-97.476,0,0.01,3,326,-0.29,-0.473,9.689,1
51,35.204,-97.476,0,0.01,3,326,-0.277,-0.479,9.69,1
52,35.204,-97.476,0,0.01,3,326,-0.288,-0.474,9.746,1
53,35.204,-97.476,0,0.01,3,326,-0.272,-0.484,9.73,1
54,35.204,-97.476,0,0,3,327,-0.288,-0.478,9.647,1
55,35.204,-97.476,0,0,3,327,-0.294,-0.48,9.791,1
56,35.204,-97.476,0,0,3,327,-0.257,-0.49,9.751,1
57,35.204,-97.476,0,0,3,327,-0.277,-0.475,9.766,1
58,35.204,-97.476,0,0,3,327,-0.284,-0.488,9.723,1
59,35.204,-97.476,0,0,3,327,-0.26,-0.476,9.747,1
60,35.204,-97.476,0,0,3,327,-0.297,-0.485,9.717,1
62,35.204,-97.476,0,0,3,327,-0.27,-0.49,9.732,1
62,35.204,-97.476,0,0,3,327,-0.27,-0.49,9.732,1
63,35.204,-97.476,0,0,3,327,-0.269,-0.474,9.697,1
64,35.204,-97.476,0,0,3,327,-0.29,-0.474,9.778,1
65,35.204,-97.476,0,0,3,327,-0.298,-0.488,9.66,1
66,35.204,-97.476,0,0,3,327,-0.297,-0.48,9.654,1
67,35.204,-97.476,0,0,3,327,-0.288,-0.467,9.683,1
68,35.204,-97.476,0,0,3,327,-0.28,-0.478,9.783,1
69,35.204,-97.476,0,0,3,327,-0.298,-0.49,9.734,1
70,35.204,-97.476,0,0,3,327,-0.272,-0.489,9.754,1
71,35.204,-97.476,0,0,3,327,-0.284,-0.47,9.746,1
72,35.204,-97.476,0,0,3,327,-0.311,-0.471,9.756,1
73,35.204,-97.476,0,0,3,327,-0.288,-0.492,9.801,1
74,35.204,-97.476,0,0,3,327,-0.311,-0.465,9.686,1
75,35.204,-97.476,0,0,3,327,-0.276,-0.462,9.792,1
76,35.204,-97.476,0,0,3,327,-0.296,-0.456,9.771,1
77,35.204,-97.476,0,0,3,327,-0.32,-0.493,9.664,1
78,35.204,-97.476,0,0,3,327,-0.324,-0.459,9.685,1
79,35.204,-97.476,0,0,3,327,-0.292,-0.469,9.682,1
80,35.204,-97.476,0,0,3,327,-0.288,-0.479,9.728,1
81,35.204,-97.476,0,0,3,327,-0.323,-0.472,9.692,1
82,35.204,-97.476,0,0,3,327,-0.267,-0.481,9.767,1
83,35.204,-97.476,0,0,3,327,-0.275,-0.487,9.745,1
84,35.204,-97.476,0,0,3,327,-0.325,-0.448,9.667,1
85,35.204,-97.476,0,0,3,327,-0.289,-0.5,9.657,1
86,35.204,-97.476,0,0,3,327,-0.311,-0.447,9.716,1
87,35.204,-97.476,0,0,3,327,-0.683,-0.744,9.705,1
88,35.204,-97.476,0,0,3,327,-0.677,-0.649,9.582,1
89,35.204,-97.476,272,0.51,3,329,-0.637,-0.637,9.602,1
90,35.204,-97.476,271.9,0.85006,3,329,-1.618,-1.189,9.577,1
91,35.204,-97.476,271.8,1.6,3,329,-1.212,-0.937,9.578,1
92,35.204,-97.476,271.5,2.7502,3,329,-1.292,-1.272,9.658,1
93,35.204,-97.476,272,3.3929,3,329,-1.254,-0.915,9.516,1
94,35.204,-97.476,271.7,4.2909,3,329,-1.614,-0.937,9.238,0
95,35.204,-97.476,271.6,5.5001,3,329,-1.212,-1.106,9.521,0
96,35.204,-97.476,271.2,6.3906,3,329,-1.31,-0.546,9.489,0
97,35.204,-97.477,271,7.5501,3,329,-1.468,-0.651,10.099,0
98,35.204,-97.477,270.7,8.5001,3,329,-1.26,-0.896,9.571,0
99,35.204,-97.477,270.6,9.5705,3,329,-1.506,-0.728,9.996,0
100,35.204,-97.477,270.3,10.78,3,329,-1.416,-1.033,9.447,0
101,35.204,-97.477,270.1,11.651,3,329,-1.42,-0.934,9.395,0
102,35.204,-97.477,270,12.661,3,329,-1.25,-1.052,9.574,0
103,35.204,-97.477,270.1,13.731,3,329,-0.951,-0.828,9.731,1
104,35.204,-97.478,270.1,14.732,3,329,-0.266,-0.399,9.831,0
105,35.204,-97.478,270,15.201,3,329,-0.036,-0.234,9.697,0
106,35.204,-97.478,269.7,15.642,3,330,-0.019,-0.216,9.71,0
107,35.204,-97.478,269.7,15.382,3,330,0.474,0.045,10.1,0
108,35.204,-97.478,269.8,13.984,3,331,0.37,0.253,9.926,0
109,35.204,-97.478,270.1,12.542,3,330,1.274,0.778,10.049,0
110,35.204,-97.479,272.3,12.192,3,331,-0.194,0.55,9.734,0
111,35.204,-97.479,275.9,11.881,3,331,-0.314,0.797,10.245,0
112,35.204,-97.479,282.3,11.431,3,331,-0.298,1.027,9.424,0
113,35.204,-97.479,290.6,9.4002,3,331,-1.227,0.799,9.796,0
114,35.204,-97.479,300,11.19,3,331,-1.653,1.093,9.645,0
115,35.204,-97.479,311.6,11.521,8,330,-2.051,1.429,9.999,0
116,35.204,-97.479,324.1,11.503,7,329,-1.942,1.421,10.039,0
117,35.204,-97.479,335.4,11.772,8,329,-1.358,0.401,9.628,0
118,35.204,-97.479,339.1,12.192,7,330,-0.957,-0.597,9.48,1
119,35.205,-97.479,339.9,12.574,3,329,-0.812,-0.677,9.864,1
120,35.205,-97.479,340.4,13.41,3,329,-1.13,-0.91,9.419,1
121,35.205,-97.479,340.6,14.46,3,328,-1.193,-1.04,9.984,0
122,35.205,-97.479,340.6,15.643,3,327,-1.074,-0.934,9.588,1
123,35.205,-97.48,340.6,17.154,3,326,-1.015,-0.907,9.453,0
124,35.205,-97.48,340.8,18.454,3,325,-1.044,-0.87,9.687,0
125,35.205,-97.48,341,19.379,3,325,-0.717,-0.786,9.932,0
126,35.206,-97.48,340.9,20.354,3,325,-0.451,-0.731,9.458,0
127,35.206,-97.48,340.6,21.082,3,325,-0.669,-0.619,9.786,0
129,35.206,-97.48,340.4,21.91,3,325,-0.99,-0.198,10.044,0
129,35.206,-97.48,340.4,21.91,3,325,-0.99,-0.198,10.044,0
130,35.206,-97.48,340.5,23.08,3,324,-0.863,-0.506,9.692,0
131,35.206,-97.48,340.3,23.51,3,324,-0.636,-1.389,10.197,0
132,35.207,-97.48,339.6,24.15,3,324,-1.439,-0.821,8.686,0
133,35.207,-97.48,338.8,25.331,3,323,-1.307,-0.318,9.438,0
134,35.207,-97.48,338.6,26.31,4,323,-1.01,-0.048,10.333,0
135,35.207,-97.481,337.9,26.73,3,323,-0.671,-0.567,9.599,0
136,35.208,-97.481,336.7,27.08,3,323,-0.448,-0.784,9.754,0
137,35.208,-97.481,335.4,27.33,3,323,-0.642,-0.665,9.984,0
138,35.208,-97.481,334.1,27.541,3,324,-1.129,-0.08,9.757,0
139,35.208,-97.481,333.9,28.051,3,324,-0.42,-0.075,9.548,0
140,35.208,-97.481,333.5,28.202,3,325,-0.841,-0.303,9.753,0
141,35.209,-97.481,333.1,28.392,3,325,-0.789,-0.609,9.806,1
142,35.209,-97.481,332.5,28.692,3,325,-0.722,-0.665,9.659,0
143,35.209,-97.482,331.2,28.961,3,326,-0.553,-0.595,9.385,0
144,35.209,-97.482,331,29.332,3,327,-0.967,-0.684,9.417,1
145,35.21,-97.482,331.1,29.812,3,327,-1.328,-0.135,9.651,0
146,35.21,-97.482,331.9,30.502,3,328,-0.91,-1.171,9.414,1
147,35.21,-97.482,331.5,31.072,3,328,-0.848,-1.11,9.31,0
148,35.21,-97.482,330.7,31.923,3,329,-0.863,-1.223,9.876,0
149,35.211,-97.483,330.1,32.641,3,329,-0.987,-0.975,9.549,1
150,35.211,-97.483,329.9,33.332,3,329,-1.318,-0.342,9.079,0
151,35.211,-97.483,330.6,34.013,3,330,-1.051,-0.759,9.896,0
152,35.211,-97.483,330.9,34.912,3,330,-1.102,-0.865,10.061,0
153,35.212,-97.483,331.1,35.614,3,331,-0.768,-1.417,9.774,0
154,35.212,-97.484,330,36.314,3,331,-0.958,-0.904,10.403,0
155,35.212,-97.484,329.7,37.025,3,332,-1.434,0.052,9.87,0
156,35.213,-97.484,330.4,37.815,3,333,-0.374,0.859,9.386,0
157,35.213,-97.484,332.2,38.073,3,332,-0.683,1.697,9.7,0
158,35.213,-97.484,334.8,37.233,3,333,-0.317,1.033,9.905,0
159,35.214,-97.485,336.6,37.586,3,334,-0.218,0.791,9.565,0
160,35.214,-97.485,338,37.255,3,334,-0.27,0.648,10.136,0
161,35.214,-97.485,339.4,37.481,3,331,-0.249,0.988,9.733,0
162,35.214,-97.485,341,36.971,3,330,-0.397,0.767,9.882,0
163,35.215,-97.485,343.2,36.631,3,330,-0.556,0.46,10.729,0
164,35.215,-97.485,345,36.531,3,331,-0.599,0.425,9.877,0
165,35.215,-97.485,346.4,36.22,3,331,-0.685,0.299,9.727,0
166,35.216,-97.485,348,36.27,3,330,-0.726,0.503,9.461,0
167,35.216,-97.485,349.7,36.09,3,330,-0.856,0.617,9.527,0
168,35.216,-97.485,351.7,35.801,3,331,-0.798,0.275,10.085,0
169,35.217,-97.485,353.6,35.521,3,331,-0.73,0.406,9.64,0
170,35.217,-97.485,355.2,35.391,3,331,-0.166,0.365,9.654,0
171,35.217,-97.485,357.2,34.641,3,331,-0.096,0.126,10.355,0
172,35.218,-97.485,358.2,34.41,3,331,-0.277,-0.09,9.5,0
173,35.218,-97.485,359.2,34.191,3,331,-0.292,0.167,9.186,0
174,35.218,-97.485,359.7,33.361,3,332,-0.347,-0.204,10.548,0
175,35.219,-97.485,359.7,33.161,4,332,-0.392,0.02,10.172,0
176,35.219,-97.485,0,32.991,4,333,-0.576,-0.309,9.835,0
177,35.219,-97.485,0,32.891,5,333,-0.596,-0.064,9.541,1
178,35.22,-97.485,359.8,32.931,3,333,-0.631,0.218,9.295,0
179,35.22,-97.485,0,32.991,3,333,-0.529,0.054,9.127,0
180,35.22,-97.485,0,33.042,3,333,-0.591,-0.151,9.643,0
181,35.221,-97.485,0.1,33.081,3,333,-0.563,-0.176,9.525,0
182,35.221,-97.485,359.9,33.12,3,333,-0.639,-0.108,9.521,0
183,35.221,-97.485,0.1,33.11,3,332,-0.645,-0.066,10.236,0
184,35.221,-97.485,0.1,33.14,3,332,-0.617,0.002,9.654,0
185,35.222,-97.485,0.1,33.151,3,332,-0.493,0.114,9.824,0
186,35.222,-97.485,0.1,33.16,4,332,-0.494,-0.148,9.933,0
187,35.222,-97.485,359.9,33.16,3,326,-0.546,-0.133,10.038,0
188,35.223,-97.485,359.8,33.171,3,326,-0.5,-0.113,9.544,0
189,35.223,-97.485,359.6,33.17,3,326,-0.651,0.037,9.755,0
190,35.223,-97.485,359.9,33.2,3,326,-0.564,-0.086,10.097,0
191,35.224,-97.485,0,33.23,3,326,-0.582,-0.141,9.676,0
192,35.224,-97.485,359.8,33.25,3,326,-0.501,-0.132,9.609,0
194,35.224,-97.485,359.9,33.25,3,326,-0.657,0.038,9.657,0
194,35.224,-97.485,359.9,33.25,3,326,-0.657,0.038,9.657,0
195,35.224,-97.485,0.1,33.24,3,327,-0.5,-0.117,9.894,0
196,35.225,-97.485,0.1,33.25,3,327,-0.545,0.047,9.483,0
197,35.225,-97.485,359.9,33.27,3,327,-0.539,0.027,9.679,0
198,35.225,-97.485,359.8,33.29,3,327,-0.543,0.043,9.656,0
199,35.226,-97.485,359.8,33.23,3,328,-0.567,0.076,9.825,0
200,35.226,-97.485,359.9,33.25,3,327,-0.59,0.108,9.809,0
201,35.226,-97.485,0.1,33.23,3,327,-0.399,-0.177,9.601,0
202,35.227,-97.485,0,33.24,3,327,-0.523,0.036,9.774,1
203,35.227,-97.485,359.8,33.27,3,327,-0.653,0.07,9.747,1
204,35.227,-97.485,359.9,33.3,3,327,-0.526,0.123,9.864,1
205,35.227,-97.485,0,33.33,3,327,-0.538,0.057,9.743,1
206,35.228,-97.485,0,33.37,3,327,-0.528,-0.062,9.652,1
207,35.228,-97.485,0.1,33.37,3,327,-0.476,-0.06,9.673,1
208,35.228,-97.485,359.9,33.38,3,327,-0.593,0.128,9.789,1
209,35.229,-97.485,0,33.38,3,327,-0.586,0.094,9.73,1
210,35.229,-97.485,0.1,33.39,3,327,-0.552,-0.082,9.822,1
211,35.229,-97.485,0,33.41,3,327,-0.476,-0.053,9.585,1
212,35.23,-97.485,359.9,33.4,3,327,-0.504,0.013,9.514,1
213,35.23,-97.485,359.8,33.39,3,327,-0.614,0.129,9.684,1
214,35.23,-97.485,359.8,33.39,3,327,-0.642,0.139,9.767,1
215,35.23,-97.485,0,33.38,3,327,-0.572,0.028,9.674,1
216,35.231,-97.485,0.1,33.37,3,327,-0.554,-0.005,9.727,1
217,35.231,-97.485,359.9,33.37,3,327,-0.591,-0.064,9.732,1
218,35.231,-97.485,359.8,33.39,3,327,-0.662,-0.041,9.897,1
219,35.232,-97.485,359.7,33.39,3,327,-0.743,0.055,9.764,1
220,35.232,-97.485,359.7,33.4,3,327,-0.65,0.031,9.83,1
221,35.232,-97.485,0,33.45,3,326,-0.571,0.081,9.848,1
222,35.233,-97.485,0.2,33.44,3,326,-0.593,-0.134,9.915,1
223,35.233,-97.485,0.2,33.5,3,327,-0.608,0.035,9.745,1
224,35.233,-97.485,0.1,33.52,3,326,-0.565,0.028,9.608,1
225,35.233,-97.485,359.9,32.99,3,326,-0.456,-0.087,9.705,1
226,35.234,-97.485,359.9,33.45,3,326,-0.528,0.21,9.861,1
227,35.234,-97.485,359.8,33.36,3,326,-0.431,-0.055,9.726,1
228,35.234,-97.485,359.9,33.25,3,326,-0.541,0.113,9.664,1
229,35.235,-97.485,359.8,33.17,3,326,-0.583,-0.031,9.795,0
230,35.235,-97.485,359.9,33.16,3,326,-0.55,0,9.711,0
231,35.235,-97.485,359.8,33.17,3,326,-0.621,-0.023,9.773,0
232,35.236,-97.485,359.7,33.22,3,326,-0.615,-0.045,9.769,0
233,35.236,-97.485,359.7,33.24,3,327,-0.663,0.065,9.892,0
234,35.236,-97.485,0,33.3,3,326,-0.664,0.182,9.866,0
235,35.237,-97.485,0.2,33.3,3,326,-0.49,-0.218,9.728,0
236,35.237,-97.485,359.9,33.31,3,326,-0.506,-0.027,9.816,0
237,35.237,-97.485,359.9,33.29,3,326,-0.477,-0.114,9.845,1
238,35.238,-97.485,359.8,33.27,3,326,-0.397,-0.022,9.897,1
239,35.238,-97.485,359.9,33.14,3,326,-0.455,0.143,9.627,1
240,35.238,-97.485,0.1,32.96,3,326,-0.38,0.068,9.731,1
241,35.239,-97.485,0,32.8,3,326,-0.258,0.131,9.788,1
242,35.239,-97.485,359.9,32.59,3,326,-0.457,0.181,9.761,0
243,35.239,-97.485,359.9,32.4,3,326,-0.332,0.204,9.845,0
244,35.239,-97.485,359.8,32.12,3,326,-0.161,0.225,9.717,0
245,35.24,-97.485,359.7,31.77,3,326,-0.233,0.121,9.743,0
246,35.24,-97.485,359.9,31.51,3,325,-0.417,0.214,9.806,0
247,35.24,-97.485,0.2,31.31,3,325,-0.381,0.118,9.85,0
248,35.241,-97.485,0.2,31.1,3,325,-0.363,0.06,9.663,0
249,35.241,-97.485,0.1,30.86,3,325,-0.328,0.052,9.71,1
250,35.241,-97.485,359.8,30.61,3,325,-0.34,0.151,9.853,1
251,35.241,-97.485,0,30.34,3,325,-0.273,0.076,9.776,1
252,35.242,-97.485,359.9,30.08,3,325,-0.325,0.127,9.79,1
253,35.242,-97.485,0,29.88,3,324,-0.449,0.229,9.829,1
254,35.242,-97.485,0.1,29.76,3,324,-0.398,0.088,9.681,1
255,35.242,-97.485,0.1,29.7,3,324,-0.625,0.171,9.703,1
256,35.243,-97.485,0.1,29.69,3,324,-0.554,0.095,9.859,1
257,35.243,-97.485,0.1,29.67,3,324,-0.496,-0.057,9.781,1
258,35.243,-97.485,359.8,29.67,3,324,-0.533,-0.112,9.852,0
260,35.244,-97.485,359.6,29.68,3,324,-0.552,0.023,9.597,0
260,35.244,-97.485,359.6,29.68,3,324,-0.552,0.023,9.597,0
261,35.244,-97.485,359.7,29.71,3,324,-0.584,0.005,9.694,0
262,35.244,-97.485,359.9,29.74,3,324,-0.596,-0.063,9.681,0
263,35.244,-97.485,0,29.79,3,324,-0.76,-0.006,9.891,0
264,35.245,-97.485,0,29.89,3,324,-0.636,-0.012,9.64,0
265,35.245,-97.485,0,30.01,3,325,-0.648,-0.066,9.637,0
266,35.245,-97.485,0,30.13,3,324,-0.666,-0.155,9.798,1
267,35.245,-97.485,359.9,30.31,3,325,-0.67,-0.105,9.53,1
268,35.246,-97.485,359.8,30.46,3,324,-0.661,-0.041,9.698,1
269,35.246,-97.485,359.8,30.57,3,324,-0.708,0.098,9.551,1
270,35.246,-97.485,0,30.66,3,324,-0.647,-0.129,9.887,1
271,35.247,-97.485,0,30.86,3,324,-0.72,-0.235,9.838,0
272,35.247,-97.485,359.9,31.15,3,324,-0.733,-0.236,9.689,0
273,35.247,-97.485,359.9,31.38,3,324,-0.684,-0.12,9.836,0
274,35.247,-97.485,0,31.59,3,324,-0.628,-0.141,9.68,0
275,35.248,-97.485,0.1,31.78,3,325,-0.577,-0.199,9.733,0
276,35.248,-97.485,0,31.811,3,325,-0.633,-0.104,9.607,0
277,35.248,-97.485,0.1,32.66,3,325,-0.673,-0.068,9.678,0
278,35.249,-97.485,0,32.22,3,325,-0.705,-0.189,9.644,1
279,35.249,-97.485,0,32.44,3,325,-0.664,-0.135,9.681,1
280,35.249,-97.485,0,32.65,3,325,-0.708,-0.2,9.769,1
281,35.249,-97.485,0,32.8,3,325,-0.672,-0.118,9.833,1
282,35.25,-97.485,359.8,32.93,3,325,-0.688,-0.113,9.778,1
283,35.25,-97.485,0,33.021,3,326,-0.606,-0.117,9.588,1
284,35.25,-97.485,0,33.11,3,326,-0.574,-0.187,9.536,1
285,35.251,-97.485,359.8,33.15,3,327,-0.698,-0.087,9.817,1
286,35.251,-97.485,359.9,33.19,3,327,-0.388,0.242,9.665,1
287,35.251,-97.485,0,33.08,3,327,-0.204,0.155,9.727,1
288,35.252,-97.485,359.8,32.64,3,327,1.309,1.068,10.056,0
289,35.252,-97.485,359.9,31.34,3,327,1.657,1.295,9.954,0
290,35.252,-97.485,359.8,28.66,3,328,0.447,0.552,9.919,0
291,35.252,-97.485,0.1,26.37,3,328,-0.181,0.252,9.799,0
292,35.253,-97.485,0.1,25.83,3,328,-0.269,-0.035,9.723,0
293,35.253,-97.485,0,25.54,3,329,-0.383,0.034,9.728,0
294,35.253,-97.485,359.8,25.24,3,329,-0.342,0.176,9.815,0
295,35.253,-97.485,359.8,24.91,3,329,-0.376,0.217,9.907,0
296,35.253,-97.485,359.8,24.63,3,328,-0.528,0.073,9.694,0
297,35.254,-97.486,359.9,24.47,3,328,-0.689,-0.009,9.671,0
298,35.254,-97.486,359.9,24.46,3,328,-0.759,-0.22,9.778,0
299,35.254,-97.486,359.9,24.59,3,328,-0.815,-0.27,9.766,0
300,35.254,-97.486,359.9,24.83,3,328,-0.736,-0.066,9.633,0
301,35.255,-97.486,359.9,25.35,3,328,-0.94,-0.042,9.742,0
302,35.255,-97.486,0.1,25.82,3,328,-1.008,-0.14,9.607,0
303,35.255,-97.486,0.1,26.25,3,328,-0.775,-0.321,9.615,0
304,35.255,-97.486,359.9,26.64,3,328,-0.857,-0.15,9.653,0
305,35.256,-97.486,0,26.95,3,328,-0.844,-0.18,9.67,0
306,35.256,-97.486,0.1,27.17,3,329,-0.745,-0.159,9.66,1
307,35.256,-97.486,0.1,27.39,3,329,-0.74,0.019,9.737,1
308,35.256,-97.486,0.1,27.65,3,329,-0.755,-0.178,9.956,1
309,35.257,-97.486,359.9,27.94,3,329,-0.654,-0.099,9.735,0
310,35.257,-97.486,359.7,28.08,3,329,-0.506,-0.06,9.678,0
311,35.257,-97.486,359.5,28.02,3,328,-0.524,0.058,9.584,0
312,35.257,-97.486,359.7,28.02,3,328,-0.524,0.172,9.722,0
313,35.258,-97.486,359.9,27.84,3,328,-0.299,0.291,9.65,0
314,35.258,-97.486,359.9,27.52,3,328,-0.455,0.087,9.77,0
315,35.258,-97.486,359.9,27.47,3,328,-0.461,0.162,9.836,0
316,35.258,-97.486,0.1,27.43,3,329,-0.324,0.031,9.717,1
317,35.259,-97.486,0.2,27.28,3,329,-0.28,0.026,9.697,1
318,35.259,-97.486,0.1,27.05,3,329,-0.243,0.157,9.652,1
319,35.259,-97.485,0.1,26.68,3,329,-0.143,0.113,9.945,0
320,35.259,-97.486,0.1,26.32,3,329,-0.157,0.149,9.824,0
321,35.26,-97.486,0,25.98,3,330,-0.303,-0.04,9.803,0
322,35.26,-97.486,359.9,25.94,3,330,-0.591,0.04,9.752,0
323,35.26,-97.485,0,26.03,3,330,-0.551,-0.088,9.733,0
324,35.26,-97.485,359.8,26.12,3,330,-0.6,0.054,9.781,0
325,35.261,-97.486,359.8,26.19,3,330,-0.605,0.001,9.858,0
326,35.261,-97.486,359.9,26.27,3,330,-0.617,-0.019,9.78,0
327,35.261,-97.486,359.9,26.34,3,330,-0.617,0.061,9.904,0
329,35.261,-97.486,359.9,26.38,3,330,-0.563,0.061,9.652,0
329,35.261,-97.486,359.9,26.38,3,330,-0.563,0.061,9.652,0
330,35.262,-97.486,359.8,26.44,3,330,-0.855,-0.048,9.671,0
331,35.262,-97.486,359.9,26.75,3,329,-0.921,-0.212,9.625,0
332,35.262,-97.486,0.2,27.06,3,330,-0.946,-0.284,9.768,0
333,35.262,-97.486,0.6,27.661,3,330,-0.928,-0.218,9.679,1
334,35.263,-97.486,359.6,28.11,3,330,-0.927,-0.222,9.758,1
335,35.263,-97.486,359.7,28.52,3,330,-0.944,-0.142,9.702,1
336,35.263,-97.486,359.9,28.81,3,329,-0.59,0.065,9.897,1
337,35.263,-97.486,0,28.78,3,329,-0.641,0.247,9.789,1
338,35.264,-97.486,0.1,28.72,3,329,-0.472,0.155,9.896,1
339,35.264,-97.486,0.1,28.61,3,329,-0.639,-0.046,9.784,1
340,35.264,-97.486,0,28.65,3,329,-0.758,-0.026,9.939,1
341,35.264,-97.486,359.9,28.85,3,328,-0.717,-0.137,9.786,1
342,35.265,-97.486,359.9,29.1,3,328,-0.638,-0.106,9.684,1
343,35.265,-97.486,359.9,29.3,3,328,-0.801,-0.074,9.676,1
344,35.265,-97.486,359.9,29.55,3,328,-0.789,-0.086,9.756,1
345,35.265,-97.486,359.9,29.8,3,328,-0.697,0.063,9.856,1
346,35.266,-97.486,0.1,29.88,3,328,-0.716,0.032,9.615,1
347,35.266,-97.486,0.1,30.06,3,328,-0.805,0.051,9.526,1
348,35.266,-97.486,0.2,30.26,3,327,-0.69,0.004,9.783,1
349,35.267,-97.486,0.2,30.46,3,327,-0.531,-0.129,9.732,1
350,35.267,-97.486,0.1,30.6,3,328,-0.518,-0.173,9.846,1
351,35.267,-97.486,359.9,30.62,3,328,-0.583,-0.03,9.89,1
352,35.267,-97.486,0,30.69,3,328,-0.551,-0.01,9.768,1
353,35.268,-97.486,359.9,30.8,3,328,-0.574,-0.088,9.709,1
354,35.268,-97.486,359.9,30.87,3,327,-0.609,-0.157,9.611,1
355,35.268,-97.486,359.7,30.98,3,327,-0.669,0.013,9.58,1
356,35.268,-97.486,359.6,31.15,3,327,-0.584,-0.027,9.905,1
357,35.269,-97.486,359.7,31.28,3,327,-0.638,0.121,9.761,1
358,35.269,-97.486,359.7,31.36,3,326,-0.498,0.117,9.791,1
359,35.269,-97.486,359.8,31.46,3,326,-0.52,-0.068,9.968,1
360,35.27,-97.486,359.9,31.45,3,326,-0.714,-0.065,9.834,1
361,35.27,-97.486,359.9,31.61,3,326,-0.528,0.034,9.758,1
362,35.27,-97.486,359.9,31.78,3,326,-0.561,0.065,9.793,1
363,35.27,-97.486,0,31.851,3,326,-0.651,0.196,9.504,1
364,35.271,-97.486,359.9,31.961,3,325,-0.619,-0.065,9.741,1
365,35.271,-97.486,359.9,32.091,3,324,-0.707,0.049,9.659,1
366,35.271,-97.486,359.9,32.341,3,324,-0.751,0.095,9.844,1
367,35.272,-97.486,0,32.6,3,323,-0.74,-0.114,9.801,1
368,35.272,-97.486,0,32.87,3,324,-0.669,-0.223,9.808,1
369,35.272,-97.486,359.9,33.07,3,325,-0.643,-0.062,9.777,0
370,35.273,-97.486,359.9,33.34,3,325,-0.356,0.17,9.94,0
371,35.273,-97.486,0,33.16,3,325,-0.297,0.067,9.775,0
372,35.273,-97.486,359.8,33.151,3,325,-0.368,-0.057,9.727,0
373,35.274,-97.486,359.9,33.11,3,324,-0.48,0.105,9.804,0
374,35.274,-97.486,0.1,33.2,3,323,-0.598,0.233,9.818,0
375,35.274,-97.486,0.2,33.211,3,323,-0.323,0.103,9.902,0
376,35.275,-97.486,0,32.99,3,323,-0.485,0.052,9.821,0
377,35.275,-97.486,0,33.05,3,322,-0.53,0.1,9.805,0
378,35.275,-97.486,0.1,33.07,3,322,-0.366,0.081,9.875,0
379,35.276,-97.486,0,32.891,3,322,-0.214,0.149,9.836,0
380,35.276,-97.486,359.8,32.55,3,322,-0.216,0.414,9.827,0
381,35.276,-97.486,359.9,32.14,3,321,-0.151,0.285,10.137,0
382,35.276,-97.486,0,31.55,3,321,-0.058,0.419,10.066,0
383,35.277,-97.486,0.5,30.881,3,322,-0.301,0.64,9.976,0
384,35.277,-97.486,1.6,30.273,3,322,-0.373,0.582,9.941,0
385,35.277,-97.485,3.5,29.672,3,323,-0.473,0.713,9.845,0
386,35.277,-97.485,6.2,29.261,3,324,-0.91,1.359,10.128,0
387,35.278,-97.485,10.4,28.621,3,325,-1.044,1.38,9.756,0
388,35.278,-97.485,14.3,28.251,3,325,-0.896,0.998,9.869,0
389,35.278,-97.485,17.1,28.12,3,325,-0.523,0.16,9.613,0
390,35.278,-97.485,18.3,27.98,3,326,-0.412,-0.057,9.638,0
391,35.279,-97.485,18.7,27.88,3,326,-0.406,-0.47,9.715,0
392,35.279,-97.485,18.6,27.84,3,326,-0.481,-0.274,9.712,0
393,35.279,-97.485,18.6,27.82,3,326,-0.374,-0.24,9.651,0
394,35.279,-97.485,18.5,27.72,3,327,-0.504,-0.188,9.68,0
395,35.28,-97.485,18.1,27.71,3,327,-0.569,-0.138,9.693,0
396,35.28,-97.485,16,27.22,3,326,-0.447,-0.409,9.673,1
397,35.28,-97.484,16.7,27.85,3,326,-0.246,-1.107,9.513,1
399,35.28,-97.484,13.9,28.05,3,326,-0.172,-1.208,9.492,1
399,35.28,-97.484,13.9,28.05,3,326,-0.172,-1.208,9.492,1
400,35.281,-97.484,10.8,28.22,3,327,-0.33,-0.836,9.656,1
401,35.281,-97.484,8.4,28.42,3,327,-0.34,-1.086,9.661,1
402,35.281,-97.484,6.1,28.661,3,327,-0.377,-1.116,9.669,1
403,35.281,-97.484,3.5,28.921,3,328,-0.327,-1.178,9.58,1
404,35.282,-97.484,0.6,29.14,3,328,-0.247,-1.174,9.651,1
405,35.282,-97.484,357.6,29.41,3,328,-0.395,-1.095,9.676,1
406,35.282,-97.484,354.9,29.7,3,328,-0.331,-1.014,9.625,1
407,35.282,-97.484,352.4,29.98,3,328,-0.163,-1.006,9.63,1
408,35.283,-97.484,350,30.11,3,328,-0.089,-1.07,9.724,1
409,35.283,-97.484,347.2,30.131,3,328,-0.07,-1.122,9.702,1
410,35.283,-97.485,344.5,30.171,3,329,-0.478,-0.309,9.816,1
411,35.283,-97.485,343.3,30.192,3,329,-0.62,-0.097,9.61,1
412,35.284,-97.485,343,30.251,3,330,-0.803,-0.013,9.737,1
413,35.284,-97.485,343.1,30.39,3,331,-0.655,0.014,9.635,1
414,35.284,-97.485,343.4,30.47,3,331,-0.784,-0.078,9.63,1
415,35.285,-97.485,343.7,30.68,3,330,-0.571,-0.315,9.589,1
416,35.285,-97.485,343.5,30.91,3,329,-0.539,-0.379,9.778,1
417,35.285,-97.485,343.2,31.09,3,329,-0.6,-0.014,9.828,1
418,35.285,-97.485,343.1,31.24,3,330,-0.624,-0.061,9.674,1
419,35.286,-97.485,343.2,31.39,3,329,-0.68,-0.15,9.964,0
420,35.286,-97.486,343.3,31.55,3,330,-0.562,-0.146,9.706,0
421,35.286,-97.486,343.2,31.62,3,330,-0.57,-0.122,9.781,0
422,35.286,-97.486,343.1,31.66,3,330,-0.572,-0.207,9.695,0
423,35.287,-97.486,343.1,31.67,3,330,-0.624,-0.15,9.612,0
424,35.287,-97.486,343.2,31.81,3,330,-0.562,-0.149,9.697,0
425,35.287,-97.486,343.3,31.85,3,330,-0.417,-0.379,9.773,0
426,35.288,-97.486,343.3,31.89,3,331,-0.429,-0.203,9.701,1
427,35.288,-97.486,343.2,31.94,3,331,-0.554,-0.087,9.744,1
428,35.288,-97.486,343.4,31.991,3,331,-0.514,-0.32,9.881,1
429,35.288,-97.486,343.6,31.96,3,331,-0.413,-0.385,9.914,1
430,35.289,-97.487,343.6,31.97,3,331,-0.412,-0.428,9.761,1
431,35.289,-97.487,343.5,31.97,3,331,-0.491,-0.314,9.664,1
432,35.289,-97.487,343.3,32.02,3,333,-0.408,-0.277,9.472,1
433,35.289,-97.487,343.1,32.03,3,333,-0.548,-0.154,9.654,1
434,35.29,-97.487,343.1,32.03,3,332,-0.489,-0.247,9.754,1
435,35.29,-97.487,343.3,32.07,3,332,-0.462,-0.232,9.728,1
436,35.29,-97.487,343.3,32.12,3,332,-0.347,-0.408,9.568,1
437,35.291,-97.487,343.2,32.14,3,333,-0.509,-0.337,9.961,1
438,35.291,-97.487,343,32.15,3,333,-0.492,-0.226,9.601,1
439,35.291,-97.487,343.2,32.13,3,333,-0.446,-0.178,9.724,1
440,35.291,-97.488,343.5,32.04,3,333,-0.415,-0.163,9.523,1
441,35.292,-97.488,343.3,32.17,3,332,-0.321,-0.185,9.565,1
442,35.292,-97.488,343.4,32.07,3,332,-0.139,-0.333,9.669,1
443,35.293,-97.488,343.3,31.87,3,332,-0.143,-0.022,9.648,1
444,35.293,-97.488,343.4,31.76,3,332,-0.228,-0.345,9.701,1
445,35.293,-97.488,343.2,31.69,3,331,-0.417,-0.468,9.752,1
446,35.293,-97.488,343.1,31.9,3,331,-0.578,-0.499,9.837,1
447,35.294,-97.488,343.1,32.131,3,331,-0.473,-0.394,9.741,1
448,35.294,-97.488,343,32.371,3,330,-0.476,-0.349,9.574,1
449,35.294,-97.489,343.1,32.701,3,330,-0.464,-0.357,9.664,1
450,35.294,-97.489,343.2,32.92,3,330,-0.544,-0.273,9.599,1
451,35.295,-97.489,343.3,33.071,3,329,-0.362,-0.291,9.779,1
452,35.295,-97.489,343.4,33.22,3,329,-0.336,-0.278,9.54,1
453,35.295,-97.489,343.4,33.36,3,329,-0.332,-0.344,9.663,1
454,35.296,-97.489,343.4,33.36,3,328,-0.502,0.036,9.802,1
455,35.296,-97.489,344.2,33.411,3,328,-0.481,-0.02,9.902,1
456,35.296,-97.489,345,33.401,3,328,-0.53,0.017,9.892,1
457,35.296,-97.489,345.8,33.45,3,328,-0.361,0.063,10.062,0
458,35.297,-97.489,346.7,33.23,3,328,-0.208,0.298,9.795,0
459,35.297,-97.49,347.6,32.821,3,328,-0.333,0.462,9.815,0
460,35.297,-97.49,348.9,32.341,3,329,-0.148,0.575,10.062,0
461,35.298,-97.49,350.2,31.61,3,329,0.236,0.861,10.186,0
462,35.298,-97.49,351.6,30.37,3,329,-0.155,0.329,9.811,0
463,35.298,-97.49,352.4,29.88,3,329,-0.417,0.065,9.875,0
464,35.298,-97.49,353.5,29.44,3,332,-0.483,-0.047,9.838,0
465,35.299,-97.49,354.3,29.28,3,331,-0.476,-0.183,9.742,0
466,35.299,-97.49,355,29.24,3,331,-0.656,-0.055,9.774,0
467,35.299,-97.49,355.9,29.192,3,331,-0.635,-0.05,9.682,0
468,35.299,-97.49,356.9,29.162,3,332,-0.447,0.186,9.708,0
470,35.3,-97.49,358.1,28.942,3,333,-0.466,0.335,9.6,0
470,35.3,-97.49,358.1,28.942,3,333,-0.466,0.335,9.6,0
471,35.3,-97.49,359.4,28.612,3,333,-0.432,-0.285,9.548,1
472,35.3,-97.49,359.7,28.532,3,334,-0.525,-0.387,9.56,1
473,35.3,-97.49,359.8,28.581,3,334,-0.445,-0.403,9.628,1
474,35.301,-97.49,359.9,28.621,3,335,-0.615,-0.204,9.612,1
475,35.301,-97.49,0.1,28.69,3,335,-0.597,-0.336,9.637,1
476,35.301,-97.49,0.3,28.83,3,335,-0.595,-0.49,9.675,1
477,35.302,-97.49,0.3,29.04,3,335,-0.798,-0.644,9.572,1
478,35.302,-97.49,0.2,29.44,3,336,-0.911,-0.714,9.418,1
479,35.302,-97.49,0.2,30.13,3,336,-0.836,-0.774,9.555,1
480,35.302,-97.49,359.7,30.82,3,337,-0.957,-0.548,9.614,1
481,35.303,-97.49,359.8,31.41,3,337,-0.652,-0.239,9.713,1
482,35.303,-97.49,0.2,31.9,3,337,0.028,-0.221,9.731,1
483,35.303,-97.49,0.2,31.49,3,337,-0.093,0.123,9.565,1
484,35.303,-97.49,0.4,31.04,3,337,-0.118,0.099,9.794,1
485,35.304,-97.49,1,30.64,3,336,0.101,-0.041,9.699,1
486,35.304,-97.49,1,30.22,3,336,0.219,-0.319,9.671,1
487,35.304,-97.49,0.7,29.8,3,337,0.114,-0.331,9.815,1
488,35.305,-97.49,0.2,29.41,3,337,-0.011,-0.235,9.732,1
489,35.305,-97.49,359.9,29.02,3,336,0.057,-0.252,9.825,1
490,35.305,-97.49,359.3,28.941,3,337,0.029,-0.198,9.858,1
491,35.305,-97.49,0,29.021,3,337,-0.166,-0.436,9.89,1
492,35.306,-97.49,0.2,28.88,3,337,-0.124,-0.563,9.71,1
493,35.306,-97.49,359.2,27.91,3,337,-0.3,-0.53,10.057,0
494,35.306,-97.49,358.8,27.92,3,337,-0.406,-0.335,9.688,0
495,35.306,-97.49,358.4,27.96,3,337,-0.534,-0.101,9.624,0
496,35.307,-97.49,358.9,28.13,3,337,-0.647,-0.134,9.65,0
497,35.307,-97.49,359.4,28.34,3,337,-0.626,-0.379,9.83,0
498,35.307,-97.49,359.9,28.62,3,337,-0.538,-0.502,9.738,0
499,35.307,-97.49,359.9,28.87,3,337,-0.703,-0.59,9.52,0
500,35.308,-97.49,359.8,29.22,3,337,-0.817,-0.415,9.622,0
501,35.308,-97.49,0,29.72,3,336,-0.676,-0.385,9.775,1
502,35.308,-97.49,0,30.13,3,336,-0.658,-0.528,9.863,1
503,35.308,-97.49,0,30.5,3,336,-0.648,-0.676,9.759,1
504,35.309,-97.49,0,30.83,3,336,-0.567,-0.339,9.657,1
505,35.309,-97.49,0,31.1,3,337,-0.473,-0.285,9.564,1
506,35.309,-97.49,0.1,31.2,3,337,-0.482,-0.361,9.857,1
507,35.31,-97.49,0.1,31.27,3,336,-0.512,-0.595,9.849,0
508,35.31,-97.49,0,31.38,3,336,-0.467,-0.176,9.707,0
509,35.31,-97.49,0.1,31.51,3,336,-0.225,-0.19,9.676,0
510,35.31,-97.49,0.4,31.39,3,336,-0.118,-0.638,9.544,0
511,35.311,-97.49,359.7,31.26,3,337,-0.367,-0.306,9.657,0
512,35.311,-97.49,359.8,31.29,3,337,-0.51,-0.238,9.362,0
513,35.312,-97.49,359.8,31.321,3,337,-0.5,-0.29,9.654,0
514,35.312,-97.49,0.1,31.33,3,337,-0.455,-0.43,9.64,1
515,35.312,-97.49,0,31.321,3,338,-0.483,-0.348,9.679,1
516,35.312,-97.49,0,31.27,3,337,-0.178,-0.152,9.8,1
517,35.313,-97.49,0,30.93,3,337,-0.02,-0.222,9.89,1
518,35.313,-97.49,359.9,30.531,3,337,-0.239,-0.447,9.677,1
519,35.313,-97.49,359.8,30.421,3,338,-0.337,-0.294,9.584,1
520,35.313,-97.49,359.6,30.39,3,338,-0.365,-0.431,9.702,1
521,35.314,-97.49,359.7,30.351,3,339,-0.485,-0.227,9.856,1
522,35.314,-97.49,359.8,30.311,3,339,-0.301,-0.452,9.797,1
523,35.314,-97.49,359.9,30.271,3,339,-0.363,-0.503,9.608,1
524,35.315,-97.49,359.9,30.231,3,340,-0.403,-0.311,9.622,1
525,35.315,-97.49,0.1,30.18,3,339,-0.344,-0.555,9.697,1
526,35.315,-97.49,0.2,30.22,3,339,-0.418,-0.36,9.53,1
527,35.315,-97.49,0,30.19,3,340,-0.389,-0.485,9.646,1
528,35.316,-97.49,359.9,30.131,3,340,-0.285,-0.408,9.75,1
529,35.316,-97.49,359.9,29.991,3,341,-0.222,-0.275,9.686,1
530,35.316,-97.49,359.9,29.811,3,341,-0.196,-0.331,9.824,1
531,35.316,-97.49,359.9,29.551,3,341,-0.147,-0.373,9.614,1
532,35.317,-97.49,359.9,29.321,3,342,-0.48,-0.102,9.784,1
533,35.317,-97.49,0.2,29.18,3,341,-0.477,-0.303,9.778,1
534,35.317,-97.49,0.4,29.09,3,341,-0.248,-0.448,9.579,1
535,35.318,-97.49,0.1,29.08,3,342,-0.428,-0.363,9.693,1
537,35.318,-97.49,0,29.03,3,342,-0.446,-0.357,9.816,1
537,35.318,-97.49,0,29.03,3,342,-0.446,-0.357,9.816,1
538,35.318,-97.49,0,29.011,3,342,-0.339,-0.52,9.631,1
539,35.318,-97.49,359.9,29.001,3,342,-0.24,-0.531,9.566,1
540,35.319,-97.49,359.7,28.951,3,343,-0.364,-0.323,9.564,1
541,35.319,-97.49,359.7,28.911,3,343,-0.417,-0.311,9.616,1
542,35.319,-97.49,359.8,28.9,3,343,-0.324,-0.314,9.598,1
543,35.319,-97.49,359.9,28.86,3,343,-0.659,-0.121,9.766,1
544,35.32,-97.49,0,28.92,3,343,-0.502,-0.351,9.659,1
545,35.32,-97.49,0,29.02,3,343,-0.578,-0.326,9.555,1
546,35.32,-97.49,0.1,29.21,3,343,-0.579,-0.343,9.768,1
547,35.32,-97.49,0.2,29.14,3,343,-0.465,-0.376,9.861,1
548,35.321,-97.49,0,29.531,3,343,-0.43,-0.463,9.91,1
549,35.321,-97.49,359.8,29.76,3,343,-0.338,-0.534,9.687,1
550,35.321,-97.49,359.6,29.83,3,342,-0.534,-0.278,9.695,1
551,35.321,-97.49,359.7,29.95,3,342,-0.578,-0.243,9.819,1
552,35.322,-97.49,0,30.09,3,342,-0.538,-0.49,9.744,1
553,35.322,-97.49,0.1,30.28,3,342,-0.533,-0.6,9.82,1
554,35.322,-97.49,0,30.45,3,342,-0.49,-0.47,9.586,1
555,35.323,-97.49,0,30.64,3,342,-0.481,-0.402,9.789,1
556,35.323,-97.49,0,30.77,3,342,-0.354,-0.492,9.788,1
557,35.323,-97.49,359.9,30.84,3,342,-0.391,-0.47,9.778,1
558,35.323,-97.49,359.9,30.88,3,341,-0.436,-0.404,9.599,1
559,35.324,-97.49,359.9,30.94,3,342,-0.451,-0.356,9.494,1
560,35.324,-97.49,0.1,30.94,3,342,-0.363,-0.384,9.656,1
561,35.324,-97.49,0.1,30.95,3,342,-0.36,-0.408,9.583,1
562,35.325,-97.49,0.1,30.95,3,342,-0.284,-0.47,9.777,1
563,35.325,-97.49,0.1,30.95,3,342,-0.388,-0.369,9.609,1
564,35.325,-97.49,0.2,30.93,3,342,-0.371,-0.587,9.628,1
565,35.325,-97.49,0,30.911,3,342,-0.368,-0.503,9.638,1
566,35.326,-97.49,359.9,30.93,3,342,-0.385,-0.469,9.609,1
567,35.326,-97.49,359.9,30.94,3,342,-0.388,-0.526,9.509,1
568,35.326,-97.49,359.7,30.93,3,342,-0.394,-0.589,9.843,1
569,35.326,-97.49,359.7,30.95,3,342,-0.486,-0.407,9.858,1
570,35.327,-97.49,359.6,31,3,343,-0.416,-0.32,9.617,1
571,35.327,-97.49,359.8,30.99,3,343,-0.359,-0.384,9.598,1
572,35.327,-97.49,0,31,3,343,-0.463,-0.356,9.807,1
573,35.328,-97.49,359.8,31.06,3,344,-0.491,-0.463,9.767,1
574,35.328,-97.49,359.9,31.071,3,344,-0.443,-0.361,9.733,1
575,35.328,-97.49,0,31.07,3,345,-0.54,-0.301,9.64,1
576,35.328,-97.49,0,31.1,3,344,-0.437,-0.362,9.778,1
577,35.329,-97.49,0.2,31.11,3,344,-0.303,-0.57,9.585,1
578,35.329,-97.49,359.8,31.12,3,345,-0.301,-0.435,9.696,1
579,35.33,-97.49,359.8,31.12,3,346,-0.404,-0.277,9.821,1
580,35.33,-97.49,359.9,31.14,3,346,-0.456,-0.281,9.647,1
581,35.33,-97.49,0,31.121,3,345,-0.328,-0.374,9.616,1
582,35.33,-97.49,359.9,31.13,3,345,-0.299,-0.53,9.713,1
583,35.331,-97.49,359.8,31.1,3,345,-0.383,-0.364,9.749,1
584,35.331,-97.49,359.8,31.1,3,346,-0.382,-0.343,9.73,0
585,35.331,-97.49,359.8,31.07,3,346,-0.429,-0.331,9.973,0
586,35.332,-97.49,359.8,31.1,3,346,-0.629,-0.128,9.915,0
587,35.332,-97.49,0,31.11,3,346,-0.472,-0.179,9.622,0
588,35.332,-97.49,359.9,31.1,3,346,-0.406,-0.202,9.738,0
589,35.332,-97.49,359.8,31.13,3,346,-0.349,-0.327,9.774,0
590,35.333,-97.49,359.4,31.111,3,346,-0.348,-0.489,9.756,0
591,35.333,-97.49,358.6,31.11,3,347,-0.189,-0.693,9.467,1
592,35.333,-97.49,357.1,31.13,3,347,-0.336,-0.595,9.725,1
593,35.333,-97.49,355.8,31.18,3,346,-0.331,-0.438,9.714,1
594,35.334,-97.49,354.7,31.19,3,347,-0.299,-0.618,9.798,1
595,35.334,-97.49,353.6,30.87,3,347,-0.266,-0.656,9.762,0
596,35.334,-97.49,351.8,31.051,3,348,-0.248,-0.85,9.573,0
597,35.335,-97.49,350.3,31.14,3,348,-0.146,-0.863,9.703,0
598,35.335,-97.49,348.7,31.151,3,348,-0.237,-0.706,9.908,0
599,35.335,-97.49,347.2,31.14,3,349,-0.313,-0.565,9.859,0
600,35.335,-97.49,346.1,31.13,3,349,-0.269,-0.523,9.618,0
601,35.336,-97.49,344.7,31.16,3,349,-0.276,-0.48,9.776,0
602,35.336,-97.491,343.4,31.07,3,349,-0.449,-0.372,9.69,0
603,35.336,-97.491,342.6,31.061,3,349,-0.484,-0.445,9.924,0
605,35.337,-97.491,341.9,31.003,3,349,-0.442,-0.295,10.01,0
605,35.337,-97.491,341.9,31.003,3,349,-0.442,-0.295,10.01,0
606,35.337,-97.491,341.6,30.835,3,350,-0.446,-0.317,9.618,0
607,35.337,-97.491,341.5,30.676,3,351,-0.652,-0.176,9.769,0
608,35.337,-97.491,341.8,30.578,3,351,-0.555,-0.261,9.692,0
609,35.338,-97.491,342.2,30.425,3,352,-0.535,-0.443,9.494,0
610,35.338,-97.491,342.2,30.423,3,352,-0.412,-0.757,9.195,0
611,35.338,-97.491,341.7,30.502,3,353,-1.03,-0.774,9.793,0
612,35.338,-97.492,341.3,30.661,3,353,-0.64,-0.757,9.488,0
613,35.339,-97.492,341.2,30.832,3,354,-0.354,-0.366,9.041,1
614,35.339,-97.492,341.2,30.962,3,354,-0.458,-0.44,9.438,1
615,35.339,-97.492,341.4,31.121,3,355,-0.392,-0.482,9.54,1
616,35.339,-97.492,341.5,31.28,3,355,-0.358,-0.558,9.823,1
617,35.34,-97.492,341.5,31.38,3,355,-0.278,-0.636,9.655,1
618,35.34,-97.492,341.4,31.43,3,355,-0.32,-0.432,9.685,1
619,35.34,-97.492,341.2,31.46,3,355,-0.391,-0.427,9.87,1
620,35.34,-97.492,341.3,31.47,3,356,-0.263,-0.379,9.578,1
621,35.341,-97.493,341.3,31.38,3,356,-0.322,-0.362,9.585,1
622,35.341,-97.493,341.4,31.39,3,356,-0.334,-0.372,9.778,1
623,35.341,-97.493,341.4,31.38,3,356,-0.367,-0.378,9.592,1
624,35.342,-97.493,341.5,31.39,3,356,-0.353,-0.37,9.817,1
625,35.342,-97.493,341.5,31.42,3,356,-0.194,-0.45,9.593,1
626,35.342,-97.493,341.4,31.46,3,356,-0.276,-0.259,9.854,1
627,35.342,-97.493,341.4,31.49,3,357,-0.287,-0.291,9.584,1
628,35.343,-97.493,341.3,31.45,3,357,-0.075,-0.233,9.728,1
629,35.343,-97.493,341.3,31.27,3,357,-0.317,0.002,9.993,0
630,35.343,-97.494,341.5,30.951,3,356,-0.457,-0.099,9.886,0
631,35.343,-97.494,341.9,31.06,3,356,-0.358,0.297,10.029,0
632,35.344,-97.494,342.3,30.99,3,356,-0.368,0.33,9.57,0
633,35.344,-97.494,342.9,30.751,3,355,-0.386,0.058,9.536,0
634,35.344,-97.494,343.7,31.081,3,355,-0.526,0.13,9.567,0
635,35.344,-97.494,344.7,30.911,3,355,-0.605,0.184,9.768,0
636,35.345,-97.494,345.6,31.121,3,354,-0.54,0.116,9.895,0
637,35.345,-97.494,346.8,31.272,3,354,-0.613,0.28,10.181,0
638,35.345,-97.494,348.2,31.422,3,353,-0.388,0.158,10.167,0
639,35.346,-97.494,349.2,31.31,3,353,-0.53,0.15,10.065,0
640,35.346,-97.494,350,31.14,3,353,-0.647,0.165,9.955,0
641,35.346,-97.494,351.1,31.071,3,353,-0.447,0.33,9.777,0
642,35.346,-97.494,352.1,30.92,3,353,-0.537,0.065,9.66,0
643,35.347,-97.495,353.3,30.741,3,354,-0.598,-0.136,9.731,0
644,35.347,-97.495,354.3,30.77,3,354,-0.582,-0.054,9.738,0
645,35.347,-97.495,355,30.821,3,354,-0.565,-0.062,9.549,0
646,35.347,-97.495,355.9,30.89,3,355,-0.629,0.035,9.81,0
647,35.348,-97.495,356.8,30.88,3,355,-0.688,0.092,9.877,0
648,35.348,-97.495,358.8,30.951,3,355,-0.693,0.106,9.633,0
649,35.349,-97.495,359.4,30.931,3,356,-0.555,-0.255,9.677,0
650,35.349,-97.495,359.8,31.101,3,357,-0.486,-0.152,8.067,0
651,35.349,-97.495,359.7,31.491,3,357,-0.643,-0.229,9.454,0
652,35.349,-97.495,0.3,30.951,3,357,-0.37,-0.454,9.776,0
653,35.35,-97.495,359.9,30.931,3,356,-0.179,-0.279,9.242,0
654,35.35,-97.495,359.8,30.89,3,357,-0.267,-0.386,9.441,1
655,35.35,-97.495,359.7,30.89,3,356,-0.323,-0.53,9.441,1
656,35.351,-97.495,359.6,30.921,3,357,-0.435,-0.598,9.937,0
657,35.351,-97.495,359.5,30.901,3,357,-0.476,-0.517,9.562,0
658,35.351,-97.495,359.5,30.881,3,358,-0.347,-0.47,9.674,0
659,35.351,-97.495,359.5,30.901,3,358,-0.374,-0.402,9.419,0
660,35.352,-97.495,359.6,30.861,3,359,-0.417,-0.38,9.797,0
661,35.352,-97.495,359.6,30.831,3,360,-0.299,-0.601,9.621,0
662,35.352,-97.495,359.5,30.821,3,360,-0.319,-0.464,9.698,0
663,35.353,-97.495,359.6,30.74,3,360,-0.526,-0.529,10.05,0
664,35.353,-97.495,359.6,30.761,3,361,-0.335,-0.387,9.887,0
665,35.353,-97.495,359.6,30.761,3,361,-0.332,-0.517,9.828,0
666,35.353,-97.495,359.4,30.751,3,362,-0.339,-0.408,9.38,0
667,35.354,-97.495,359.5,30.771,3,362,-0.412,-0.37,9.749,0
668,35.354,-97.495,359.3,30.892,3,362,-0.398,-0.416,9.787,0
669,35.354,-97.495,359.7,30.781,3,359,-0.468,-0.503,9.778,0
670,35.354,-97.495,359.9,30.79,3,360,-0.307,-0.599,9.558,0
671,35.355,-97.495,359.7,30.79,3,361,-0.586,-0.462,10.036,0
672,35.355,-97.495,359.7,30.84,3,361,-0.267,-0.318,9.476,0
673,35.355,-97.495,359.7,30.891,3,362,-0.398,-0.246,9.748,0
674,35.356,-97.495,359.8,30.91,3,362,-0.341,-0.542,9.823,0
676,35.356,-97.495,359.6,30.931,3,363,-0.372,-0.615,9.723,0
676,35.356,-97.495,359.6,30.931,3,363,-0.372,-0.615,9.723,0
677,35.356,-97.495,359.4,30.991,3,363,-0.432,-0.515,9.609,0
678,35.356,-97.495,359.2,31.011,3,362,-0.541,-0.214,9.747,0
679,35.357,-97.495,359.3,30.981,3,363,-0.597,-0.216,9.707,0
680,35.357,-97.495,359.3,30.94,3,362,-0.44,-0.281,9.597,0
681,35.357,-97.495,359.3,30.89,3,362,-0.28,-0.443,9.572,0
682,35.358,-97.495,359.2,30.93,3,362,-0.356,-0.109,9.327,1
683,35.358,-97.495,359.1,30.881,3,363,-0.427,-0.201,9.593,1
684,35.358,-97.495,359.5,30.801,3,363,-0.394,-0.293,9.527,1
685,35.358,-97.495,359.7,30.82,3,363,-0.3,-0.694,9.795,1
686,35.359,-97.495,359.4,30.881,3,363,-0.431,-0.341,9.776,0
687,35.359,-97.495,359.3,30.881,3,364,-0.288,-0.484,9.581,0
688,35.359,-97.495,359.3,30.861,3,364,-0.551,-0.204,9.644,0
689,35.359,-97.495,359.4,30.82,3,364,-0.52,-0.18,10,0
690,35.36,-97.495,359.4,30.87,3,364,-0.327,-0.674,9.791,0
691,35.36,-97.495,359.3,30.89,3,365,-0.381,-0.475,9.76,0
692,35.36,-97.495,359.3,30.911,3,365,-0.482,-0.474,9.851,0
693,35.361,-97.495,359.4,30.871,3,366,-0.414,-0.551,10.029,0
694,35.361,-97.495,359.3,30.832,3,366,-0.327,-0.459,9.564,0
695,35.361,-97.495,359.1,30.704,3,365,-0.356,-0.546,9.595,0
696,35.361,-97.495,359,30.634,3,366,-0.427,-0.252,9.74,0
697,35.362,-97.495,359.1,30.564,3,368,-0.456,-0.58,9.706,0
698,35.362,-97.495,359.4,30.552,3,369,-0.829,-0.204,9.53,0
699,35.362,-97.495,359.4,30.523,3,369,-0.641,-0.252,9.337,0
700,35.363,-97.495,359.5,30.582,3,370,-0.731,-0.534,9.413,0
701,35.363,-97.495,359.5,30.711,3,371,-0.578,-0.469,9.359,0
702,35.363,-97.495,359.4,30.89,3,371,-0.412,-0.317,9.574,0
703,35.363,-97.495,359.3,31.1,3,371,-0.538,-0.145,9.626,0
704,35.364,-97.495,359.3,31.24,3,371,-0.085,-0.508,9.048,0
705,35.364,-97.495,359.3,31.38,3,372,-0.157,-0.545,9.231,0
706,35.364,-97.495,359.4,31.552,3,371,-0.156,-0.569,9.659,0
707,35.364,-97.495,359.4,31.724,3,370,-0.226,-0.477,9.723,0
708,35.365,-97.495,359.2,31.832,3,369,-0.23,-0.35,10.049,0
709,35.365,-97.495,359.1,31.831,3,369,-0.06,-0.267,10.066,0
710,35.365,-97.495,359.3,31.77,3,369,0.013,-0.393,9.879,0
711,35.366,-97.495,359.1,31.63,3,369,-0.02,-0.173,9.709,0
712,35.366,-97.495,359.1,31.3,3,369,0.069,-0.563,9.596,0
713,35.366,-97.495,359.1,31.28,3,369,-0.04,-0.553,9.772,0
714,35.366,-97.495,359.2,30.991,3,370,-0.228,-0.444,9.73,0
715,35.367,-97.495,359.3,30.781,3,370,-0.349,-0.473,9.802,0
716,35.367,-97.495,359.4,30.641,3,370,-0.314,-0.496,9.371,0
717,35.367,-97.495,359.4,30.572,3,371,-0.308,-0.592,9.692,0
718,35.368,-97.495,359.3,30.492,3,372,-0.221,-0.488,9.488,0
719,35.368,-97.495,359.1,30.513,3,373,-0.266,-0.539,9.738,0
720,35.368,-97.495,359.1,30.552,3,373,-0.5,-0.438,9.622,0
721,35.369,-97.495,359.2,30.622,3,374,-0.357,-0.463,9.379,0
722,35.369,-97.495,359.3,30.641,3,374,-0.322,-0.42,9.326,0
723,35.369,-97.495,359.3,30.681,3,374,-0.418,-0.42,9.437,0
724,35.37,-97.495,359.3,30.741,3,374,-0.413,-0.314,9.801,0
725,35.37,-97.495,359.4,30.781,3,374,-0.474,-0.434,9.777,0
726,35.37,-97.495,359.5,30.89,3,375,-0.522,-0.463,9.782,1
727,35.37,-97.495,359.4,31.01,3,376,-0.202,-0.586,9.624,1
728,35.371,-97.495,359.3,31.091,3,376,-0.457,-0.539,9.784,1
729,35.371,-97.495,359.2,31.17,3,376,-0.389,-0.54,9.906,0
730,35.371,-97.495,359.1,31.19,3,376,-0.317,-0.449,9.903,0
731,35.371,-97.495,359.2,31.18,3,376,-0.295,-0.37,9.62,0
732,35.372,-97.495,359.4,31.22,3,377,-0.262,-0.473,9.678,0
733,35.372,-97.495,359.2,31.18,3,377,-0.404,-0.482,9.654,0
734,35.372,-97.495,359.2,31.2,3,377,-0.447,-0.297,10.016,0
735,35.373,-97.495,359.2,31.21,3,377,-0.235,-0.499,9.66,0
736,35.373,-97.495,359.3,31.241,3,378,-0.338,-0.387,9.782,0
737,35.373,-97.495,359.4,31.231,3,378,-0.235,-0.539,9.632,0
738,35.373,-97.495,359.5,31.291,3,378,-0.183,-0.383,9.734,0
739,35.374,-97.495,359.5,31.06,3,378,-0.057,-0.363,9.586,0
740,35.374,-97.495,359.6,30.77,3,378,-0.025,-0.255,9.815,0
741,35.374,-97.495,359.6,30.49,3,378,0.031,-0.492,9.784,0
742,35.375,-97.495,359.6,30.17,3,378,-0.089,-0.283,9.723,0
744,35.375,-97.495,359.4,29.91,3,378,0.016,-0.515,9.543,0
744,35.375,-97.495,359.4,29.91,3,378,0.016,-0.515,9.543,0
745,35.375,-97.495,359.4,29.641,3,377,-0.085,-0.483,9.743,0
746,35.375,-97.495,359.5,29.373,3,379,-0.347,-0.491,9.996,0
747,35.376,-97.495,359.8,29.103,3,380,-0.301,-0.403,9.751,0
748,35.376,-97.495,359.9,28.834,3,381,-0.38,-0.546,9.638,0
749,35.376,-97.495,359.9,28.612,3,381,-0.334,-0.364,9.651,0
750,35.376,-97.495,0,28.461,3,382,-0.339,-0.476,9.658,0
751,35.377,-97.495,0.1,28.381,3,382,-0.605,-0.552,9.975,0
752,35.377,-97.495,0,28.392,3,382,-0.276,-0.418,10.283,0
753,35.377,-97.495,0,28.411,3,383,-0.546,-0.499,9.738,0
754,35.377,-97.495,359.8,28.581,3,383,-0.33,-0.764,9.593,0
755,35.378,-97.495,359.6,28.77,3,382,-0.348,-0.406,8.462,0
756,35.378,-97.495,359.7,29.02,3,382,-0.431,-0.471,8.817,0
757,35.378,-97.495,359.6,29.32,3,382,-0.442,-0.448,9.366,0
758,35.378,-97.495,359.7,29.621,3,382,-0.479,-0.348,9.63,0
759,35.379,-97.495,359.9,29.941,3,382,-0.428,-0.503,9.673,0
760,35.379,-97.495,0,30.242,3,381,-0.469,-0.413,9.89,0
761,35.379,-97.495,0,30.531,3,381,-0.272,-0.555,9.498,0
762,35.38,-97.495,0.1,30.761,3,380,-0.086,-0.701,9.604,1
763,35.38,-97.495,359.8,30.96,3,380,-0.264,-0.28,9.757,1
764,35.38,-97.495,359.6,31.04,3,380,-0.308,-0.446,9.971,0
765,35.38,-97.495,359.7,31.04,3,378,-0.068,-0.372,9.712,0
766,35.381,-97.495,359.6,30.98,3,378,-0.143,-0.351,9.818,0
767,35.381,-97.495,359.7,30.87,3,378,-0.186,-0.3,9.697,0
768,35.381,-97.495,359.7,30.76,3,379,-0.439,-0.084,9.727,0
769,35.382,-97.495,359.8,30.66,3,379,-0.365,-0.112,9.777,0
770,35.382,-97.495,359.9,30.761,3,378,-0.142,-0.314,9.588,0
771,35.382,-97.495,0,30.792,3,378,-0.266,-0.275,9.659,0
772,35.382,-97.495,359.8,30.923,3,377,-0.06,-0.001,9.511,0
773,35.383,-97.495,359.7,30.986,3,376,-0.055,-0.184,9.616,0
774,35.383,-97.495,359.8,31.018,3,375,0.084,-0.229,9.721,0
775,35.383,-97.495,359.8,31.021,3,370,0.142,-0.199,9.826,1
776,35.383,-97.495,359.8,31.017,3,371,0.035,-0.151,10.181,0
777,35.384,-97.495,359.7,31.067,3,370,-0.113,-0.12,10.072,0
778,35.384,-97.495,359.7,31.066,3,369,-0.06,-0.053,10.097,0
779,35.384,-97.495,359.9,31.045,3,368,-0.099,-0.408,10.59,0
780,35.385,-97.495,357.9,31.59,3,368,0.02,-0.085,9.867,0
781,35.385,-97.495,359.9,30.97,3,369,-0.031,-0.189,10.121,0
782,35.385,-97.495,359.7,30.46,3,369,0.066,-0.224,9.905,0
783,35.385,-97.495,359.7,30.02,3,368,-0.012,-0.172,9.93,0
784,35.386,-97.495,359.7,29.692,3,369,0.1,-0.241,9.749,0
785,35.386,-97.495,359.7,29.11,3,368,-0.047,-0.094,9.684,0
786,35.386,-97.495,359.9,28.601,3,368,-0.34,-0.264,9.584,0
787,35.387,-97.495,359.9,28.33,3,368,-0.43,-0.466,9.395,0
788,35.387,-97.495,359.8,28.56,3,368,-0.479,-0.491,9.682,0
789,35.387,-97.495,359.7,28.84,3,368,-0.522,-0.535,9.754,0
790,35.387,-97.495,359.7,29.05,3,368,-0.499,-0.333,9.685,1
791,35.388,-97.495,359.8,29.241,3,368,-0.409,-0.449,9.645,1
792,35.388,-97.495,359.6,29.35,3,367,-0.018,-0.205,9.945,1
793,35.388,-97.495,359.5,29.11,3,367,-0.484,-0.118,9.869,1
794,35.389,-97.495,0,29.41,3,366,-0.643,-0.405,9.932,1
795,35.389,-97.495,359.9,29.89,3,366,-0.678,-0.504,9.765,1
796,35.389,-97.495,359.9,30.42,3,366,-0.765,-0.547,9.889,1
797,35.389,-97.495,0,30.92,3,366,-0.671,-0.641,9.763,0
798,35.39,-97.495,359.9,31.43,3,365,-0.648,-0.665,9.823,0
799,35.39,-97.495,359.9,31.92,3,365,-0.809,-0.654,9.783,0
800,35.39,-97.495,359.7,32.42,3,365,-0.713,-0.632,9.646,0
801,35.391,-97.495,359.6,33,3,364,-0.654,-0.62,9.797,0
802,35.391,-97.495,359.6,33.51,3,364,-0.799,-0.496,9.832,0
803,35.391,-97.495,359.8,34.01,3,364,-0.606,-0.445,9.903,0
804,35.391,-97.495,359.9,34.22,3,364,-0.267,-0.173,9.837,0
805,35.392,-97.495,359.6,33.95,3,364,-0.287,-0.267,9.946,0
806,35.392,-97.495,0.1,34.541,3,365,-0.329,0.024,9.96,0
807,35.392,-97.495,359.8,33.49,3,365,-0.386,0.005,9.622,0
808,35.393,-97.495,0.2,33.31,3,364,-0.305,-0.387,9.615,0
809,35.393,-97.495,359.9,33.29,3,365,-0.39,-0.362,9.69,0
810,35.393,-97.495,359.9,33.25,3,365,-0.338,-0.565,9.906,0
811,35.394,-97.495,359.9,33.241,3,365,-0.394,-0.288,9.905,0
812,35.394,-97.495,0.1,33.231,3,365,-0.271,-0.362,9.655,0
813,35.394,-97.495,0.2,33.251,3,366,-0.163,-0.401,9.652,0
815,35.394,-97.495,0,33.161,3,366,-0.316,-0.466,9.872,1
815,35.394,-97.495,0,33.161,3,366,-0.316,-0.466,9.872,1
816,35.395,-97.495,359.9,33.05,3,367,-0.32,-0.499,9.808,0
817,35.395,-97.495,359.9,33.03,3,367,-0.453,-0.266,9.76,0
818,35.395,-97.495,0.2,33.04,3,367,-0.366,-0.256,9.635,0
819,35.396,-97.495,359.9,32.99,3,366,-0.294,-0.306,9.683,0
820,35.396,-97.495,0,33.04,3,367,-0.389,-0.455,9.476,0
821,35.396,-97.495,359.7,33.32,3,367,-0.326,-0.353,9.433,0
822,35.397,-97.495,359.8,33.22,3,367,-0.446,-0.225,9.651,0
823,35.397,-97.495,359.9,33.31,3,366,-0.166,-0.364,9.96,1
824,35.397,-97.495,0,33.291,3,366,-0.076,0.075,9.441,1
825,35.397,-97.495,0.1,33.062,3,365,0.132,-0.31,9.563,1
826,35.398,-97.495,0,32.855,3,364,0.064,-0.175,9.939,0
827,35.398,-97.495,359.9,32.654,3,364,0.295,0.031,9.753,0
828,35.398,-97.495,359.9,32.243,3,363,0.301,0.091,10.066,0
829,35.399,-97.495,359.9,31.672,3,363,0.353,0.052,10.209,0
830,35.399,-97.495,0.1,31.05,3,362,0.123,-0.088,10.051,0
831,35.399,-97.495,0,29.27,3,362,0.202,-0.364,9.802,0
832,35.399,-97.495,0,29.541,3,362,0.063,-0.142,10.147,0
833,35.4,-97.495,0.1,29.751,3,363,-0.249,-0.087,9.979,0
834,35.4,-97.495,0.4,29.371,3,364,-0.102,-0.325,9.805,0
835,35.4,-97.495,0.5,29.021,3,364,-0.139,-0.917,9.587,0
836,35.4,-97.495,0,28.873,3,365,-0.52,-0.768,9.594,0
837,35.401,-97.495,359.3,29.022,3,366,-0.695,-0.416,9.838,0
838,35.401,-97.495,359.3,29.152,3,366,-0.792,-0.04,9.678,0
839,35.401,-97.495,359.8,29.391,3,366,-1.026,-0.084,9.548,0
840,35.402,-97.495,0.8,29.611,3,366,-0.901,0.137,9.726,0
841,35.402,-97.495,2.2,29.971,3,366,-1.033,-0.053,9.669,0
842,35.402,-97.495,3.4,30.27,3,365,-0.858,-0.119,9.539,0
843,35.402,-97.495,4.6,30.65,3,365,-0.851,-0.133,9.702,0
844,35.403,-97.495,5.5,31.11,3,365,-0.571,0.074,9.63,1
845,35.403,-97.495,6.4,31.29,3,365,-0.586,0.194,8.619,1
846,35.403,-97.495,7.3,31.47,3,365,-0.436,0.342,9.337,1
847,35.403,-97.495,8.3,31.571,3,364,-0.409,0.218,9.521,1
848,35.404,-97.495,9.6,31.6,3,364,-0.513,0.052,10.069,0
849,35.404,-97.495,11,31.64,3,363,-0.287,-0.209,10.343,0
850,35.404,-97.495,11.7,31.56,3,363,-0.331,-0.039,10.216,0
851,35.405,-97.494,12.4,31.39,3,363,-0.401,0.159,10.054,0
852,35.405,-97.494,13.5,31.09,3,363,-0.383,0.006,10.015,0
853,35.405,-97.494,14.6,30.891,3,364,-0.45,0.222,9.805,0
854,35.405,-97.494,15.7,30.612,3,364,-0.425,-0.123,10.069,0
855,35.406,-97.494,17.4,29.982,3,366,-0.695,-0.046,10.297,0
856,35.406,-97.494,17.6,29.692,3,366,-0.223,-0.433,9.978,0
857,35.406,-97.494,17.7,29.331,3,367,-0.091,-0.099,9.716,0
858,35.407,-97.494,17.6,29.08,3,367,0.143,-0.718,9.585,0
859,35.407,-97.494,17.4,28.93,3,368,-0.248,-0.435,9.654,0
860,35.407,-97.494,17.3,28.87,3,368,-0.277,-0.336,9.541,0
861,35.407,-97.493,17.5,28.8,3,368,-0.339,-0.329,9.563,0
862,35.408,-97.493,17.5,28.76,3,368,-0.458,-0.292,9.676,0
863,35.408,-97.493,17.7,28.71,3,369,-0.322,-0.47,9.748,0
864,35.408,-97.493,17.7,28.691,3,369,-0.369,-0.387,9.701,1
865,35.408,-97.493,17.5,28.65,3,370,-0.566,-0.18,10.068,0
866,35.409,-97.493,17.4,28.63,3,370,-0.207,-0.488,9.182,0
867,35.409,-97.493,17.4,28.67,3,369,-0.047,-0.691,9.179,0
868,35.409,-97.493,17.4,28.69,3,369,-0.364,-0.326,9.998,0
869,35.409,-97.493,17.5,28.77,3,369,-0.242,-0.385,9.016,0
870,35.41,-97.493,17.6,28.88,3,369,-0.752,-0.345,9.638,0
871,35.41,-97.493,17.6,28.96,3,369,-0.185,-0.549,9.551,0
872,35.41,-97.492,17.5,29.191,3,369,-0.223,-0.373,9.837,0
873,35.41,-97.492,17.4,29.201,3,369,-0.305,-0.167,9.765,0
874,35.411,-97.492,17.4,29.262,3,366,0.034,-0.356,9.575,0
875,35.411,-97.492,17.6,29.113,3,367,0.132,-0.206,9.413,0
876,35.411,-97.492,17.3,28.895,3,367,-0.15,-0.043,9.782,0
877,35.411,-97.492,17.6,28.724,3,366,0.039,-0.229,9.873,0
878,35.412,-97.492,17.5,28.573,3,366,-0.096,0.005,9.743,0
879,35.412,-97.492,17.7,28.413,3,365,0.021,-0.229,9.838,0
880,35.412,-97.492,17.8,28.293,3,364,-0.126,-0.336,9.654,0
881,35.412,-97.492,17.6,28.362,3,364,-0.062,-0.312,9.536,0
882,35.413,-97.491,17.4,28.272,3,364,-0.334,-0.268,9.687,0
884,35.413,-97.491,17.5,28.432,3,364,-0.23,-0.425,9.729,0
884,35.413,-97.491,17.5,28.432,3,364,-0.23,-0.425,9.729,0
885,35.413,-97.491,17.4,28.703,3,363,-0.229,-0.51,9.716,0
886,35.413,-97.491,17.4,28.944,3,363,-0.286,-0.58,9.763,0
887,35.414,-97.491,17.4,29.201,3,362,-0.129,-0.11,9.988,0
888,35.414,-97.491,17.6,29.12,3,362,-0.014,-0.286,10.038,0
889,35.414,-97.491,17.4,28.75,3,362,-0.306,-0.116,9.922,0
890,35.414,-97.491,17.4,28.971,3,362,-0.422,-0.324,10.156,0
891,35.415,-97.491,17.8,28.515,3,363,-0.268,-0.547,9.792,0
892,35.415,-97.491,17.3,28.582,3,364,-0.418,-0.494,9.92,0
893,35.415,-97.491,17.3,28.453,3,364,-0.562,-0.587,9.612,0
894,35.415,-97.49,17.1,28.541,3,364,-0.786,-0.473,9.696,0
895,35.416,-97.49,17.5,28.702,3,365,-0.652,-0.537,9.767,0
896,35.416,-97.49,17.6,28.912,3,366,-0.209,-0.619,9.61,0
897,35.416,-97.49,17.5,29.101,3,366,-0.081,-0.327,9.473,0
898,35.416,-97.49,17.4,28.751,3,366,-0.436,-0.215,9.502,0
899,35.417,-97.49,17.5,28.611,3,366,-0.457,-0.462,9.577,1
900,35.417,-97.49,17.7,28.72,3,366,-0.363,-0.56,9.837,1
901,35.417,-97.49,17.7,28.9,3,367,-0.473,-0.474,9.593,1
902,35.417,-97.49,17.4,29.2,3,366,-0.153,-0.373,9.629,1
903,35.418,-97.49,17.5,29.352,3,366,0.079,-0.201,9.728,1
904,35.418,-97.489,17.4,29.131,3,366,-0.314,-0.048,9.841,0
905,35.418,-97.489,17.6,29,3,365,-0.474,-0.053,10.014,0
906,35.418,-97.489,17.6,29.03,3,365,-0.164,-0.422,9.849,0
907,35.419,-97.489,17.7,28.98,3,365,-0.21,-0.542,9.864,0
908,35.419,-97.489,17.7,28.841,3,365,-0.222,-0.488,9.823,0
909,35.419,-97.489,17.6,28.712,3,365,-0.219,-0.274,9.914,0
910,35.419,-97.489,17.9,28.582,3,366,-0.719,0.034,9.664,0
911,35.42,-97.489,18.8,28.531,3,366,-0.708,-0.441,9.674,0
912,35.42,-97.489,19.9,28.761,3,366,-0.809,-0.263,9.606,0
913,35.42,-97.489,20.5,29.061,3,367,-0.818,-0.345,9.796,0
914,35.42,-97.488,21.2,29.351,3,366,-0.519,-0.029,9.274,0
915,35.421,-97.488,21.8,29.6,3,366,-0.117,0.077,10.001,0
916,35.421,-97.488,22.3,29.33,3,366,-0.048,-0.228,9.393,0
917,35.421,-97.488,22.3,28.91,3,366,0.093,-0.156,9.766,0
918,35.421,-97.488,22.3,28.7,3,366,-0.094,-0.248,9.746,0
919,35.421,-97.488,22.1,28.57,3,365,0.069,-0.168,9.57,0
920,35.422,-97.488,22.1,28.321,3,365,-0.168,-0.186,9.69,0
921,35.422,-97.488,22.2,28.221,3,364,-0.298,-0.379,9.584,0
922,35.422,-97.488,22.2,28.201,3,364,-0.231,-0.371,9.417,0
923,35.422,-97.487,22.2,28.322,3,364,-0.113,-0.348,9.42,1
924,35.423,-97.487,22.3,28.512,3,363,-0.197,-0.356,9.574,1
925,35.423,-97.487,22,28.561,3,363,-0.413,-0.161,9.955,1
926,35.423,-97.487,21.3,28.752,3,361,-0.325,-0.443,9.913,0
927,35.424,-97.487,20.3,28.963,3,360,-0.272,-0.702,9.829,0
928,35.424,-97.487,18.9,29.183,3,359,-0.205,-0.703,9.75,0
929,35.424,-97.487,17.2,29.432,3,359,-0.157,-0.64,9.754,0
930,35.424,-97.487,15.7,29.662,3,358,-0.144,-0.745,9.791,0
931,35.425,-97.486,14.2,29.882,3,358,-0.302,-0.607,9.923,0
932,35.425,-97.486,13.3,30,3,357,-0.137,-0.605,9.922,0
933,35.425,-97.486,11.3,30.331,3,356,-0.125,-0.697,9.945,0
934,35.425,-97.486,9.9,30.4,3,356,-0.228,-0.715,9.85,0
935,35.426,-97.486,8.6,30.341,3,356,-0.349,-0.601,9.722,0
936,35.426,-97.486,7.3,30.45,3,356,-0.156,-0.465,9.542,0
937,35.426,-97.486,5.2,31.223,3,355,0.051,-0.253,9.759,0
938,35.427,-97.486,3.7,31.021,3,355,0.3,-0.458,9.808,0
939,35.427,-97.486,2.1,30.951,3,354,-0.297,-0.497,9.491,0
940,35.427,-97.486,0.8,31.152,3,353,-0.306,-0.498,9.694,0
941,35.427,-97.486,0.2,31.43,3,353,-0.607,-0.135,9.745,0
942,35.428,-97.486,359.9,31.82,3,353,-0.617,-0.19,9.541,0
943,35.428,-97.486,359.9,32.161,3,352,-0.3,-0.143,9.433,0
944,35.428,-97.486,358,30.912,3,352,-0.481,-0.553,9.786,0
945,35.429,-97.486,0.2,32.1,3,352,-0.602,-0.503,9.817,0
946,35.429,-97.486,0.3,32.74,3,352,-0.658,-0.424,9.598,0
947,35.429,-97.486,0.4,33.4,3,352,-0.571,-0.703,9.794,0
948,35.429,-97.486,0.2,33.91,3,353,-0.614,-0.625,9.403,0
949,35.43,-97.486,0.1,34.24,3,353,-0.839,-0.529,9.993,0
950,35.43,-97.486,0.2,34.841,3,353,-0.823,-0.589,9.76,0
951,35.43,-97.486,0.5,35.241,3,354,-0.87,-0.502,9.831,0
952,35.431,-97.486,0.8,35.791,3,354,-0.749,-0.682,9.912,0
954,35.431,-97.486,1,36.27,3,354,-0.56,-0.713,9.572,0
954,35.431,-97.486,1,36.27,3,354,-0.56,-0.713,9.572,0
955,35.431,-97.486,0.9,36.04,3,355,0.192,-0.322,9.946,0
956,35.432,-97.486,0.6,35.68,3,355,0.282,-0.416,9.924,0
957,35.432,-97.486,0.4,35.32,3,355,0.465,-0.053,9.055,0
958,35.432,-97.486,0.2,34.98,3,355,0.343,-0.116,9.509,0
959,35.433,-97.486,0,34.49,3,355,-0.005,-0.114,9.652,0
960,35.433,-97.486,0,34.13,3,355,0.164,-0.059,9.765,0
961,35.433,-97.486,0.1,33.771,3,355,0.057,-0.072,9.613,0
962,35.434,-97.486,0,33.432,3,354,0.075,-0.213,9.888,0
963,35.434,-97.486,0.1,33.165,3,353,0.206,0.004,9.613,0
964,35.434,-97.486,0,32.914,3,352,-0.092,0.085,9.999,0
965,35.434,-97.486,0.2,32.591,3,352,0.165,-0.193,9.932,0
966,35.435,-97.486,0.2,32.311,3,352,0.118,0.101,9.692,0
967,35.435,-97.486,0.2,31.99,3,352,0.064,-0.208,9.904,0
968,35.435,-97.486,0.5,31.73,3,352,0.076,-0.205,9.963,0
969,35.436,-97.486,1.2,31.74,3,352,-0.02,-0.186,9.919,0
970,35.436,-97.486,359.9,30.85,3,352,-0.212,-0.067,9.691,0
971,35.436,-97.486,0.1,30.52,3,352,0.096,-0.297,9.722,0
972,35.436,-97.486,0,30.22,3,352,-0.02,-0.119,9.786,0
973,35.437,-97.486,359.8,29.77,3,352,0.125,-0.206,9.729,0
974,35.437,-97.486,359.7,29.38,3,345,-0.185,-0.126,9.638,0
975,35.437,-97.486,359.7,28.98,3,349,-0.13,-0.206,9.572,0
976,35.437,-97.486,359.8,28.601,3,350,-0.016,-0.363,9.714,0
977,35.438,-97.486,0,28.211,3,351,-0.072,0.009,9.524,0
978,35.438,-97.486,0,27.8,3,352,-0.078,-0.146,9.581,0
979,35.438,-97.486,0.2,27.46,3,352,-0.044,-0.266,9.735,0
980,35.438,-97.486,0.3,27.24,3,352,-0.017,-0.26,9.865,1
981,35.439,-97.486,0.2,26.8,3,354,-0.56,-0.734,9.695,0
982,35.439,-97.486,359.9,26.79,3,354,-0.539,-0.615,9.5,0
983,35.439,-97.486,359.6,26.92,3,354,-0.733,-0.669,9.805,0
984,35.439,-97.486,359.2,27.081,3,355,-0.516,-0.651,9.496,0
985,35.44,-97.486,359.9,27.752,3,344,-0.578,-0.642,9.584,0
986,35.44,-97.486,359.8,28.32,3,349,-0.673,-0.471,10.074,0
987,35.44,-97.486,0,28.68,3,351,-0.443,-0.477,9.36,0
988,35.44,-97.486,0,28.92,3,353,-0.257,-0.183,9.81,0
989,35.441,-97.486,359.9,28.97,3,353,-0.38,-0.304,9.675,0
990,35.441,-97.486,359.9,28.85,3,354,-0.342,-0.287,9.764,0
991,35.441,-97.486,0.1,28.66,3,354,-0.581,-0.229,9.434,0
992,35.441,-97.486,0.2,28.69,3,355,-0.361,-0.46,9.464,0
993,35.442,-97.486,0.3,28.83,3,356,-0.451,-0.485,9.486,0
994,35.442,-97.486,0.3,29.12,3,356,-0.134,-0.282,9.859,1
995,35.443,-97.486,0.1,28.801,3,356,0.09,-0.347,9.528,1
996,35.443,-97.486,0.2,28.592,3,355,-0.039,-0.077,9.702,1
997,35.443,-97.486,359.9,28.371,3,354,-0.048,-0.279,9.462,1
998,35.443,-97.486,359.9,28.162,3,353,0.046,-0.458,9.456,1
999,35.444,-97.486,359.8,27.932,3,352,0.006,-0.269,9.733,1
1000,35.444,-97.486,359.4,27.901,3,352,-0.409,-0.243,9.221,1
1001,35.444,-97.486,359.3,28.061,3,351,-0.427,-0.154,9.713,1
1002,35.444,-97.486,358.9,28.302,3,351,-0.296,-0.21,9.826,1
1003,35.445,-97.486,358.3,28.352,3,349,-0.072,0,10.058,0
1004,35.445,-97.486,357.7,28.092,3,349,-0.172,-0.027,9.904,0
1005,35.445,-97.486,356.7,27.921,3,348,-0.239,-0.368,9.958,0
1006,35.445,-97.486,355.9,27.84,3,347,-0.411,-0.295,9.699,0
1007,35.446,-97.486,354.9,27.85,3,342,-0.405,-0.631,9.411,0
1008,35.446,-97.486,353.9,28.14,3,343,-0.459,-0.625,9.36,0
1009,35.446,-97.486,352.9,28.45,3,344,-0.102,-0.704,9.647,0
1010,35.446,-97.486,351.8,28.53,3,344,-0.335,-0.529,9.802,0
1011,35.447,-97.486,350.9,28.67,3,344,-0.431,-0.523,9.77,0
1012,35.447,-97.486,349.9,28.9,3,344,-0.09,-0.388,9.65,1
1013,35.447,-97.486,349,28.821,3,344,-0.232,-0.224,9.777,1
1014,35.447,-97.487,348.4,28.751,3,340,-0.289,-0.378,9.996,0
1015,35.448,-97.487,347.6,28.71,3,341,-0.303,-0.413,9.994,0
1016,35.448,-97.487,346.6,28.68,3,342,-0.142,-0.487,9.906,0
1017,35.448,-97.487,345.6,28.52,3,342,-0.104,-0.078,9.858,0
1018,35.448,-97.487,344.6,28.35,3,342,0.036,-0.117,9.68,0
1019,35.449,-97.487,344,28.31,3,342,-0.028,-0.156,9.823,0
1020,35.449,-97.487,342.6,27.891,3,341,-0.192,-0.423,9.708,0
1021,35.449,-97.487,341.4,27.902,3,339,-0.442,-0.444,9.761,0
1022,35.449,-97.487,340.3,28.131,3,339,-0.582,-0.21,9.55,0
1024,35.45,-97.487,340,28.48,3,338,-0.632,-0.37,9.705,1
1024,35.45,-97.487,340,28.48,3,338,-0.632,-0.37,9.705,1
1025,35.45,-97.487,339.3,29.16,3,338,-0.685,-0.517,9.882,1
1026,35.45,-97.488,339,29.44,3,338,-0.435,-0.369,9.864,0
1027,35.45,-97.488,339,29.4,3,337,-0.244,-0.434,9.779,0
1028,35.451,-97.488,338.9,29.461,3,338,-0.013,-0.247,9.865,0
1029,35.451,-97.488,339.1,29.012,3,338,-0.115,-0.263,9.733,0
1030,35.451,-97.488,339.3,28.572,3,339,-0.331,-0.262,9.594,0
1031,35.451,-97.488,339.5,28.381,3,339,-0.571,-0.263,9.617,0
1032,35.452,-97.488,339.9,28.422,3,340,-0.524,-0.601,9.753,0
1033,35.452,-97.488,340,28.492,3,341,-0.757,-0.29,9.662,0
1034,35.452,-97.488,340.2,28.653,3,341,-0.612,-0.454,9.67,0
1035,35.452,-97.489,340.5,28.792,3,339,-0.98,-0.221,10.133,0
1036,35.453,-97.489,340.9,29.005,3,341,-0.868,-0.288,9.748,0
1037,35.453,-97.489,341.1,29.174,3,342,-0.334,-0.525,9.501,0
1038,35.453,-97.489,341.4,29.193,3,339,-0.338,-0.312,9.386,0
1039,35.453,-97.489,341.3,28.982,3,339,-0.584,-0.431,9.654,0
1040,35.454,-97.489,341.2,28.941,3,341,-0.16,-0.519,9.303,0
1041,35.454,-97.489,341,28.9,3,342,-0.451,-0.223,9.581,0
1042,35.454,-97.489,340.9,28.86,3,343,-0.133,-0.145,8.957,0
1043,35.454,-97.489,340.8,28.9,3,343,-0.306,-0.279,9.37,0
1044,35.455,-97.489,340.9,28.96,3,343,-0.3,-0.491,9.04,0
1045,35.455,-97.49,341.1,29.26,3,340,-0.513,-0.485,9.586,0
1046,35.455,-97.49,340.8,29.712,3,341,-0.62,-0.428,9.565,0
1047,35.455,-97.49,340.7,30.323,3,341,-0.187,-0.329,9.677,0
1048,35.456,-97.49,340.8,30.814,3,341,-0.237,-0.337,9.758,0
1049,35.456,-97.49,340.7,31.071,3,341,-0.251,-0.487,9.465,1
