time,lat,lng,bearing,spd,acc,alt,accx,accy,accz,stable
0,35.20935221,-97.43961105,74.8,2.09,4.5509996,321,0.82,2.576,9.154,1
1,35.20936702,-97.43958322,68.9,2.4,4.5509996,320,0.623,3.142,8.964,1
2,35.20937144,-97.43954679,84.7,3.27,4.5509996,321,0.655,3.04,8.994,1
3,35.20937313,-97.4394414,92.2,4.99,4.5509996,320,0.696,3.009,8.99,1
4,35.2093745,-97.43935032,88.2,5.54,4.5509996,321,0.792,2.731,9.009,1
5,35.20937649,-97.43930103,83.7,5.37,4.5509996,320,0.69,1.896,9.34,1
6,35.20936784,-97.43925855,88.7,4.35,4.5509996,319,0.646,2.123,9.283,1
7,35.20936376,-97.4392161,90.1,4.27,4.5509996,320,0.623,2.226,9.283,1
8,35.20936296,-97.43916857,87.1,4.38,4.5509996,320,-0.139,2.147,9.396,1
9,35.20937248,-97.43912784,70.9,3.99,4.5509996,321,-1.106,1.746,9.804,0
10,35.20939192,-97.43910389,50.1,3.32,4.5509996,322,-0.962,2.014,9.301,0
11,35.20942022,-97.43909333,24.3,3.27,4.5509996,322,-1.413,2.104,9.698,0
12,35.20943993,-97.43909555,9.3,2.71,4.5509996,323,-0.553,2.605,9.076,0
13,35.20946611,-97.43908881,3.7,3.1,4.5509996,324,-0.581,2.854,9.137,0
14,35.20949864,-97.43909674,350.4,3.03,4.5509996,323,-0.869,2.859,9.138,0
15,35.20952845,-97.43911888,329.4,3.77,4.5509996,322,-1.519,2.471,9.35,0
16,35.20954749,-97.4391511,305.2,3.43,4.5509996,324,-1.391,2.185,9.428,0
17,35.20955569,-97.43918763,281,3.48,4.5509996,324,-0.529,2.423,9.236,0
18,35.20955807,-97.43922501,285.2,3.25,4.5509996,325,0.024,2.673,9.126,0
19,35.20955943,-97.43926351,273.2,3.55,4.5509996,325,0.26,2.808,9.114,0
20,35.20955676,-97.43930544,269.1,3.83,4.5509996,325,0.365,2.688,9.096,1
22,35.2095532,-97.43934917,269.2,3.93,4.5509996,326,0.453,2.355,9.262,1
23,35.20955063,-97.43938972,270.4,3.47,4.5509996,326,0.74,2.051,9.369,1
24,35.20954984,-97.43942832,273.1,3.57,4.5509996,326,1.407,1.851,9.366,1
25,35.20955346,-97.4394591,281.6,2.53,4.5509996,326,1.701,1.97,9.167,1
26,35.20956463,-97.43947973,331.3,2.4,4.5509996,327,1.326,2.554,9.097,1
27,35.20958266,-97.4394925,342.3,2.38,4.5509996,327,1.035,2.421,9.141,1
28,35.20960209,-97.43949521,0.6,2.02,4.5509996,328,0.6,2.09,9.31,1
29,35.20961754,-97.43949179,0.1,1.32,4.5509996,327,0.166,2.001,9.383,1
30,35.20962911,-97.43948523,0.3,1.18,4.5509996,327,0.171,2.532,9.194,1
31,35.20963854,-97.43947828,0.2,0.95,6.068,327,0.392,4.074,8.693,1
32,35.20965531,-97.4394687,12.8,2.12,4.5509996,327,0.467,2.802,9.153,1
33,35.20967628,-97.43945741,16.8,2.09,4.5509996,327,0.852,2.44,9.263,1
34,35.20969636,-97.43944476,22,1.91,4.5509996,327,0.943,2.741,9.089,1
35,35.20971644,-97.43941654,45.6,3.53,4.5509996,326,0.743,2.324,9.217,1
36,35.20973284,-97.43936868,66.2,4.15,4.5509996,326,0.387,2.441,9.17,1
37,35.20973769,-97.43930859,90.6,4.99,4.5509996,326,-0.114,1.907,9.399,1
38,35.20971275,-97.43920188,90.6,5.08,4.5509996,327,-0.28,1.668,9.471,1
39,35.20970299,-97.43914885,90.7,4.94,4.5509996,327,-0.342,1.629,9.461,1
40,35.20969936,-97.43909727,89.1,4.78,4.5509996,326,-0.471,1.605,9.448,1
41,35.20969814,-97.43904279,90.4,4.6,4.5509996,327,-0.599,0.907,9.697,1
42,35.20969317,-97.43899947,93.2,4,4.5509996,327,-0.542,0.503,9.779,1
43,35.20969026,-97.43898225,91,2.35,4.5509996,328,-0.371,0.647,9.732,1
44,35.20969026,-97.43898225,91,2.35,4.5509996,328,-0.277,1.565,9.491,1
45,35.20968069,-97.43895913,91.7,1.3,4.5509996,328,-0.575,2.921,9.133,1
46,35.20968637,-97.4389335,79.1,2.31,4.5509996,329,-1.479,2.952,9.219,1
47,35.20970798,-97.43889479,55.3,3.69,4.5509996,329,-2.421,2.78,9.073,1
48,35.20973149,-97.43887459,36.6,3.34,4.5509996,330,-2.244,2.833,9.18,1
49,35.2098034,-97.43887606,4.2,6.02,4.5509996,329,-1.002,2.846,9.132,1
50,35.20987425,-97.43887403,2.6,7.47,4.5509996,329,-0.595,2.775,9.171,1
51,35.20994352,-97.43887153,2.3,7.52,6.068,329,-0.222,2.662,9.247,1
52,35.21001567,-97.43886912,2.3,7.99,7.585,329,-0.13,2.554,9.208,1
53,35.21008338,-97.43884705,6.4,7.86,12.136,329,-0.201,2.361,9.313,1
54,35.21015817,-97.43884757,4.5,8.1,16.687,329,-0.199,1.821,9.479,1
55,35.21030118,-97.43884053,1.9,10.1,9.101999,329,-0.212,1.75,9.44,1
56,35.2104042,-97.4388874,0.4,10.12,7.585,327,-0.312,1.812,9.401,1
57,35.2105001,-97.4388866,2.4,9.92,7.585,327,-0.412,1.811,9.434,1
58,35.21058883,-97.43889739,0,9.92,7.585,328,-0.446,1.605,9.487,1
59,35.21069164,-97.43889681,0,10.02,7.585,328,-0.388,1.191,9.61,1
60,35.21076307,-97.43888967,1.1,9.26,7.585,329,-0.353,0.556,9.738,1
61,35.21085186,-97.43889121,0.3,9.24,7.585,329,-0.474,0.215,9.795,1
62,35.21088902,-97.43887514,1.9,5.96,6.068,329,-0.463,0.332,9.797,1
63,35.21094533,-97.43886417,2.8,5.84,7.585,328,-0.451,0.641,9.755,1
64,35.21099716,-97.43885046,4.8,5.68,10.6189995,328,-0.331,0.937,9.657,1
65,35.2110439,-97.43884296,3.2,5.45,10.6189995,328,-0.228,1.483,9.541,1
66,35.21108746,-97.43886019,359,5.26,12.136,328,-0.112,1.519,9.467,1
67,35.21107262,-97.43887587,358.4,2.96,12.136,329,-0.079,1.445,9.469,1
68,35.2110671,-97.43889278,355.8,0.97,9.101999,330,-0.051,1.464,9.496,1
69,35.2110671,-97.43889278,355.8,0.97,9.101999,330,-0.063,1.064,9.614,1
70,35.21107335,-97.43888433,9.2,0.62,9.101999,329,-0.048,1.445,9.52,1
71,35.21106204,-97.43888082,2.7,0.23,7.585,330,-0.038,1.6,9.475,1
72,35.21104892,-97.43887946,0,0,7.585,330,-0.037,1.633,9.464,1
73,35.21104892,-97.43887946,0,0,7.585,330,-0.032,1.647,9.464,1
74,35.21104892,-97.43887946,0,0,7.585,330,-0.033,1.649,9.461,1
75,35.21105238,-97.43886699,0,0,6.068,329,-0.033,1.649,9.464,1
76,35.21105238,-97.43886699,0,0,6.068,329,-0.033,1.649,9.464,1
77,35.21105238,-97.43886699,0,0,6.068,329,-0.033,1.649,9.463,1
78,35.21105238,-97.43886699,0,0,6.068,329,-0.035,1.647,9.465,1
79,35.21105238,-97.43886699,0,0,6.068,329,-0.035,1.65,9.466,1
80,35.21105238,-97.43886699,0,0,6.068,329,-0.018,1.92,9.4,1
81,35.21105238,-97.43886699,0,0,6.068,329,0.006,2.317,9.292,1
82,35.21105238,-97.43886699,0,0,6.068,329,0.025,3.366,8.955,1
83,35.21105238,-97.43886699,0,0,6.068,329,-1.059,3.421,9.247,1
84,35.21105238,-97.43886699,0,0,6.068,329,-3.289,2.843,9.094,0
85,35.21110929,-97.43891141,320.9,5.22,4.5509996,328,-3.202,2.753,9.209,0
86,35.21112568,-97.43898215,289.5,6.57,4.5509996,327,-1.638,3.339,9.032,0
87,35.21111928,-97.43908272,273.1,8.36,4.5509996,327,-0.427,3.286,9.024,0
88,35.21112982,-97.43919786,270.4,9.93,4.5509996,327,-0.167,3.107,9.071,0
89,35.21112429,-97.43933085,270.5,11.53,4.5509996,326,-0.137,2.097,9.377,0
90,35.21111783,-97.43945768,270,12.09,4.5509996,327,-0.014,1.603,9.466,0
91,35.2111112,-97.43959407,270.2,12.04,6.068,328,-0.028,1.516,9.467,0
92,35.21111533,-97.439726,271.3,11.79,6.068,328,-0.027,1.469,9.418,0
93,35.21112297,-97.43984991,271.3,11.48,6.068,329,0.064,1.464,9.444,0
94,35.21112282,-97.43997947,272,11.24,6.068,330,0.021,1.471,9.44,1
95,35.21111834,-97.44009881,272.1,10.94,6.068,329,-0.196,1.504,9.519,1
96,35.21112391,-97.44020815,271.9,10.77,6.068,331,-0.341,1.502,9.539,1
97,35.21113088,-97.44032797,272.3,10.61,7.585,330,-0.312,1.513,9.563,1
98,35.21111566,-97.44053911,271,9.89,6.068,332,-0.23,1.515,9.567,1
99,35.21111776,-97.44064636,270.2,9.77,6.068,332,-0.181,1.499,9.477,1
100,35.21111805,-97.44075376,270.2,9.77,7.585,332,-0.118,0.695,9.647,1
101,35.21113137,-97.44084276,270.7,7.49,6.068,330,-0.212,0.203,9.823,1
102,35.21113004,-97.44091022,272.2,5.52,6.068,330,-0.19,0.144,9.839,1
103,35.21113568,-97.44096339,273.7,4.99,7.585,330,-0.169,0.449,9.782,1
104,35.21113239,-97.44100527,269.5,3.95,7.585,330,-0.182,0.827,9.673,1
105,35.21113618,-97.44103824,268.7,2.92,6.068,329,-0.186,1.044,9.614,1
106,35.21113253,-97.44106019,270.4,2.09,6.068,329,-0.186,0.798,9.677,1
107,35.21113312,-97.44107486,270.2,1.06,6.068,329,-0.146,0.798,9.673,1
108,35.21113312,-97.44107486,270.2,1.06,6.068,329,-0.144,0.939,9.653,1
109,35.21113312,-97.44107486,270.2,1.06,6.068,329,-0.131,1.597,9.479,1
110,35.21113312,-97.44107486,270.2,1.06,6.068,329,-0.131,1.698,9.454,1
111,35.21113312,-97.44107486,270.2,1.06,6.068,329,-0.126,1.725,9.451,1
113,35.21113312,-97.44107486,270.2,1.06,6.068,329,-0.13,1.729,9.448,1
114,35.21114232,-97.44107309,0,0,6.068,330,-0.133,1.732,9.445,1
115,35.21114232,-97.44107309,0,0,6.068,330,-0.133,1.73,9.444,1
116,35.21114232,-97.44107309,0,0,6.068,330,-0.13,1.732,9.448,1
117,35.21114232,-97.44107309,0,0,6.068,330,-0.131,1.732,9.451,1
118,35.21114232,-97.44107309,0,0,6.068,330,-0.13,1.73,9.444,1
119,35.21114232,-97.44107309,0,0,6.068,330,-0.128,1.732,9.448,1
120,35.21114232,-97.44107309,0,0,6.068,330,-0.13,1.732,9.448,1
121,35.21114232,-97.44107309,0,0,6.068,330,-0.132,1.729,9.451,1
122,35.21114232,-97.44107309,0,0,6.068,330,-0.133,1.728,9.448,1
123,35.21114232,-97.44107309,0,0,6.068,330,-0.131,1.729,9.446,1
124,35.21114232,-97.44107309,0,0,6.068,330,-0.131,1.729,9.452,1
125,35.21114232,-97.44107309,0,0,6.068,330,-0.131,1.732,9.448,1
126,35.21114232,-97.44107309,0,0,6.068,330,-0.131,1.728,9.451,1
127,35.21114232,-97.44107309,0,0,6.068,330,-0.131,1.727,9.447,1
128,35.21114232,-97.44107309,0,0,6.068,330,-0.129,1.728,9.45,1
129,35.21114232,-97.44107309,0,0,6.068,330,-0.129,1.731,9.448,1
130,35.21114232,-97.44107309,0,0,6.068,330,-0.131,1.733,9.448,1
131,35.21114232,-97.44107309,0,0,6.068,330,-0.129,1.73,9.445,1
132,35.21114232,-97.44107309,0,0,6.068,330,-0.129,1.727,9.448,1
133,35.21114232,-97.44107309,0,0,6.068,330,-0.129,1.732,9.448,1
134,35.21114232,-97.44107309,0,0,6.068,330,-0.129,1.73,9.447,1
135,35.21114232,-97.44107309,0,0,6.068,330,-0.134,1.731,9.445,1
136,35.21114232,-97.44107309,0,0,6.068,330,-0.131,1.728,9.444,1
137,35.21114232,-97.44107309,0,0,6.068,330,-0.131,1.728,9.448,1
138,35.21114232,-97.44107309,0,0,6.068,330,-0.129,1.732,9.447,1
139,35.21114232,-97.44107309,0,0,6.068,330,-0.13,1.732,9.446,1
140,35.21114232,-97.44107309,0,0,6.068,330,-0.13,1.732,9.448,1
141,35.21114232,-97.44107309,0,0,6.068,330,-0.132,1.727,9.448,1
142,35.21114232,-97.44107309,0,0,6.068,330,-0.131,1.731,9.447,1
143,35.21114232,-97.44107309,0,0,6.068,330,-0.135,1.728,9.448,1
144,35.21114232,-97.44107309,0,0,6.068,330,-0.131,1.727,9.447,1
145,35.21114232,-97.44107309,0,0,6.068,330,-0.129,1.728,9.45,1
146,35.21114232,-97.44107309,0,0,6.068,330,-0.129,1.727,9.445,1
147,35.21114232,-97.44107309,0,0,6.068,330,-0.131,1.73,9.447,1
148,35.21114232,-97.44107309,0,0,6.068,330,-0.132,1.732,9.446,1
149,35.21114232,-97.44107309,0,0,6.068,330,-0.131,1.73,9.445,1
150,35.21114232,-97.44107309,0,0,6.068,330,-0.133,1.728,9.45,1
151,35.21114232,-97.44107309,0,0,6.068,330,-0.133,1.732,9.445,1
152,35.21114232,-97.44107309,0,0,6.068,330,-0.134,1.73,9.445,1
153,35.21114232,-97.44107309,0,0,6.068,330,-0.131,1.732,9.445,1
154,35.21114232,-97.44107309,0,0,6.068,330,-0.13,1.728,9.445,1
155,35.21114232,-97.44107309,0,0,6.068,330,-0.135,1.727,9.446,1
156,35.21114232,-97.44107309,0,0,6.068,330,-0.132,1.731,9.448,1
157,35.21114232,-97.44107309,0,0,6.068,330,-0.129,1.729,9.445,1
158,35.21114232,-97.44107309,0,0,6.068,330,-0.131,1.728,9.448,1
159,35.21114232,-97.44107309,0,0,6.068,330,-0.133,1.732,9.446,1
160,35.21114232,-97.44107309,0,0,6.068,330,-0.131,1.729,9.447,1
161,35.21114232,-97.44107309,0,0,6.068,330,-0.132,1.729,9.448,1
162,35.21114232,-97.44107309,0,0,6.068,330,-0.131,1.727,9.445,1
163,35.21114232,-97.44107309,0,0,6.068,330,-0.128,1.73,9.442,1
164,35.21114232,-97.44107309,0,0,6.068,330,-0.13,1.73,9.444,1
165,35.21114232,-97.44107309,0,0,6.068,330,-0.128,1.727,9.445,1
166,35.21114232,-97.44107309,0,0,6.068,330,-0.129,1.729,9.443,1
167,35.21113103,-97.44106871,0,0,13.653,338,-0.13,1.725,9.448,1
168,35.21113103,-97.44106871,0,0,13.653,338,-0.128,1.725,9.447,1
169,35.21113103,-97.44106871,0,0,13.653,338,-0.117,1.985,9.371,1
170,35.21113103,-97.44106871,0,0,13.653,338,-0.094,3.337,9.047,1
171,35.21112993,-97.44109968,269.3,1.96,13.653,339,-0.105,3.599,8.978,1
172,35.21113146,-97.44112453,270.9,2.24,13.653,339,-0.12,3.387,8.982,1
173,35.21113534,-97.44116967,272.8,3.16,13.653,339,-0.151,3.037,9.139,1
174,35.21114168,-97.44122927,273.6,4.71,13.653,338,-0.108,2.791,9.134,1
175,35.21113139,-97.4413278,267.8,5.87,13.653,338,-0.131,2.623,9.209,1
176,35.21112371,-97.44148464,268.6,9.56,13.653,338,-0.134,2.54,9.266,1
177,35.21111416,-97.44160957,268.9,10.38,13.653,337,-0.179,2.43,9.23,1
178,35.21110726,-97.44173743,269.3,11.24,13.653,338,-0.188,2.33,9.276,1
179,35.21111405,-97.44187019,270.2,11.83,15.17,339,-0.286,2.294,9.315,1
180,35.21112216,-97.44202128,267.5,12.84,13.653,338,-0.171,2.271,9.324,1
181,35.21113572,-97.44217082,268.4,13.2,13.653,336,0.01,2.24,9.311,1
182,35.21112616,-97.44232182,269,14.13,13.653,335,0.033,1.809,9.438,1
183,35.21113094,-97.44249813,268.8,15.08,13.653,334,0.081,1.483,9.438,1
184,35.21113898,-97.44265513,269.3,14.76,13.653,333,-0.084,1.461,9.474,1
185,35.21113469,-97.44279897,269.9,14.3,13.653,332,-0.153,1.575,9.432,1
186,35.21113853,-97.44295684,269.6,14.67,13.653,334,-0.217,1.57,9.494,1
187,35.21113921,-97.44311936,270.3,14.64,13.653,332,-0.219,1.585,9.482,1
188,35.21113996,-97.44327295,270.4,14.54,13.653,331,-0.189,1.588,9.475,1
189,35.21113837,-97.44343109,269.8,14.47,13.653,330,-0.024,1.554,9.281,1
190,35.21114177,-97.44357846,270.6,14.53,13.653,331,-0.105,1.575,9.524,1
191,35.21114248,-97.4437507,270.1,14.97,13.653,330,-0.265,1.573,9.425,1
192,35.21113896,-97.44392148,270,14.95,13.653,329,-0.174,1.314,9.416,1
193,35.21114146,-97.44408907,270.2,14.8,13.653,329,-0.236,1.171,9.56,1
194,35.21114665,-97.44425107,270.4,14.42,13.653,328,-0.244,1.431,9.506,1
195,35.21114479,-97.44441021,269.2,14.35,13.653,329,-0.198,1.776,9.468,1
196,35.21114486,-97.44457535,269.8,14.47,13.653,328,-0.105,2.049,9.375,1
197,35.21114122,-97.44489073,269.7,14.72,13.653,328,-0.068,1.576,9.472,1
198,35.21114341,-97.44504061,269.8,14.34,13.653,329,-0.158,1.228,9.538,1
199,35.21114427,-97.44521029,269.6,14.44,13.653,330,-0.203,1.35,9.483,1
200,35.21114903,-97.44535061,270.4,14.08,15.17,329,-0.281,1.496,9.46,1
201,35.211156,-97.44550489,270.1,14.36,13.653,328,-0.248,1.539,9.463,1
202,35.21115503,-97.44566469,270.6,14.19,13.653,327,-0.177,1.523,9.386,1
203,35.21115802,-97.44582671,272.9,14.06,13.653,327,-0.218,1.516,9.381,1
204,35.21116102,-97.44598944,270.4,14.45,13.653,326,-0.186,1.533,9.507,1
205,35.21116195,-97.44616377,270.8,14.46,13.653,326,-0.139,1.513,9.48,1
206,35.21115187,-97.44631028,270.5,14.37,13.653,326,-0.1,1.545,9.481,1
207,35.21115307,-97.44646205,270.4,14.25,15.17,327,-0.079,1.611,9.472,1
208,35.21115052,-97.44663955,269.6,14.7,15.17,326,-0.161,1.66,9.51,1
209,35.21115125,-97.44679304,268.3,14.51,15.17,326,-0.197,1.64,9.394,1
210,35.21114856,-97.44697823,268.8,15.15,15.17,325,-0.15,1.628,9.393,1
211,35.21114628,-97.44713136,270.1,14.65,15.17,326,-0.138,1.614,9.461,1
212,35.21114884,-97.44729886,269.9,15.35,15.17,325,-0.118,1.611,9.458,1
213,35.21115106,-97.44746346,269.7,15.19,15.17,325,-0.133,1.612,9.505,1
214,35.21116075,-97.44764151,270.1,15.3,13.653,324,-0.158,1.578,9.433,1
216,35.21116035,-97.44781437,269.9,15.38,13.653,325,-0.139,1.587,9.51,1
217,35.21115374,-97.44799308,268.3,15.64,13.653,326,-0.084,1.564,9.434,1
218,35.21115945,-97.44816199,268.8,15.17,15.17,326,-0.052,1.591,9.505,1
219,35.21115934,-97.44834625,269.1,15.71,15.17,326,-0.104,1.417,9.442,1
220,35.21115519,-97.44853585,269,16.19,13.653,327,-0.087,1.227,9.63,1
221,35.21115528,-97.44870121,269.4,15.35,13.653,327,-0.107,1.236,9.487,1
222,35.21115196,-97.44888325,269,15.24,13.653,327,-0.115,1.354,9.561,1
223,35.21115045,-97.44905315,269.7,15.06,13.653,328,-0.002,1.507,9.478,1
224,35.2111502,-97.44922122,267.1,14.85,13.653,328,-0.035,1.534,9.469,1
225,35.21114178,-97.44941338,268.2,15.65,13.653,328,-0.014,1.535,9.469,1
226,35.21114241,-97.44958133,270,15.51,13.653,327,-0.014,1.515,9.439,1
227,35.2111475,-97.44974214,270.3,15.24,13.653,328,-0.039,1.532,9.472,1
228,35.21114875,-97.44990038,270.4,15.06,13.653,328,-0.068,1.547,9.509,1
229,35.21115679,-97.4500711,270.2,15.32,13.653,328,-0.16,1.53,9.483,1
230,35.21115445,-97.45025394,270.8,15.2,13.653,328,-0.147,1.514,9.396,1
231,35.21114996,-97.45041672,269.9,15.6,13.653,327,-0.103,1.539,9.449,1
232,35.211143,-97.45059654,268.7,15.53,13.653,328,-0.175,1.527,9.472,1
233,35.21114412,-97.45076545,270.1,15.58,13.653,328,-0.234,1.311,9.476,1
234,35.21114159,-97.45093621,269.9,15.4,13.653,328,-0.184,1.15,9.801,1
235,35.21114452,-97.45109892,270.4,14.82,13.653,328,-0.138,1.152,9.589,1
236,35.21114747,-97.45124669,270.4,14.57,13.653,328,-0.251,1.168,9.575,1
237,35.21115233,-97.45139656,269.9,14.26,13.653,328,-0.319,1.138,9.595,1
238,35.21114636,-97.45154894,270.3,13.7,13.653,327,-0.167,1.146,9.588,1
239,35.21114702,-97.45170023,269.4,13.67,13.653,327,-0.119,1.127,9.551,1
240,35.21114224,-97.4518467,269.8,13.31,13.653,327,-0.197,1.133,9.535,1
241,35.21113907,-97.4519777,269.8,12.46,13.653,327,-0.27,1.142,9.611,1
242,35.21114028,-97.45211275,270.5,12.52,13.653,327,-0.266,1.094,9.6,1
243,35.21114151,-97.45224804,270.2,12.61,13.653,327,-0.258,0.383,9.71,1
244,35.21113855,-97.45237256,266.9,11.71,13.653,326,-0.181,0.332,9.654,1
245,35.21114099,-97.45248526,269.3,10.21,13.653,325,-0.148,0.406,9.722,1
246,35.21114964,-97.45257482,270.1,9.12,13.653,323,-0.221,0.459,9.71,1
247,35.2111526,-97.45265787,269.5,8.41,13.653,323,-0.255,0.202,9.797,1
248,35.21115321,-97.45274336,269.6,7.89,13.653,323,-0.28,-0.134,9.87,1
249,35.21115616,-97.45278457,270.7,6,13.653,322,-0.274,-0.067,9.869,1
250,35.21115538,-97.45283151,271.1,4.54,13.653,322,-0.277,-0.163,9.888,1
251,35.21115395,-97.45285724,268.9,3.09,13.653,323,-0.269,0.382,9.772,1
252,35.21115793,-97.45288136,274,2.11,13.653,324,-0.252,0.659,9.692,1
253,35.21115793,-97.45288136,274,2.11,13.653,324,-0.249,0.536,9.723,1
254,35.21115793,-97.45288136,274,2.11,13.653,324,-0.234,0.914,9.632,1
255,35.21115793,-97.45288136,274,2.11,13.653,324,-0.23,1.238,9.557,1
256,35.21115793,-97.45288136,274,2.11,13.653,324,-0.227,1.294,9.542,1
257,35.21115793,-97.45288136,274,2.11,13.653,324,-0.225,1.305,9.536,1
258,35.21115793,-97.45288136,274,2.11,13.653,324,-0.227,1.307,9.539,1
259,35.21114868,-97.45287992,0,0,15.17,324,-0.227,1.307,9.537,1
260,35.21114868,-97.45287992,0,0,15.17,324,-0.222,1.601,9.473,1
261,35.21114868,-97.45287992,0,0,15.17,324,-0.159,3.646,8.94,1
262,35.21114638,-97.45292006,270.5,2.56,13.653,325,-0.145,3.587,8.986,1
263,35.21113745,-97.45299538,271.4,4.84,13.653,322,-0.123,3.283,9.096,1
264,35.21114021,-97.45306084,270.6,7.01,13.653,322,-0.122,2.932,9.057,1
265,35.21114232,-97.45315432,272.5,8.53,13.653,322,-0.221,2.717,9.078,1
266,35.21112755,-97.4532632,269.4,9.47,13.653,321,-0.21,2.508,9.161,1
267,35.21113348,-97.45338598,270.3,10.86,13.653,321,-0.187,2.386,9.302,1
268,35.21112814,-97.45351709,270,12.02,13.653,322,-0.269,2.351,9.362,1
269,35.21113732,-97.45366405,270.6,13.11,13.653,322,-0.273,1.481,9.522,1
270,35.21112383,-97.45380719,264.5,12.85,13.653,322,-0.233,1.202,9.537,1
272,35.21113041,-97.45409626,271.2,13.29,13.653,322,-0.348,1.514,9.588,1
273,35.21114048,-97.45422653,271.8,12.94,13.653,322,-0.32,1.556,9.437,1
274,35.2111464,-97.45436408,271.5,12.93,15.17,323,-0.27,1.571,9.489,1
275,35.21114749,-97.45451775,269.9,13.49,13.653,322,-0.179,1.575,9.492,1
276,35.21115494,-97.45466154,270.2,13.43,13.653,322,-0.195,1.613,9.491,1
277,35.21115294,-97.45481605,270.5,13.82,13.653,320,-0.222,1.642,9.541,1
278,35.21114971,-97.45496055,269.5,13.71,13.653,320,-0.13,1.894,9.463,1
279,35.21114789,-97.45512486,270.2,13.91,13.653,320,-0.194,1.973,9.514,1
280,35.21115012,-97.4552797,270.1,14.02,13.653,320,-0.195,1.899,9.339,1
281,35.21114019,-97.45543944,269.3,14.13,15.17,320,-0.254,1.921,9.496,1
282,35.21114299,-97.45559883,269.7,14.49,15.17,319,-0.166,1.893,9.397,1
283,35.21114761,-97.45576384,269.5,14.29,15.17,319,-0.182,1.881,9.404,1
284,35.2111513,-97.45592387,269.4,14.37,15.17,317,-0.165,1.827,9.247,1
285,35.21115476,-97.45607872,270.5,14.13,15.17,317,-0.208,1.806,9.242,1
286,35.2111675,-97.45624749,270.8,14.81,15.17,317,-0.186,1.7,9.316,1
287,35.21116551,-97.45639791,270.2,14.22,13.653,318,-0.253,1.303,9.64,1
288,35.2111612,-97.4565615,270.6,14.36,13.653,318,-0.197,1.164,9.561,1
289,35.21117621,-97.4567331,270.8,14.56,15.17,316,-0.092,1.164,9.613,1
290,35.2111851,-97.45687323,270.2,13.57,13.653,315,-0.078,1.158,9.58,1
291,35.21118149,-97.4570371,269.7,14.15,13.653,315,-0.096,1.152,9.565,1
292,35.21118445,-97.45719392,269.3,13.78,15.17,316,-0.116,1.133,9.56,1
293,35.21118192,-97.45734198,269.8,13.26,15.17,316,-0.066,1.141,9.599,1
294,35.21117961,-97.45747535,270.2,12.48,15.17,316,-0.051,1.143,9.621,1
295,35.21117636,-97.45759862,270.1,12.03,13.653,317,-0.057,1.127,9.554,1
296,35.21116503,-97.45782926,270.1,11,13.653,316,-0.074,1.124,9.565,1
297,35.21116594,-97.45794582,271.5,10.5,13.653,317,-0.177,1.317,9.559,1
298,35.21115922,-97.45805817,269.9,10.33,13.653,317,-0.343,1.18,9.546,1
299,35.21116405,-97.45815727,269,9.46,13.653,318,-0.366,1.131,9.598,1
300,35.21116182,-97.45826014,270,9.1,13.653,319,-0.291,0.932,9.637,1
301,35.21115299,-97.45834349,267.3,8.23,13.653,319,-0.177,0.165,9.78,1
302,35.21116093,-97.45840011,269.5,5.83,13.653,320,-0.152,-0.056,9.888,1
303,35.21115762,-97.4584584,264.4,4.77,13.653,317,0.072,-0.251,9.901,1
304,35.21116177,-97.45848546,267.2,2.66,13.653,315,0.028,-0.005,9.83,1
305,35.21116035,-97.45849892,264.4,1.53,13.653,316,0.033,0.576,9.716,1
306,35.2111534,-97.45852628,270.7,1.68,13.653,316,0.03,1.473,9.495,1
307,35.2111534,-97.45852628,270.7,1.68,13.653,316,0.039,1.677,9.435,1
308,35.21116488,-97.45854368,264.3,1.22,13.653,317,0.037,1.866,9.404,1
309,35.21116063,-97.45858004,275.7,2.1,13.653,317,0.1,2.708,9.176,1
310,35.21115684,-97.45862217,274.1,3,15.17,319,0.121,2.74,9.177,1
311,35.21115124,-97.45869904,266.7,4.48,15.17,320,0.138,2.533,9.213,1
312,35.21114847,-97.45877701,268.3,5.62,15.17,320,0.121,2.353,9.266,1
313,35.21115618,-97.45885195,269.7,6.19,13.653,320,-0.609,1.725,9.458,1
314,35.21116077,-97.45889634,269.7,6.11,13.653,318,-1.613,1.651,9.442,1
315,35.21113241,-97.45896628,245.6,6.95,13.653,319,-3.201,1.575,9.494,0
316,35.21107226,-97.45902416,226.4,7.42,13.653,318,-3.426,1.579,9.51,0
317,35.21101004,-97.45907785,219.3,7.92,13.653,319,-1.743,1.968,9.421,0
319,35.21092128,-97.45904582,182.8,7.98,13.653,321,-0.793,1.923,9.378,0
320,35.21084837,-97.45904707,179.1,8.17,13.653,321,-0.208,1.98,9.384,0
321,35.21076837,-97.45904894,178.2,8.98,13.653,321,0.053,2.014,9.356,0
322,35.21067353,-97.45903452,176.5,9.81,13.653,322,-0.249,2.063,9.415,0
323,35.21058918,-97.45902743,175,9.97,13.653,322,-0.104,2.026,9.379,0
324,35.21049779,-97.45902605,176.4,10.26,13.653,322,0.187,1.958,9.368,0
325,35.21041222,-97.45901652,176.4,10.12,13.653,322,0.104,2.055,9.312,0
326,35.21029148,-97.4590195,179.8,11.4,13.653,324,0.027,1.998,9.426,1
327,35.21018434,-97.45902221,179.8,11.89,13.653,324,-0.042,1.892,9.434,1
328,35.21006682,-97.45901522,179.3,12.06,13.653,325,-0.101,1.906,9.433,1
329,35.20994967,-97.45901105,179.1,12.53,13.653,325,-0.067,1.883,9.405,1
330,35.20982548,-97.45901651,179.8,12.85,13.653,326,-0.053,1.84,9.335,1
331,35.20972335,-97.45902358,180,13.14,13.653,325,-0.125,1.645,9.444,1
332,35.20958875,-97.45902741,180.6,13.25,13.653,325,-0.133,1.646,9.494,1
333,35.2094717,-97.45901899,180,13.26,13.653,325,-0.105,1.64,9.503,1
334,35.20935662,-97.45901515,179.6,13.22,13.653,325,-0.105,1.618,9.461,1
335,35.2092392,-97.4590145,180,13.35,13.653,325,-0.147,1.604,9.502,1
336,35.20911742,-97.45901858,180.4,13.45,13.653,325,-0.156,1.618,9.445,1
337,35.20898545,-97.45902358,179.8,13.51,13.653,324,-0.074,1.603,9.454,1
338,35.2088703,-97.45902552,180.2,13.44,13.653,324,-0.064,1.601,9.469,1
339,35.20875013,-97.45902655,180.2,13.6,13.653,324,-0.183,1.864,9.365,1
341,35.20850223,-97.45901762,179.5,14.08,13.653,326,-0.077,1.388,9.516,1
342,35.20837333,-97.45901965,179.4,13.79,13.653,325,-0.146,1.727,9.41,1
343,35.20824292,-97.45902423,180,14.28,13.653,326,-0.064,1.63,9.453,1
344,35.2081212,-97.45902261,179.5,13.98,13.653,326,-0.138,1.608,9.508,1
345,35.20798949,-97.45903078,180,14.09,13.653,325,-0.107,1.848,9.409,1
346,35.20785808,-97.45902659,180,14.42,13.653,326,-0.164,2.121,9.344,1
347,35.20772253,-97.45903555,181.1,14.94,13.653,325,-0.178,1.654,9.434,1
349,35.20744121,-97.45902718,180.3,15.21,13.653,326,-0.043,1.627,9.437,1
350,35.20730393,-97.45902038,179.9,15.07,13.653,327,-0.05,1.61,9.476,1
351,35.20717201,-97.45901129,180.4,15.25,13.653,328,-0.107,1.525,9.438,1
352,35.20703668,-97.45900246,179.7,15.17,13.653,328,-0.123,1.341,9.554,1
353,35.20690747,-97.45899945,179.9,14.78,13.653,329,-0.088,1.539,9.541,1
354,35.20677666,-97.45900263,180,14.67,15.17,328,0.005,1.557,9.618,1
355,35.20663371,-97.45900053,180.2,14.9,13.653,329,-0.089,1.725,9.484,1
356,35.20649218,-97.45900577,180.4,15.04,13.653,330,-0.139,1.651,9.471,1
357,35.20635985,-97.45899967,180.3,15.13,13.653,330,-0.078,1.497,9.442,1
358,35.20622615,-97.45900097,180.1,14.89,13.653,330,-0.131,0.77,9.628,1
359,35.20609758,-97.45900652,180.9,14.31,13.653,331,-0.175,0.449,9.662,1
360,35.20597769,-97.4589973,179,13.32,13.653,331,-0.182,0.862,9.553,1
361,35.20587857,-97.45900375,178.8,12.11,13.653,330,-0.147,1.079,9.473,1
362,35.20577794,-97.45900432,179.6,11.99,13.653,330,-0.084,0.535,9.651,1
363,35.20567448,-97.45900787,180.3,11.62,13.653,330,-0.087,0.205,9.734,1
364,35.20558344,-97.45900721,179.9,10.81,15.17,329,0.023,0.214,9.788,1
365,35.20550278,-97.45900509,180.1,9.65,15.17,328,-0.109,0.367,9.761,1
366,35.20541423,-97.45901192,182.1,9.24,15.17,327,-0.135,0.422,9.739,1
367,35.20534946,-97.45902027,179.4,7.76,15.17,327,-0.079,0.37,9.766,1
368,35.20528088,-97.45903133,181.5,7.32,15.17,327,-0.019,0.639,9.724,1
369,35.20521776,-97.45902777,181.7,6.74,15.17,327,-0.088,0.217,9.782,1
370,35.20518122,-97.45902511,176.7,5.66,15.17,328,-0.106,-0.005,9.853,1
371,35.20515073,-97.45901839,179.9,4.7,15.17,328,-0.085,-0.053,9.861,1
372,35.20515073,-97.45901839,179.9,4.7,15.17,328,-0.084,0.296,9.761,1
373,35.20512544,-97.45901671,181.4,2.4,15.17,327,-0.072,0.556,9.726,1
374,35.20511043,-97.45900988,179.9,1.4,15.17,326,-0.036,0.479,9.716,1
375,35.20511043,-97.45900988,179.9,1.4,15.17,326,-0.023,0.753,9.658,1
376,35.2050995,-97.4590127,179.9,0.55,15.17,327,-0.018,1.067,9.583,1
377,35.2050995,-97.4590127,179.9,0.55,15.17,327,-0.016,1.136,9.566,1
378,35.2050995,-97.4590127,179.9,0.55,15.17,327,-0.014,1.157,9.562,1
379,35.2050995,-97.4590127,179.9,0.55,15.17,327,-0.014,1.157,9.562,1
380,35.2050995,-97.4590127,179.9,0.55,15.17,327,-0.014,1.157,9.561,1
381,35.2050995,-97.4590127,179.9,0.55,15.17,327,-0.014,1.161,9.565,1
382,35.2050995,-97.4590127,179.9,0.55,15.17,327,-0.011,1.158,9.561,1
383,35.2050995,-97.4590127,179.9,0.55,15.17,327,-0.012,1.163,9.563,1
384,35.2050995,-97.4590127,179.9,0.55,15.17,327,-0.01,1.16,9.563,1
385,35.2050995,-97.4590127,179.9,0.55,15.17,327,-0.008,1.365,9.525,1
386,35.2050995,-97.4590127,179.9,0.55,15.17,327,-0.011,1.182,9.558,1
387,35.2050995,-97.4590127,179.9,0.55,15.17,327,-0.002,1.175,9.564,1
388,35.2050995,-97.4590127,179.9,0.55,15.17,327,0.012,1.263,9.54,1
389,35.2050995,-97.4590127,179.9,0.55,15.17,327,0.022,1.122,9.572,1
390,35.2050995,-97.4590127,179.9,0.55,15.17,327,0.033,1.132,9.569,1
391,35.2050995,-97.4590127,179.9,0.55,15.17,327,0.035,1.154,9.563,1
392,35.2050995,-97.4590127,179.9,0.55,15.17,327,0.033,1.175,9.56,1
393,35.2050995,-97.4590127,179.9,0.55,15.17,327,0.025,1.134,9.565,1
394,35.2050995,-97.4590127,179.9,0.55,15.17,327,0.025,1.164,9.558,1
395,35.2050995,-97.4590127,179.9,0.55,15.17,327,0.025,1.173,9.557,1
396,35.2050995,-97.4590127,179.9,0.55,15.17,327,0.025,1.173,9.556,1
397,35.2050995,-97.4590127,179.9,0.55,15.17,327,0.026,1.173,9.555,1
398,35.2050995,-97.4590127,179.9,0.55,15.17,327,0.025,1.173,9.556,1
399,35.2050995,-97.4590127,179.9,0.55,15.17,327,0.029,1.342,9.519,1
400,35.2050995,-97.4590127,179.9,0.55,15.17,327,0.03,1.716,9.428,1
401,35.2050995,-97.4590127,179.9,0.55,15.17,327,0.059,1.75,9.399,1
402,35.2050995,-97.4590127,179.9,0.55,15.17,327,0.068,1.673,9.439,1
403,35.2050995,-97.4590127,179.9,0.55,15.17,327,0.093,1.819,9.389,1
404,35.2050995,-97.4590127,179.9,0.55,15.17,327,0.115,1.826,9.416,1
405,35.20503885,-97.4590115,177,3.01,13.653,326,0.104,1.78,9.412,1
406,35.20498335,-97.45900783,180.3,3.91,13.653,325,0.093,2.207,9.305,1
407,35.20494503,-97.458995,178,4.16,13.653,326,0.131,2.264,9.312,1
409,35.20487064,-97.45900544,180.7,6.58,13.653,323,0.274,2.441,9.183,1
410,35.20479477,-97.45901147,180.1,7.62,13.653,323,0.184,2.176,9.354,1
411,35.20470633,-97.45902495,183.1,8.33,13.653,322,0.107,1.587,9.452,1
412,35.20462997,-97.45901811,183.3,8.37,13.653,323,-0.058,1.385,9.571,1
413,35.20455274,-97.45902675,184.7,8.29,13.653,323,-0.279,0.822,9.71,1
414,35.20447891,-97.45902953,183.4,7.64,13.653,325,-0.295,1.14,9.563,1
415,35.20439867,-97.45905235,182.6,7.4,13.653,322,-0.284,1.29,9.599,1
416,35.20433283,-97.45904448,181.3,7.22,13.653,323,-0.096,1.296,9.507,1
417,35.2042733,-97.45904605,181.1,6.87,15.17,324,-0.136,1.263,9.458,1
418,35.20420952,-97.4590428,179.6,6.82,15.17,324,-0.303,1.289,9.532,1
419,35.20415331,-97.45904366,179.4,6.46,13.653,323,-0.32,1.301,9.573,1
420,35.20409952,-97.45903711,179.1,6.31,15.17,323,0.588,1.145,9.589,1
421,35.20403984,-97.45905888,189.4,6.08,13.653,323,2.132,0.879,9.597,1
422,35.20400741,-97.45909481,214.9,5.47,13.653,322,2.527,1.63,9.412,1
423,35.20398577,-97.45915097,238.8,6.17,13.653,322,1.86,2.589,9.174,1
424,35.20397447,-97.45922986,256.5,7.44,13.653,322,1.254,2.628,9.068,1
425,35.20397365,-97.45931974,265.7,8.35,13.653,323,0.523,2.688,9.187,1
426,35.20397361,-97.45942025,268.6,9.14,15.17,323,0.012,2.556,9.241,1
427,35.20397927,-97.45955121,269.6,11.09,13.653,322,-0.072,2.81,9.193,1
428,35.2039795,-97.45970064,270.3,12.33,13.653,321,-0.126,2.609,9.285,1
429,35.20398863,-97.45984626,270,13.44,13.653,320,-0.049,2.439,9.281,1
430,35.20398932,-97.46001058,270.3,14.3,13.653,319,0.249,2.37,9.232,1
431,35.20399085,-97.46018382,272.3,15.16,13.653,319,0.067,2.36,9.303,1
432,35.2039992,-97.46035631,273.2,16.05,13.653,319,-0.153,2.234,9.233,1
433,35.20400396,-97.46053974,272.7,16.76,13.653,319,-0.515,1.813,9.359,1
434,35.20401005,-97.46072853,271.9,16.94,13.653,319,-0.603,1.785,9.373,1
435,35.20401547,-97.46092176,270.7,17.42,13.653,318,-0.445,1.335,9.535,1
436,35.20401623,-97.4611045,270.7,17.28,13.653,319,-0.399,1.154,9.483,1
437,35.20401588,-97.46128619,270.3,16.78,13.653,319,-0.353,1.127,9.505,1
438,35.2040157,-97.46146643,270.1,16.61,13.653,319,-0.281,1.167,9.615,1
439,35.20401356,-97.46164618,270.2,16.28,13.653,318,-0.259,1.214,9.591,1
440,35.20401193,-97.46181242,269.7,15.63,13.653,318,-0.269,1.474,9.547,1
441,35.20401467,-97.46198498,270.4,15.82,13.653,318,-0.314,1.539,9.504,1
442,35.20401753,-97.46215203,270,15.48,13.653,318,-0.267,1.572,9.476,1
443,35.20401705,-97.46231546,270.1,15.64,13.653,318,-0.279,1.536,9.454,1
444,35.20401801,-97.46248482,270.2,15.72,13.653,317,-0.256,1.522,9.474,1
445,35.20401828,-97.46265911,270.1,15.82,13.653,318,-0.215,1.51,9.444,1
446,35.20401874,-97.46282159,270.6,15.69,13.653,318,-0.338,1.526,9.513,1
447,35.20401228,-97.46298973,270.5,15.6,13.653,318,-0.36,1.451,9.524,1
448,35.20401893,-97.46316421,270,15.7,13.653,317,-0.332,1.462,9.598,1
449,35.20401985,-97.4633383,269.8,15.56,13.653,316,-0.206,1.461,9.498,1
450,35.20402042,-97.46350902,270.3,15.51,13.653,316,-0.343,1.504,9.569,1
451,35.20402052,-97.46367018,270.1,15.35,13.653,316,-0.218,1.321,9.529,1
452,35.20401608,-97.46384179,270.1,15.43,15.17,315,-0.247,1.553,9.478,1
453,35.20401472,-97.46401489,270.1,15.01,13.653,315,-0.278,1.757,9.474,1
454,35.20401842,-97.46418773,269.9,15.55,13.653,316,-0.244,1.744,9.429,1
455,35.20401677,-97.46435987,270.1,15.62,13.653,316,-0.265,1.697,9.431,1
456,35.20401567,-97.46451519,269.9,15.58,13.653,316,-0.304,1.748,9.405,1
457,35.20402135,-97.46467413,270,15.79,13.653,316,-0.27,1.677,9.422,1
458,35.20401648,-97.46485806,270.1,16.05,13.653,316,-0.297,1.345,9.522,1
459,35.20401991,-97.46502975,270.3,16,13.653,316,-0.308,1.208,9.523,1
460,35.20402396,-97.46519735,270.5,15.77,13.653,317,-0.255,1.202,9.612,1
461,35.20402176,-97.4653777,269.9,15.46,13.653,316,-0.252,1.378,9.555,1
462,35.20402636,-97.46552992,270.5,15.11,13.653,317,-0.265,1.272,9.566,1
463,35.20403037,-97.46568072,269.8,14.75,13.653,316,-0.301,1.172,9.575,1
464,35.20402797,-97.4658548,270,14.89,13.653,316,-0.265,1.162,9.534,1
465,35.20402905,-97.46600647,270.4,14.35,13.653,316,-0.253,1.148,9.45,1
466,35.20402511,-97.46616542,269.9,14.24,13.653,316,-0.271,1.164,9.545,1
467,35.20403203,-97.46629103,270.3,13.2,13.653,317,-0.255,1.186,9.662,1
468,35.20403232,-97.46643601,270,13.1,13.653,320,-0.255,1.163,9.585,1
469,35.20403745,-97.46658401,270.5,13.07,13.653,319,-0.343,0.69,9.736,1
470,35.2040398,-97.46672926,269.3,12.43,13.653,318,-0.331,0.336,9.811,1
471,35.2040417,-97.46685668,270.2,11.16,13.653,317,-0.335,0.29,9.792,1
472,35.20403839,-97.46697103,269.8,10.14,13.653,318,-0.328,0.341,9.771,1
473,35.20403635,-97.4670627,268.6,8.56,13.653,318,-0.296,0.87,9.64,1
474,35.20403536,-97.467152,269.5,7.63,13.653,318,-0.289,0.666,9.67,1
475,35.20403323,-97.46728951,268.8,6,13.653,318,-0.262,0.482,9.736,1
476,35.20402578,-97.46735456,267,5.72,13.653,318,-0.285,0.461,9.744,1
477,35.20402542,-97.46738728,268,4.03,13.653,318,-0.285,0.466,9.744,1
478,35.20402121,-97.46741505,270.3,2.89,13.653,318,-0.295,0.64,9.716,1
479,35.20402606,-97.46743439,271.1,1.84,13.653,318,-0.31,0.721,9.686,1
480,35.20402916,-97.46745244,271.1,0.97,13.653,318,-0.317,0.701,9.684,1
481,35.20402916,-97.46745244,271.1,0.97,13.653,318,-0.31,1.019,9.605,1
482,35.20402916,-97.46745244,271.1,0.97,13.653,318,-0.298,1.443,9.503,1
483,35.20403827,-97.46744796,0,0,13.653,317,-0.294,1.515,9.485,1
484,35.20403827,-97.46744796,0,0,13.653,317,-0.298,1.531,9.483,1
485,35.20403827,-97.46744796,0,0,13.653,317,-0.3,1.536,9.483,1
486,35.20403827,-97.46744796,0,0,13.653,317,-0.302,1.537,9.481,1
487,35.20403827,-97.46744796,0,0,13.653,317,-0.3,1.537,9.481,1
488,35.20403409,-97.46746172,0,0,13.653,318,-0.3,1.537,9.484,1
489,35.20403409,-97.46746172,0,0,13.653,318,-0.299,1.537,9.481,1
490,35.20403409,-97.46746172,0,0,13.653,318,-0.297,1.536,9.479,1
491,35.20403216,-97.46747384,0,0,13.653,318,-0.3,1.536,9.48,1
492,35.20403216,-97.46747384,0,0,13.653,318,-0.296,1.535,9.482,1
493,35.20403216,-97.46747384,0,0,13.653,318,-0.294,1.537,9.48,1
495,35.20403216,-97.46747384,0,0,13.653,318,-0.3,1.536,9.48,1
496,35.20403216,-97.46747384,0,0,13.653,318,-0.301,1.537,9.478,1
497,35.20403216,-97.46747384,0,0,13.653,318,-0.303,1.534,9.479,1
498,35.20403216,-97.46747384,0,0,13.653,318,-0.296,1.537,9.48,1
499,35.20403216,-97.46747384,0,0,13.653,318,-0.3,1.537,9.482,1
500,35.20403216,-97.46747384,0,0,13.653,318,-0.297,1.534,9.483,1
501,35.20403216,-97.46747384,0,0,13.653,318,-0.296,1.537,9.484,1
502,35.20403216,-97.46747384,0,0,13.653,318,-0.303,1.537,9.483,1
503,35.20403216,-97.46747384,0,0,13.653,318,-0.297,1.538,9.481,1
504,35.20403216,-97.46747384,0,0,13.653,318,-0.301,1.537,9.483,1
505,35.20403216,-97.46747384,0,0,13.653,318,-0.296,1.536,9.481,1
506,35.20403216,-97.46747384,0,0,13.653,318,-0.3,1.534,9.485,1
507,35.20403216,-97.46747384,0,0,13.653,318,-0.3,1.535,9.484,1
508,35.20403216,-97.46747384,0,0,13.653,318,-0.294,1.537,9.483,1
509,35.20403216,-97.46747384,0,0,13.653,318,-0.301,1.535,9.483,1
510,35.20403216,-97.46747384,0,0,13.653,318,-0.295,1.536,9.481,1
511,35.20403216,-97.46747384,0,0,13.653,318,-0.299,1.534,9.484,1
512,35.20403216,-97.46747384,0,0,13.653,318,-0.299,1.537,9.481,1
513,35.20403216,-97.46747384,0,0,13.653,318,-0.302,1.532,9.481,1
514,35.20403216,-97.46747384,0,0,13.653,318,-0.296,1.534,9.483,1
515,35.20403216,-97.46747384,0,0,13.653,318,-0.3,1.533,9.483,1
516,35.20403216,-97.46747384,0,0,13.653,318,-0.297,1.535,9.483,1
517,35.20403216,-97.46747384,0,0,13.653,318,-0.294,1.537,9.483,1
518,35.20403216,-97.46747384,0,0,13.653,318,-0.296,1.537,9.483,1
519,35.20403216,-97.46747384,0,0,13.653,318,-0.295,1.537,9.485,1
520,35.20403216,-97.46747384,0,0,13.653,318,-0.297,1.536,9.481,1
521,35.20403216,-97.46747384,0,0,13.653,318,-0.294,1.537,9.484,1
522,35.20403216,-97.46747384,0,0,13.653,318,-0.3,1.534,9.481,1
523,35.20403216,-97.46747384,0,0,13.653,318,-0.301,1.533,9.483,1
524,35.20403216,-97.46747384,0,0,13.653,318,-0.3,1.531,9.484,1
525,35.20403216,-97.46747384,0,0,13.653,318,-0.295,1.535,9.481,1
526,35.20403216,-97.46747384,0,0,13.653,318,-0.297,1.532,9.483,1
527,35.20403216,-97.46747384,0,0,13.653,318,-0.294,1.535,9.483,1
528,35.20403216,-97.46747384,0,0,13.653,318,-0.299,1.533,9.483,1
529,35.20403216,-97.46747384,0,0,13.653,318,-0.292,1.537,9.479,1
530,35.20403216,-97.46747384,0,0,13.653,318,-0.298,1.534,9.482,1
531,35.20403216,-97.46747384,0,0,13.653,318,-0.297,1.537,9.483,1
532,35.20403216,-97.46747384,0,0,13.653,318,-0.298,1.534,9.483,1
533,35.20403216,-97.46747384,0,0,13.653,318,-0.301,1.534,9.483,1
534,35.20403216,-97.46747384,0,0,13.653,318,-0.296,1.535,9.483,1
535,35.20403216,-97.46747384,0,0,13.653,318,-0.3,1.533,9.483,1
536,35.20403216,-97.46747384,0,0,13.653,318,-0.294,1.535,9.483,1
537,35.20403216,-97.46747384,0,0,13.653,318,-0.3,1.532,9.483,1
538,35.20403216,-97.46747384,0,0,13.653,318,-0.296,1.537,9.48,1
539,35.20403216,-97.46747384,0,0,13.653,318,-0.298,1.534,9.48,1
540,35.20403216,-97.46747384,0,0,13.653,318,-0.297,1.536,9.478,1
541,35.20403216,-97.46747384,0,0,13.653,318,-0.3,1.565,9.471,1
542,35.20403216,-97.46747384,0,0,13.653,318,-0.291,1.763,9.424,1
543,35.20403216,-97.46747384,0,0,13.653,318,-0.287,1.894,9.395,1
544,35.20403216,-97.46747384,0,0,13.653,318,-0.272,2.917,9.131,1
545,35.20403216,-97.46747384,0,0,13.653,318,-0.268,3.115,9.081,1
546,35.20403216,-97.46747384,0,0,13.653,318,-0.279,3.179,9.068,1
547,35.20403248,-97.46755705,270.9,5.13,13.653,318,-0.265,2.926,9.186,1
548,35.20403053,-97.46764207,270.6,6.45,13.653,318,-0.211,2.725,9.169,1
549,35.20402565,-97.46771904,270.8,7.65,13.653,318,-0.274,2.531,9.266,1
550,35.20403259,-97.4678222,271,8.55,13.653,319,-0.244,2.147,9.319,1
551,35.20403694,-97.4679195,270.2,9.11,13.653,319,-0.232,2.047,9.324,1
552,35.2040393,-97.46802537,270.1,9.8,13.653,319,-0.301,2.007,9.382,1
553,35.20403689,-97.46814408,269.9,10.39,13.653,318,-0.277,1.966,9.33,1
554,35.20404184,-97.46826573,269.3,10.83,13.653,318,-0.297,1.938,9.37,1
555,35.20404299,-97.46838863,269.5,11.31,13.653,318,-0.297,1.987,9.34,1
556,35.20404295,-97.46850799,269.6,11.64,13.653,319,-0.225,2.237,9.289,1
557,35.20404371,-97.46864006,269.8,12.5,13.653,319,-0.312,1.983,9.403,1
558,35.20404723,-97.46879302,269.7,13.13,13.653,318,-0.364,1.749,9.49,1
559,35.20404565,-97.46894763,270,13.45,13.653,318,-0.275,1.691,9.438,1
560,35.20403838,-97.4690976,270.2,13.58,13.653,317,-0.286,1.698,9.453,1
561,35.20402993,-97.4692547,270.4,13.83,13.653,317,-0.309,1.743,9.414,1
562,35.20402888,-97.46940803,270.1,13.97,13.653,317,-0.315,1.739,9.436,1
563,35.20402848,-97.46956368,270.4,14.27,13.653,318,-0.331,1.61,9.522,1
564,35.20403138,-97.46972562,270.2,14.38,13.653,318,-0.345,1.593,9.477,1
565,35.2040348,-97.46988254,270.1,14.4,13.653,319,-0.284,1.662,9.501,1
566,35.20403465,-97.47004611,270.5,14.26,13.653,319,-0.309,1.837,9.414,1
567,35.20403214,-97.47021312,269.4,14.72,13.653,320,-0.323,1.858,9.414,1
568,35.20403071,-97.47037123,269.9,14.93,13.653,320,-0.314,1.803,9.285,1
569,35.20403394,-97.47053585,270.3,15.32,13.653,321,-0.35,1.431,9.398,1
570,35.20403089,-97.47087559,269.9,15.35,13.653,319,-0.337,1.427,9.505,1
571,35.20403462,-97.47104099,270.4,15.29,13.653,319,-0.344,1.582,9.461,1
572,35.20403316,-97.47121102,269.8,15.56,13.653,319,-0.281,1.677,9.419,1
573,35.20403199,-97.47137987,269.6,15.23,13.653,319,-0.187,1.907,9.46,1
574,35.20402838,-97.47155654,269.7,15.49,13.653,320,-0.251,1.715,9.536,1
575,35.20402845,-97.47174339,270.4,16.13,13.653,320,-0.291,1.555,9.521,1
576,35.20403024,-97.47192366,269.6,16.13,13.653,320,-0.242,1.729,9.431,1
577,35.20402686,-97.47210354,269.9,16.44,13.653,321,-0.283,1.937,9.317,1
578,35.2040283,-97.47228689,269.8,16.73,13.653,321,-0.239,1.872,9.377,1
579,35.2040221,-97.47247946,270.4,17.07,13.653,321,-0.226,1.583,9.386,1
580,35.20401906,-97.47266484,270.5,16.78,13.653,321,-0.23,1.274,9.497,1
581,35.20402187,-97.4728487,270.3,16.65,13.653,321,-0.307,1.369,9.482,1
582,35.20401911,-97.47304036,269.5,17.02,13.653,322,-0.363,1.656,9.426,1
583,35.20401865,-97.47321591,269.8,16.8,13.653,322,-0.354,1.301,9.579,1
584,35.20401791,-97.47339106,269.3,15.87,15.17,322,-0.407,1.179,9.599,1
585,35.20401951,-97.47357388,270.1,16.03,13.653,322,-0.241,1.23,9.626,1
586,35.20401463,-97.473757,269.8,15.91,13.653,322,-0.302,1.26,9.546,1
588,35.20401895,-97.47393164,270.5,15.34,13.653,321,-0.35,1.377,9.489,1
589,35.2040188,-97.47410055,269.1,15.97,13.653,321,-0.22,1.405,9.525,1
590,35.2040181,-97.47427306,269.8,15.27,13.653,320,-0.312,1.606,9.484,1
591,35.20401705,-97.47444717,269.3,15.63,13.653,320,-0.289,1.63,9.429,1
592,35.2040223,-97.47461915,270.4,15.97,13.653,319,-0.289,1.616,9.358,1
593,35.20401978,-97.47479052,269,15.65,13.653,320,-0.262,1.767,9.412,1
594,35.20402315,-97.47496302,270.5,15.71,13.653,321,-0.234,1.471,9.567,1
595,35.20402419,-97.47513344,269.7,15.48,13.653,321,-0.195,1.328,9.598,1
596,35.20402555,-97.47530001,270.1,15.65,13.653,321,-0.237,1.59,9.531,1
597,35.20402866,-97.47545735,270.9,15.66,13.653,320,-0.235,1.318,9.65,1
598,35.20403022,-97.47562775,270.1,15.53,13.653,320,-0.157,-0.226,9.754,1
599,35.20402372,-97.47578597,268.2,14.01,13.653,320,-0.206,-0.627,9.974,0
600,35.2040226,-97.47590085,269.2,11.19,13.653,321,-0.292,-0.679,10.089,0
