time,lat,lng,bearing,spd,acc,alt,accx,accy,accz,stable
0,35.20934066,-97.4396661,50.3,2.3277671,3,327,1.246,3.96,9.243,0
1,35.20933255,-97.43964007,50.7,2.2157843,3,327,0.632,4.346,9.16,0
2,35.20932624,-97.43960927,87.4,2.5407085,3,327,0.831,5.061,8.841,0
3,35.20932706,-97.43956924,90.4,3.390015,3,327,0.902,4.735,8.856,0
4,35.20932587,-97.43952234,88.5,4.250047,3,327,0.988,4.72,8.975,0
5,35.20932157,-97.43946575,90.7,4.91,3,327,0.907,4.157,9.035,0
6,35.20931153,-97.43939743,90.8,5.450229,3,328,0.617,3.444,9.613,0
7,35.20931777,-97.43933703,89.1,5.370037,3,327,0.394,3.931,9.182,0
8,35.20931857,-97.43928903,88.8,4.780094,3,327,1.103,3.958,9.085,0
9,35.20931563,-97.43923751,89,4.590011,3,327,-0.519,3.071,9.793,0
10,35.20931982,-97.43918832,85.6,4.4700446,3,327,-2.378,3.456,10.499,0
11,35.20933333,-97.43914839,69.8,3.860207,3,327,-0.251,3.64,8.578,0
12,35.20935067,-97.43912042,49.9,3.2012653,3,327,-1.429,4.059,9.488,0
13,35.20937973,-97.43910558,29.6,2.9233544,3,325,0.436,4.353,8.217,0
14,35.20940213,-97.43910081,14.1,2.3710334,3,326,-0.506,4.551,9.01,0
15,35.2094327,-97.43909756,3.9,3.2149806,3,326,-1.412,4.444,9.314,0
16,35.20949692,-97.43911917,330.3,3.532039,3,325,-1.609,3.786,9.719,0
17,35.20951624,-97.4391483,302.6,3.3714833,3,326,-1.152,3.641,9.365,0
19,35.20952199,-97.43918636,280.8,3.142499,3,326,0.353,4.085,8.78,0
20,35.20951863,-97.43922612,271.6,3.360238,3,326,0.425,4.461,9.081,0
21,35.20951413,-97.43926733,270,3.5900557,3,326,0.409,4.499,8.955,0
22,35.20951143,-97.43931115,270.2,3.91,3,325,0.336,4.101,9.533,0
23,35.20951013,-97.43935402,270.5,3.9500127,3,325,0.706,3.367,9.056,0
24,35.20951033,-97.4393942,273,3.584034,3,326,1.714,3.447,9.272,0
25,35.2095126,-97.4394268,285.1,2.942414,3,326,2.253,3.12,9.267,0
26,35.20952329,-97.43944802,307.6,2.3369424,3,326,1.707,5.397,8.765,0
27,35.20954237,-97.43945993,329.4,2.3701897,3,326,0.942,4.008,8.813,0
28,35.20956786,-97.4394678,344.2,2.8311305,3,326,0.733,4.206,9.073,0
29,35.20958911,-97.43946878,356.6,2.0811775,3,325,0.124,3.448,9.217,0
30,35.20960001,-97.43946695,2.4,1.1036757,3,325,0.039,3.791,9.114,0
31,35.20960001,-97.43946695,2.4,1.1036757,3,325,0.312,4.843,8.914,0
32,35.20959112,-97.43946119,0,0,3,325,0.239,3.405,9.238,0
33,35.20959112,-97.43946119,0,0,3,325,0.827,2.779,9.193,0
34,35.20960945,-97.43945066,30.7,1.9673587,4,326,1.245,3.379,9.327,0
35,35.20963218,-97.43942714,56.7,2.7906451,3,325,0.669,3.077,8.862,0
36,35.20964963,-97.43938696,78.2,3.791319,3,324,0.641,3.446,9.779,0
37,35.20965732,-97.43933283,92.2,4.401375,3,324,0.637,2.1,10.022,0
38,35.20965904,-97.43927619,96.2,4.780377,3,323,-0.132,1.934,9.584,0
39,35.20966073,-97.43922001,96,4.940496,3,323,-0.108,1.841,9.704,0
40,35.20966272,-97.43916526,95.2,4.9212294,3,322,-0.222,1.878,9.427,0
41,35.20966449,-97.43911247,94.1,4.7408123,3,322,-0.39,1.079,9.4,0
42,35.20966837,-97.43906527,93.2,4.5118732,3,321,-0.242,0.327,9.787,0
43,35.20967016,-97.43902661,92.6,3.5302265,3,320,-0.172,1.059,9.609,1
44,35.20967339,-97.43900481,92.5,2.084706,3,320,-0.165,2.477,9.475,1
45,35.20967339,-97.43900481,92.5,2.084706,3,320,-0.595,3.95,9.496,0
46,35.20967775,-97.43898292,91.3,1.2325989,3,320,-2.06,3.14,9.364,0
47,35.2096832,-97.43895678,80,2.5679758,3,319,-2.38,3.008,9.705,0
48,35.20970195,-97.4389205,54.5,3.7503333,3,319,-1.759,3.249,10.243,0
49,35.209736,-97.43889154,24.7,4.1714506,3,319,-0.58,3.244,9.891,0
50,35.20981479,-97.43888776,6.5,6.211578,3,319,-0.461,3.145,9.819,0
51,35.20987634,-97.43888874,1,6.733276,3,320,0.182,2.95,9.713,0
52,35.20995646,-97.43888426,0.3,8.100395,3,321,-0.228,2.849,9.429,0
53,35.21004846,-97.43887956,0.2,9.030049,3,321,-0.047,2.948,9.742,0
54,35.21013674,-97.43888454,359.9,9.72087,3,321,0.115,2.032,9.629,0
55,35.21032516,-97.43888075,359.8,10.250395,3,321,-0.068,1.96,9.477,0
57,35.21041953,-97.4388769,359.8,10.110004,3,322,-0.246,2.387,9.728,0
58,35.21050522,-97.43887896,359.7,10.040125,3,322,-0.539,2.174,9.404,0
59,35.21059597,-97.43888038,359.3,10.050124,3,323,-0.209,1.932,9.531,0
60,35.21068111,-97.43887835,358.8,9.810082,3,324,-0.252,1.382,9.364,0
61,35.21075761,-97.43887811,359,9.150005,3,325,0.084,0.494,9.363,0
62,35.21082456,-97.43887326,359.3,7.9300566,3,325,-0.342,0.44,9.949,0
63,35.21087719,-97.43887483,358.7,6.2807965,3,326,-0.371,0.676,9.871,0
64,35.21091036,-97.43887533,357.9,4.5,3,326,-0.154,1.213,9.722,0
65,35.21093879,-97.43887548,357.6,3.2800152,3,326,0.125,1.213,9.704,1
66,35.21095995,-97.43887246,358.2,2.2202027,3,326,-0.186,2.023,9.682,0
67,35.21097595,-97.43887985,358.6,1.76,3,326,0.181,2.01,9.474,0
68,35.21098993,-97.43888121,358.9,1.6800296,3,326,-0.233,1.893,9.683,0
69,35.21100401,-97.43888135,358.8,1.4005713,3,326,0.068,1.793,9.53,1
70,35.21101318,-97.43888019,358.7,1.0911462,3,327,0.001,1.103,9.719,0
71,35.21101318,-97.43888019,358.7,1.0911462,3,327,0.08,2.038,9.766,1
72,35.21101318,-97.43888019,358.7,1.0911462,3,327,0.1,1.991,9.525,1
73,35.21101318,-97.43888019,358.7,1.0911462,3,327,0.107,2.007,9.494,1
74,35.21102489,-97.43887837,0,0,3,326,0.08,2.026,9.482,1
75,35.21102489,-97.43887837,0,0,3,326,0.078,1.983,9.721,1
76,35.21102489,-97.43887837,0,0,3,326,0.048,1.994,9.729,1
77,35.21103238,-97.43887155,0,0,3,326,0.053,2.004,9.692,1
78,35.21103238,-97.43887155,0,0,3,326,0.085,2.03,9.494,1
79,35.21103238,-97.43887155,0,0,3,326,0.063,2.009,9.699,1
80,35.21104158,-97.43886799,0,0,3,326,0.052,2.01,9.583,1
81,35.21104158,-97.43886799,0,0,3,326,0.051,2.512,9.655,0
82,35.21104158,-97.43886799,0,0,3,326,0.157,3.175,9.48,0
83,35.21104158,-97.43886799,0,0,3,326,-0.258,4.09,9.493,0
84,35.21106458,-97.4388662,357,1.4441953,4,326,-2.65,3.724,9.486,0
85,35.21109701,-97.43887231,343.1,3.156343,4,326,-4.054,2.569,9.368,0
86,35.21111935,-97.43892989,308.1,5.005287,3,328,-2.104,3.485,9.714,0
87,35.21114786,-97.4390013,278.9,6.540619,3,328,-1.037,3.963,9.449,0
88,35.21114354,-97.4390911,269.7,7.890057,3,328,-0.324,3.667,9.116,0
89,35.21114087,-97.4392024,268.1,9.730621,3,328,-0.327,3.345,9.39,0
90,35.21113672,-97.43932585,268.6,11.220446,3,329,-0.048,1.867,9.637,0
91,35.21113444,-97.4394623,268.7,12.160148,3,329,0.047,1.916,9.353,0
92,35.21113158,-97.43959266,269.2,12.000037,3,330,0.223,2.055,9.565,0
93,35.21113217,-97.43971768,269.8,11.710017,3,330,-0.016,1.893,9.668,0
94,35.21113053,-97.43996728,271.9,11.050163,3,330,-0.184,1.96,9.733,0
96,35.21113234,-97.44008976,272.2,10.976238,3,330,-0.015,1.975,10.067,0
97,35.2111346,-97.44021106,272.5,10.682696,3,330,-0.546,1.771,9.943,0
98,35.21113543,-97.44032593,272.1,10.41,3,330,-0.265,1.931,9.549,0
99,35.21113555,-97.44043931,271.5,10.220019,3,330,-0.216,1.931,9.313,0
100,35.21113757,-97.44054845,270.9,9.970045,3,330,-0.335,1.97,9.469,0
101,35.21113906,-97.44065825,270.6,9.740185,3,331,0.145,1.9,10.116,0
102,35.21113917,-97.44076201,270.8,9,3,331,-0.057,0.285,9.956,0
103,35.21114141,-97.44085007,270.9,7.2400064,3,331,-0.069,0.565,9.934,0
104,35.21114335,-97.44091884,270.4,5.6501417,3,331,-0.033,0.866,9.891,0
105,35.21114366,-97.44097098,270.1,4.430282,3,331,0.012,1.223,9.693,0
106,35.21114478,-97.44101291,270.5,3.6100552,3,332,-0.086,1.453,9.478,0
107,35.21114095,-97.44104965,270.6,2.93,3,331,-0.187,1.649,9.812,0
108,35.21114136,-97.44107756,268.4,2.1200235,3,332,-0.005,0.63,9.685,1
109,35.21114431,-97.44109271,267.9,1.0301942,3,331,-0.083,1.3,9.646,0
110,35.21114431,-97.44109271,267.9,1.0301942,3,331,-0.113,2.188,9.755,0
111,35.21114431,-97.44109271,267.9,1.0301942,3,331,-0.123,2.134,9.713,1
112,35.21114431,-97.44109271,267.9,1.0301942,3,331,-0.16,2.162,9.654,1
113,35.21114431,-97.44109271,267.9,1.0301942,3,331,-0.118,2.189,9.516,1
114,35.21114431,-97.44109271,267.9,1.0301942,3,331,-0.111,2.202,9.547,1
115,35.21114431,-97.44109271,267.9,1.0301942,3,331,-0.136,2.152,9.703,1
116,35.21114431,-97.44109271,267.9,1.0301942,3,331,-0.118,2.144,9.715,1
117,35.21114431,-97.44109271,267.9,1.0301942,3,331,-0.139,2.177,9.555,1
118,35.21114431,-97.44109271,267.9,1.0301942,3,331,-0.123,2.194,9.531,1
119,35.21114431,-97.44109271,267.9,1.0301942,3,331,-0.127,2.174,9.626,1
120,35.21114431,-97.44109271,267.9,1.0301942,3,331,-0.122,2.135,9.694,1
121,35.21114431,-97.44109271,267.9,1.0301942,3,331,-0.118,2.135,9.687,1
122,35.21114431,-97.44109271,267.9,1.0301942,3,331,-0.112,2.149,9.697,1
123,35.21114431,-97.44109271,267.9,1.0301942,3,331,-0.114,2.182,9.537,1
124,35.21115361,-97.441092,0,0.04,4,331,-0.127,2.159,9.621,1
125,35.21115361,-97.441092,0,0.04,4,331,-0.116,2.139,9.679,1
126,35.21115361,-97.441092,0,0.04,4,331,-0.106,2.182,9.577,1
127,35.21115361,-97.441092,0,0.04,4,331,-0.121,2.184,9.564,1
128,35.21115361,-97.441092,0,0.04,4,331,-0.113,2.148,9.677,1
129,35.21115361,-97.441092,0,0.04,4,331,-0.114,2.179,9.557,1
130,35.21115361,-97.441092,0,0.04,4,331,-0.116,2.157,9.574,1
131,35.21115361,-97.441092,0,0.04,4,331,-0.111,2.171,9.599,1
132,35.21115361,-97.441092,0,0.04,4,331,-0.099,2.154,9.636,1
133,35.21115361,-97.441092,0,0.04,4,331,-0.121,2.132,9.685,1
134,35.21115361,-97.441092,0,0.04,4,331,-0.108,2.168,9.55,1
135,35.21115361,-97.441092,0,0.04,4,331,-0.114,2.142,9.685,1
136,35.21115361,-97.441092,0,0.04,4,331,-0.115,2.159,9.582,1
137,35.21115904,-97.44108274,0,0.01,3,331,-0.12,2.155,9.662,1
138,35.21115904,-97.44108274,0,0.01,3,331,-0.127,2.166,9.59,1
140,35.21115904,-97.44108274,0,0.01,3,331,-0.111,2.151,9.673,1
141,35.21115904,-97.44108274,0,0.01,3,331,-0.12,2.153,9.636,1
142,35.21115904,-97.44108274,0,0.01,3,331,-0.121,2.171,9.592,1
143,35.21115904,-97.44108274,0,0.01,3,331,-0.107,2.163,9.613,1
144,35.21115904,-97.44108274,0,0.01,3,331,-0.106,2.158,9.665,1
145,35.21115904,-97.44108274,0,0.01,3,331,-0.109,2.14,9.663,1
146,35.21115904,-97.44108274,0,0.01,3,331,-0.131,2.18,9.569,1
147,35.21115904,-97.44108274,0,0.01,3,331,-0.109,2.16,9.573,1
148,35.21115904,-97.44108274,0,0.01,3,331,-0.103,2.176,9.614,1
149,35.21115904,-97.44108274,0,0.01,3,331,-0.127,2.197,9.583,1
150,35.21115904,-97.44108274,0,0.01,3,331,-0.105,2.164,9.602,1
151,35.21115904,-97.44108274,0,0.01,3,331,-0.124,2.162,9.617,1
152,35.21115904,-97.44108274,0,0.01,3,331,-0.109,2.191,9.489,1
153,35.21115904,-97.44108274,0,0.01,3,331,-0.109,2.147,9.596,1
154,35.21115904,-97.44108274,0,0.01,3,331,-0.113,2.147,9.688,1
155,35.21115904,-97.44108274,0,0.01,3,331,-0.11,2.18,9.514,1
156,35.21116656,-97.44107483,0,0,4,331,-0.108,2.195,9.515,1
157,35.21116656,-97.44107483,0,0,4,331,-0.121,2.208,9.482,1
158,35.21116656,-97.44107483,0,0,4,331,-0.116,2.19,9.516,1
159,35.21116656,-97.44107483,0,0,4,331,-0.119,2.161,9.62,1
160,35.21116656,-97.44107483,0,0,4,331,-0.128,2.183,9.51,1
161,35.21116656,-97.44107483,0,0,4,331,-0.12,2.182,9.531,1
162,35.21116656,-97.44107483,0,0,4,331,-0.109,2.126,9.676,1
163,35.21116656,-97.44107483,0,0,4,331,-0.112,2.191,9.504,1
164,35.21116656,-97.44107483,0,0,4,331,-0.124,2.157,9.609,1
165,35.21116656,-97.44107483,0,0,4,331,-0.138,2.161,9.605,1
166,35.21116656,-97.44107483,0,0,4,331,-0.106,2.183,9.496,1
167,35.21117196,-97.44106594,0,0.01,4,331,-0.111,2.161,9.593,1
168,35.21117196,-97.44106594,0,0.01,4,331,-0.119,2.165,9.585,1
169,35.21117196,-97.44106594,0,0.01,4,331,-0.118,2.18,9.584,1
170,35.21117196,-97.44106594,0,0.01,4,331,-0.251,4.038,9.421,0
171,35.21117196,-97.44106594,0,0.01,4,331,-0.23,4.095,9.255,0
172,35.21117121,-97.44109784,261.3,2.890277,4,331,-0.137,4.155,9.121,0
173,35.21117098,-97.44114364,269.1,4.891022,4,331,-0.209,3.756,9.783,0
174,35.21116911,-97.44120866,269.4,6.5810943,4,331,-0.314,3.351,9.508,0
175,35.21116665,-97.44129506,269.5,7.9206314,3,330,-0.06,3.217,9.601,0
176,35.21116425,-97.44138853,269.5,9.09027,3,330,-0.239,3.019,9.791,0
177,35.21116004,-97.44149756,269.6,10.080714,3,330,-0.15,3.114,9.361,0
178,35.21115811,-97.44161412,269.4,10.970292,3,331,0.127,3.057,9.609,0
179,35.21115677,-97.44173635,269.4,11.82027,3,331,-0.303,2.944,9.923,0
180,35.21115264,-97.44187805,269.3,12.570397,3,331,-0.23,3.131,9.32,0
181,35.21114926,-97.44201832,268.6,13.310305,3,331,-0.147,2.872,9.264,0
182,35.21114542,-97.44216916,268.1,14.0206995,3,331,0.314,2.845,9.449,0
183,35.21114314,-97.44233292,268.8,14.710276,3,331,0.121,1.772,9.635,0
184,35.21114116,-97.44249117,269.3,14.850084,3,331,0.157,2.141,10.161,0
185,35.21114133,-97.44265239,269.6,14.74003,3,331,-0.028,2.15,9.187,0
186,35.21114116,-97.44297337,270,14.750013,3,331,-0.272,2.221,9.971,0
188,35.21114139,-97.44313909,270.1,14.82057,3,331,-0.168,2.198,9.601,0
189,35.21114108,-97.44330329,270.1,14.87003,3,331,-0.23,2.297,9.611,0
190,35.21114103,-97.44346771,270,14.920004,3,331,0.027,2.332,9.166,0
191,35.21114203,-97.44363476,270.1,15.000564,3,331,0.206,2.27,11.921,0
192,35.2111405,-97.44380297,270.4,15.010213,3,331,0.469,1.272,12.351,0
193,35.21114142,-97.44396225,270.4,15.040402,3,332,-0.114,1.854,9.593,0
194,35.21114197,-97.44412471,270.2,14.760014,3,331,-0.158,1.85,9.675,0
195,35.21114259,-97.44427855,270.1,14.280056,3,331,-0.293,1.926,9.823,0
196,35.21114281,-97.44444235,270.1,14.230172,3,331,-0.253,2.478,9.678,0
197,35.21114255,-97.44459606,270,14.530278,3,331,0.335,2.51,11.562,0
198,35.21114283,-97.44475994,270.1,15.090083,3,330,-0.024,2.2,9.103,0
199,35.21114374,-97.44493107,270.4,15.090268,3,331,-0.081,1.766,9.777,0
200,35.21114513,-97.44508919,270.4,14.670123,3,331,-0.129,2.009,9.45,0
201,35.21114632,-97.44524953,270.4,14.500124,3,331,-0.275,2.127,9.542,0
202,35.21114667,-97.44540581,270.6,14.49,3,330,-0.28,1.946,9.317,0
203,35.21114733,-97.4455659,270.4,14.47,3,330,0.158,2.146,9.045,0
204,35.21114813,-97.44573021,270.3,14.440003,3,330,-0.057,2.178,9.753,0
205,35.21115031,-97.44588407,270.3,14.53182,3,330,-0.351,2.181,9.46,0
206,35.21115104,-97.4460444,270.1,14.530278,3,330,-0.153,2.188,9.363,0
207,35.21115185,-97.44621001,270,14.5506735,3,330,-0.28,2.082,9.335,0
208,35.21115206,-97.44636601,269.9,14.56088,3,330,-0.12,2.314,9.617,0
209,35.21115182,-97.44652854,269.9,14.680341,3,330,-0.257,1.967,8.81,0
210,35.21115199,-97.44668569,269.9,14.820165,3,329,-0.225,2.206,9.713,0
211,35.21115154,-97.44685058,269.8,14.9400835,3,329,-0.187,2.404,10.019,0
212,35.21115072,-97.44702319,269.9,15.1001625,3,330,-0.065,2.305,9.449,0
213,35.21115107,-97.44718567,270,15.230012,3,330,-0.12,2.253,9.761,0
214,35.21115044,-97.44735445,270,15.360082,3,330,0.071,2.154,9.101,0
215,35.21114969,-97.44752608,270.1,15.460081,3,329,-0.018,2.407,9.541,0
216,35.21114988,-97.44769629,269.8,15.540003,3,330,0.087,2.109,9.4,0
217,35.21114879,-97.44786335,269.6,15.650115,3,330,-0.251,2.222,9.729,0
218,35.21114843,-97.448037,269.3,15.700028,3,329,0.071,2.23,9.713,0
219,35.21114703,-97.44821146,269.5,15.800051,3,329,-0.25,2.04,9.563,0
220,35.21114742,-97.44838447,269.5,15.750004,3,329,0.074,1.733,9.636,0
221,35.21114611,-97.44855516,269.2,15.430207,3,328,0.102,1.894,9.759,0
222,35.21114537,-97.44871807,269.4,15.09003,3,328,0.191,2.479,9.671,0
223,35.21114409,-97.44888974,269.6,15.020164,3,328,0.087,1.959,10.095,0
224,35.21114348,-97.44905637,270.1,15.04003,3,328,0.087,2.069,9.763,0
225,35.21114272,-97.44921781,270.1,15.080053,3,328,-0.019,2.148,9.313,0
226,35.21114357,-97.44938488,270.2,15.170557,3,328,0.328,2.302,10.066,0
227,35.21114319,-97.44954679,270.2,15.100268,3,328,-0.45,2.011,9.001,0
228,35.21114446,-97.44971774,270.4,15.1204,3,327,-0.061,2.174,9.767,0
229,35.2111451,-97.44988564,270.4,15.180329,3,327,-0.204,2.047,9.807,0
230,35.21114588,-97.45004882,270.3,15.19021,3,327,-0.224,2.155,9.105,0
231,35.21114678,-97.45022138,270.1,15.200842,3,326,0.04,2.251,9.576,0
232,35.21114765,-97.45038473,270.1,15.25016,3,327,-0.041,2.276,9.096,0
233,35.21114837,-97.45055381,270.4,15.300082,3,327,-0.27,1.848,9.945,0
234,35.21114928,-97.45071743,270.3,15.240029,3,327,1.035,1.653,10.52,0
235,35.21115017,-97.45088427,270,14.940334,3,327,-0.008,1.687,9.03,0
236,35.21115132,-97.4510521,270.1,14.590055,3,328,-0.05,1.744,9.824,0
237,35.21115273,-97.45120565,270.3,14.270172,3,328,-0.168,1.679,9.365,0
238,35.2111541,-97.45136123,270.3,13.9,3,327,-0.106,1.756,9.773,0
239,35.21115556,-97.45151624,270.1,13.540181,3,327,0.079,1.696,9.024,0
240,35.21115812,-97.45179964,270,13.023231,3,326,-0.228,1.588,8.723,0
241,35.2111587,-97.4519399,270.1,12.65484,3,325,-0.225,1.724,9.756,0
243,35.21115929,-97.45207275,270.2,12.374401,3,325,-0.106,1.775,9.966,0
244,35.21116018,-97.45221024,270.3,11.773097,3,325,-0.13,0.702,9.531,0
245,35.21116095,-97.4523314,270.1,10.723657,3,324,0.006,0.84,9.824,0
246,35.2111622,-97.45243878,270.1,9.724032,3,324,0.058,1.235,9.962,0
247,35.21116264,-97.45254354,270.1,8.893515,3,324,-0.27,1.125,9.314,0
248,35.21116255,-97.4526315,270.2,7.8742933,3,324,-0.078,0.799,9.652,0
249,35.21116303,-97.45270963,270.3,6.643982,3,323,-0.083,0.213,9.856,1
250,35.21116379,-97.45276999,270.2,5.053573,3,323,-0.172,0.495,9.774,0
251,35.21116561,-97.45281258,270.4,3.532775,3,323,-0.052,0.441,9.712,0
252,35.21116631,-97.45284343,270.5,2.2327113,3,323,-0.106,1.267,9.642,1
253,35.21116623,-97.45286461,270.4,1.5915401,3,323,-0.168,1.346,9.736,1
254,35.21116624,-97.45287721,270.3,0.93134314,3,323,-0.136,1.131,9.689,1
255,35.21116624,-97.45287721,270.3,0.93134314,3,323,-0.155,1.87,9.467,1
256,35.21116624,-97.45287721,270.3,0.93134314,3,323,-0.173,1.916,9.604,1
257,35.21116624,-97.45287721,270.3,0.93134314,3,323,-0.169,1.894,9.675,1
258,35.21116624,-97.45287721,270.3,0.93134314,3,323,-0.177,1.895,9.647,1
259,35.21116624,-97.45287721,270.3,0.93134314,3,323,-0.175,1.908,9.565,1
260,35.21116624,-97.45287721,270.3,0.93134314,3,323,-0.187,1.916,9.602,1
261,35.21116624,-97.45287721,270.3,0.93134314,3,323,-0.186,2.425,9.595,0
262,35.21116683,-97.45289132,270.5,1.13,3,322,-0.155,4.73,9.288,0
263,35.21116638,-97.45292715,270.5,3.8700128,3,323,-0.22,4.164,9.247,0
264,35.2111673,-97.45298505,270.9,6.03,3,322,-0.18,3.748,9.646,0
265,35.21116794,-97.45306357,270.8,7.6900067,3,322,-0.17,3.483,9.6,0
266,35.21116992,-97.45315521,270.6,9.141231,3,322,-0.121,3.297,9.088,0
267,35.21116954,-97.45326517,270.3,10.456549,3,322,-0.272,3.157,9.131,0
268,35.211169,-97.45338876,270.2,11.676515,3,322,-0.276,3.055,9.45,0
269,35.21116927,-97.45352499,270.4,12.773069,3,321,-0.262,2.77,9.063,0
270,35.21117047,-97.45367186,270.4,13.561785,3,321,-0.239,1.688,9.865,0
271,35.21117136,-97.45381927,270.3,13.371649,3,321,-0.209,1.713,9.774,0
272,35.21117246,-97.45396532,270.3,13.162978,3,321,-0.333,2.11,9.472,0
273,35.21117315,-97.45410639,270.1,13.171674,3,320,-0.283,2.166,9.507,0
274,35.21117339,-97.45425296,270.2,13.350453,3,320,-0.275,2.083,8.913,0
275,35.21117339,-97.45440143,270.1,13.500726,3,320,0.234,2.127,9.491,0
276,35.21117335,-97.45455148,270,13.680443,3,319,-0.066,2.188,9.009,0
277,35.21117304,-97.45470268,269.9,13.730003,3,319,-0.282,2.202,9.603,0
278,35.21117288,-97.45484938,270.1,13.720015,3,319,-0.144,2.384,9.626,0
279,35.21117224,-97.45500631,270.1,13.711054,3,320,-0.084,2.695,9.365,0
280,35.21117289,-97.45516051,270.5,14.032409,3,320,-0.036,2.354,9.22,0
281,35.21117405,-97.45531143,270.4,14.224813,3,320,-0.123,2.434,10.093,0
282,35.2111746,-97.4554697,270.3,14.334033,3,320,-0.164,2.508,10.023,0
283,35.21117665,-97.45562234,270.2,14.396726,3,320,-0.038,2.622,9.413,0
284,35.21117633,-97.45578733,270.2,14.425273,3,320,-0.31,2.483,9.622,0
285,35.21117877,-97.4559467,270.5,14.533524,3,321,-0.104,2.41,8.437,0
286,35.21117908,-97.4561023,270.6,14.551374,3,321,-0.311,2.388,9.636,0
287,35.2111796,-97.45627036,270.5,14.750488,3,321,-0.284,2.058,9.953,0
288,35.21117984,-97.45642715,270.2,14.7900305,3,321,-0.313,1.713,9.962,0
289,35.211181,-97.45658817,270.1,14.410056,3,321,-0.06,1.941,9.387,0
290,35.21118076,-97.45674325,269.8,14.120173,3,321,-0.04,1.778,9.12,0
291,35.21118215,-97.45689636,270.1,13.690295,3,320,0.119,1.719,9.775,0
292,35.21118135,-97.45704375,270.5,13.290738,3,321,-0.173,1.756,9.898,0
293,35.21118056,-97.45718742,270.3,12.860995,3,320,0.049,1.715,9.987,0
294,35.21118064,-97.45746019,270.2,12.021202,3,320,-0.016,1.698,9.613,0
296,35.21118166,-97.45759049,270.6,11.640619,3,320,0.002,1.702,10.128,0
297,35.21118275,-97.45771183,270.7,11.19054,3,320,0.026,1.746,9.327,0
298,35.21118535,-97.45783132,270.8,10.760018,3,321,-0.023,1.706,9.439,0
299,35.21118701,-97.45794405,270.7,10.52002,3,321,-0.317,1.857,9.629,0
300,35.21118715,-97.45805901,269.3,10.070004,3,320,-0.227,1.718,9.789,0
301,35.21118486,-97.45816833,268.1,9.720047,3,321,-0.301,1.672,9.624,0
302,35.21118124,-97.45826854,267,9.170049,3,321,0.03,0.586,9.972,0
303,35.21117782,-97.45835881,266.8,7.6300263,3,321,0.059,0.356,9.638,0
304,35.21117497,-97.45842876,266.8,5.92,3,321,0.159,0.146,9.68,0
305,35.21117292,-97.45847729,268.7,3.9700127,3,321,0.083,0.487,9.791,0
306,35.21117238,-97.45850901,269.5,2.3500211,3,321,0.123,1.316,9.605,1
307,35.21117178,-97.45852755,269.9,1.3800362,3,322,0.031,2.22,9.589,1
308,35.21117096,-97.45854484,270,1.401285,3,322,0.049,2.362,9.495,1
309,35.21117092,-97.45856203,270.1,1.5526106,3,322,-0.041,2.374,9.655,0
310,35.21117119,-97.45858144,270.2,1.8709623,3,322,-0.014,3.763,9.288,0
311,35.21117025,-97.45861334,270.2,3.1105785,3,322,0.181,3.595,9.363,0
312,35.21117135,-97.45865676,270.5,4.4204073,3,322,0.133,3.187,9.381,0
313,35.21117219,-97.4587127,270.8,5.410231,3,322,-0.103,2.987,9.269,0
314,35.21117275,-97.4587759,271.1,6.210129,3,322,-0.145,2.243,9.715,0
315,35.21117135,-97.45884621,269.6,6.4204984,3,322,-0.839,1.826,9.183,0
316,35.21116149,-97.45891786,258.4,6.453418,3,322,-3.427,2.542,9.805,0
317,35.21113298,-97.45897541,235,6.7400293,3,322,-3.403,1.851,9.638,0
318,35.21108246,-97.4590132,206.1,6.83,3,322,-1.412,2.574,9.526,0
319,35.21102,-97.45902902,187.7,7.410168,3,322,-0.643,2.467,10.084,0
320,35.21094581,-97.45903412,181.9,8.170098,3,322,0.144,2.49,9.732,0
321,35.21086871,-97.45903353,178.8,8.670052,3,322,0.111,2.813,9.502,0
322,35.21078988,-97.4590293,177.6,9.250021,3,322,-0.404,2.725,9.957,0
323,35.21070259,-97.45902396,176.8,9.820509,3,322,-0.253,2.634,8.812,0
324,35.21061068,-97.45901823,175.9,10.32031,3,323,0.15,2.477,9.807,0
325,35.21051736,-97.45900969,177.4,10.67,3,322,0.166,2.771,9.604,0
326,35.21041785,-97.45900619,179,11.18,3,322,0.076,2.705,9.09,0
327,35.21031301,-97.45900438,179.6,11.730345,3,322,-0.228,2.461,8.864,0
328,35.21020509,-97.45900347,180,12.01,3,322,-0.07,2.492,9.685,0
329,35.21009776,-97.45900325,180,12.350004,3,323,0.01,2.65,9.083,0
330,35.20998377,-97.45900233,179.7,12.69,3,323,-0.242,2.578,9.495,0
331,35.20986686,-97.45900209,179.9,13.000034,3,323,0.029,2.322,9.866,0
332,35.20974817,-97.45900227,180.1,13.13,3,323,-0.005,2.204,9.512,0
333,35.20962857,-97.45900203,180,13.190003,3,323,0.038,2.177,9.569,0
334,35.20951235,-97.45900156,179.9,13.250034,3,323,-0.023,2.203,9.259,0
335,35.20938753,-97.45900157,179.8,13.360033,3,323,-0.146,2.379,9.827,0
336,35.20926984,-97.4590013,179.8,13.400003,3,323,-0.305,2.265,9.542,0
337,35.20914804,-97.45900079,180,13.430182,3,323,-0.234,2.309,9.629,0
338,35.20902568,-97.45900044,179.9,13.520133,3,323,-0.144,2.292,9.352,0
339,35.2089057,-97.45900056,180.1,13.560093,3,323,-0.139,2.509,9.554,0
340,35.20878217,-97.45900091,179.9,13.64,3,324,0.039,2.473,9.659,0
341,35.20865521,-97.45899962,179.6,14.070031,3,324,-0.159,1.752,8.863,0
342,35.20852806,-97.45899872,179.6,13.980128,3,324,-0.055,2.444,9.586,0
343,35.20840147,-97.4589969,179.6,13.890015,3,324,-0.134,2.187,9.75,0
344,35.2082731,-97.4589959,179.6,14.140032,3,324,0.063,2.29,9.117,0
345,35.20814925,-97.45899605,179.7,14.140173,3,324,-0.051,2.596,10.077,0
346,35.20802061,-97.45899545,179.9,14.210056,3,324,-0.343,2.899,9.54,0
347,35.20788763,-97.45899578,180,14.820013,3,324,-0.046,2.219,9.428,0
348,35.20774706,-97.45899562,179.9,15.180161,3,324,0.14,2.455,10.029,0
349,35.20761221,-97.45899625,180,15.15033,3,324,-0.076,2.206,9.576,0
350,35.20747838,-97.45899609,180.1,15.250266,3,325,-0.151,2.265,9.556,0
351,35.20733513,-97.45899623,180.1,15.310118,3,325,-0.14,2.186,10.061,0
352,35.20719706,-97.45899587,180,15.3,3,324,-0.068,1.791,9.39,0
353,35.20693067,-97.45899606,179.8,14.8200035,3,324,0.17,2.285,9.712,0
355,35.20679404,-97.45899585,179.8,15.010054,3,324,0.145,2.197,9.768,0
356,35.20665981,-97.45899626,180,14.870659,3,324,-0.102,2.286,9.36,0
357,35.20652448,-97.45899589,180,15.010853,3,324,-0.579,2.414,8.701,0
358,35.20639302,-97.45899557,179.9,14.940656,3,324,0.035,2.037,8.814,0
359,35.20625431,-97.45899684,180.3,14.690667,3,325,0.022,1.111,10.067,0
360,35.2061318,-97.45899728,180.2,13.620091,3,325,-0.087,0.864,9.392,0
361,35.20601513,-97.45899711,180,12.460145,3,325,-0.191,1.592,9.61,0
362,35.20590382,-97.45899655,179.7,12.103719,3,324,-0.183,1.827,9.983,0
363,35.20579826,-97.45899522,179.5,11.91544,3,324,0.459,0.958,10.241,0
364,35.20569304,-97.45899468,179.7,10.918081,3,324,0.052,0.717,9.941,0
365,35.20560359,-97.45899408,179.7,9.785908,3,324,0.391,0.835,9.313,0
366,35.20552017,-97.45899566,180.5,8.846926,3,324,-0.127,0.796,9.403,0
367,35.20544182,-97.45899544,180,8.136695,3,324,-0.05,1.134,9.491,0
368,35.20537449,-97.45899544,179.7,7.336552,3,323,0.173,0.899,9.564,0
369,35.20531241,-97.45899345,179.9,6.585537,3,323,0.185,1.141,9.584,0
370,35.20525723,-97.45899278,180.3,6.096901,3,323,0.185,0.632,9.552,0
371,35.20520754,-97.45899364,180.4,4.953645,3,323,-0.017,0.651,9.787,0
372,35.20516799,-97.45899474,180.3,3.7213438,3,323,0.059,0.503,9.66,1
373,35.20514234,-97.45899421,180.2,2.4712954,3,323,0.039,0.99,9.519,0
374,35.20512472,-97.45899364,180.1,1.6119864,3,323,0.138,1.242,9.661,1
375,35.20511215,-97.45899378,180,1.1011358,3,323,0.054,0.877,9.778,1
376,35.20511215,-97.45899378,180,1.1011358,3,323,-0.023,1.385,9.71,1
377,35.20511215,-97.45899378,180,1.1011358,3,323,-0.005,1.817,9.586,1
378,35.20511215,-97.45899378,180,1.1011358,3,323,-0.002,1.776,9.615,1
379,35.20511215,-97.45899378,180,1.1011358,3,323,0.003,1.762,9.635,1
380,35.20511215,-97.45899378,180,1.1011358,3,323,-0.003,1.774,9.605,1
381,35.20511215,-97.45899378,180,1.1011358,3,323,-0.003,1.78,9.65,1
382,35.20511215,-97.45899378,180,1.1011358,3,323,-0.002,1.772,9.65,1
383,35.20511215,-97.45899378,180,1.1011358,3,323,-0.007,1.777,9.652,1
384,35.20511215,-97.45899378,180,1.1011358,3,323,-0.02,1.78,9.606,1
385,35.20511215,-97.45899378,180,1.1011358,3,323,-0.012,1.787,9.626,1
386,35.20511215,-97.45899378,180,1.1011358,3,323,-0.044,2.277,9.583,1
387,35.20510241,-97.45899202,179.9,0.26019225,3,324,0.014,1.706,9.672,1
388,35.20510241,-97.45899202,179.9,0.26019225,3,324,-0.024,1.975,9.652,1
389,35.20510241,-97.45899202,179.9,0.26019225,3,324,-0.014,1.973,9.659,1
390,35.20510241,-97.45899202,179.9,0.26019225,3,324,0.04,1.79,9.674,1
391,35.20510241,-97.45899202,179.9,0.26019225,3,324,0.047,1.758,9.607,1
392,35.20509348,-97.45898773,0,0.01,3,324,0.061,1.77,9.612,1
393,35.20509348,-97.45898773,0,0.01,3,324,0.031,1.784,9.632,1
394,35.20509348,-97.45898773,0,0.01,3,324,0.031,1.812,9.591,1
395,35.20509348,-97.45898773,0,0.01,3,324,0.029,1.8,9.604,1
396,35.20509348,-97.45898773,0,0.01,3,324,0.014,1.806,9.59,1
397,35.20509348,-97.45898773,0,0.01,3,324,0.027,1.805,9.628,1
398,35.20509348,-97.45898773,0,0.01,3,324,0.034,1.778,9.661,1
399,35.20509348,-97.45898773,0,0.01,3,324,0.026,1.801,9.599,1
400,35.20509348,-97.45898773,0,0.01,3,324,0.034,2.306,9.514,1
401,35.20509348,-97.45898773,0,0.01,3,324,-0.02,2.52,9.565,1
402,35.20509348,-97.45898773,0,0.01,3,324,0.038,2.358,9.464,0
403,35.20507829,-97.45898721,179.5,1.2601587,3,324,0.018,2.295,9.678,0
404,35.20506403,-97.45898687,179.5,1.8,3,324,0.082,2.977,9.328,0
405,35.20504304,-97.45898747,179.5,2.3400214,3,324,0.322,2.116,9.397,0
406,35.20501469,-97.45898604,179.7,3.350537,3,324,0.061,2.099,9.763,0
407,35.20498011,-97.45898665,180,4.0210075,3,324,-0.173,3.137,9.678,0
408,35.20493804,-97.45898774,180.5,4.9408197,3,324,-0.053,2.952,9.612,0
409,35.20488814,-97.45898801,180.6,6.0306716,3,324,0.001,3.212,9.141,0
410,35.20482625,-97.4589907,182.3,7.2309957,3,324,0.123,2.933,9.46,0
411,35.20475906,-97.45899597,183.8,7.96076,3,324,0.262,2.128,9.706,0
412,35.20468163,-97.45900216,184.1,8.400481,3,324,-0.228,1.994,10.224,0
413,35.20460577,-97.45900934,184.5,8.390149,3,324,-0.495,1.134,10.224,0
414,35.20446467,-97.45902037,182.6,7.41,3,324,-0.508,1.665,8.703,0
415,35.2044007,-97.4590217,181,7.2,3,324,-0.656,1.51,10.386,0
416,35.20433587,-97.45902232,180.2,7.030029,3,324,-0.213,1.923,9.41,0
418,35.20427299,-97.45902256,180,6.8400073,3,324,-0.366,2.024,9.799,0
419,35.20421349,-97.45902262,179.5,6.6501203,3,324,-0.273,1.942,9.773,0
420,35.20415193,-97.45902213,179.2,6.48,3,324,-0.21,1.909,9.83,0
421,35.20409601,-97.45902273,180.7,6.250008,3,324,1.214,1.765,9.681,0
422,35.2040428,-97.45903776,195.8,5.84,3,324,2.933,1.591,10.115,0
423,35.20400301,-97.45907618,222.2,5.56,3,324,2.692,3.251,9.051,0
424,35.20398119,-97.45913657,248.1,6.7206025,3,324,1.386,3.825,9.108,0
425,35.20396527,-97.45922003,260.8,8.1001,3,324,1.016,3.509,8.974,0
426,35.20395899,-97.45931436,267,9.410192,3,324,0.13,3.289,9.612,0
427,35.2039567,-97.4594252,269,10.59017,3,324,-0.02,3.159,9.61,0
428,35.2039559,-97.45955335,269.6,11.780152,3,324,-0.088,3.541,9.5,0
429,35.20395485,-97.4596873,269.5,13.060035,3,324,-0.151,3.108,9.902,0
430,35.20395474,-97.45983675,269.9,13.960004,3,324,0.034,2.971,9.795,0
431,35.20395618,-97.45999546,270.9,14.800122,3,324,0.511,3.054,9.905,0
432,35.20396223,-97.4601644,273.1,15.680029,3,323,0.179,2.938,9.892,0
433,35.20397027,-97.46033658,273.1,16.44,3,323,-0.118,2.866,9.719,0
434,35.20397956,-97.46052157,272.6,16.800074,3,323,-0.68,2.434,9.856,0
435,35.20398506,-97.46070944,271.2,17.060045,3,322,-0.298,2.559,9.363,0
436,35.2039881,-97.46090003,270.6,17.190187,3,322,-0.425,1.86,9.548,0
437,35.20398885,-97.46108995,270.5,16.960356,3,322,-0.18,1.644,8.972,0
438,35.20398952,-97.46126901,270.3,16.6403,3,322,-0.029,1.555,9.2,0
439,35.20398939,-97.46145486,270.1,16.280151,3,322,-0.266,1.795,9.756,0
440,35.2039895,-97.46162622,270.1,15.930029,3,322,-0.093,2.041,9.403,0
441,35.20399012,-97.46180078,270.3,15.740003,3,322,-0.244,2.152,9.505,0
442,35.2039907,-97.46196892,270.3,15.730012,3,322,-0.344,2.244,9.866,0
443,35.20399105,-97.46214257,270.2,15.720051,3,322,-0.023,2.134,9.719,0
444,35.20399132,-97.46232159,270.1,15.73,3,322,-0.363,2.207,9.676,0
445,35.20399124,-97.46248971,270,15.730028,3,322,-0.116,2.141,9.795,0
446,35.20399169,-97.46266364,270.1,15.74005,3,322,-0.084,2.168,9.294,0
447,35.20399303,-97.46283706,270.4,15.780256,3,322,-0.35,2.102,9.35,0
448,35.20399448,-97.4630122,270.2,15.790155,3,322,-0.372,2.067,9.858,0
449,35.20399471,-97.46318614,269.8,15.720051,3,322,-0.325,2.377,11.474,0
450,35.20399484,-97.46335367,269.8,15.650012,3,322,-0.191,2.128,9.639,0
451,35.20399505,-97.4635242,270.2,15.560052,3,322,-0.1,2.129,9.596,0
452,35.20399492,-97.46370089,270,15.500081,3,322,-0.191,1.853,9.75,0
453,35.20399505,-97.46386424,270.1,15.240052,3,322,-0.349,2.264,9.893,0
454,35.20399483,-97.46403334,270.2,15.270082,3,322,-0.146,2.411,9.645,0
455,35.20399422,-97.4642038,270.2,15.530206,3,322,-0.205,2.429,9.439,0
456,35.20399488,-97.46437602,270.2,15.700012,3,322,-0.089,2.333,10.168,0
457,35.203995,-97.46455065,270.2,15.85,3,322,-0.172,2.364,9.742,0
458,35.20399518,-97.46472116,270.2,16.100079,3,322,-0.131,2.255,9.469,0
459,35.20399554,-97.46489988,270.1,16.270197,3,322,-0.281,1.831,9.902,0
460,35.20399564,-97.46507761,270.1,16.0502,3,322,-0.195,1.808,9.815,0
461,35.20399533,-97.46525165,269.9,15.720203,3,322,-0.146,1.795,9.497,0
462,35.20399498,-97.4654176,270,15.39,3,322,-0.225,2.183,9.492,0
463,35.20399472,-97.4655911,270,15.260053,3,322,-0.22,1.776,9.621,0
464,35.20399469,-97.4657568,270,14.940164,3,322,-0.066,1.9,9.757,0
465,35.20399461,-97.46591342,270.1,14.530169,3,322,-0.286,1.754,9.936,0
466,35.20399449,-97.46607064,270.1,14.140057,3,322,-0.086,1.781,9.171,0
467,35.20399426,-97.46621815,270.1,13.730058,3,322,0.057,1.819,9.625,0
468,35.20399455,-97.46637236,270,13.390004,3,322,-0.044,1.77,9.673,0
469,35.20399512,-97.46651789,270.1,13.0500345,3,322,-0.149,1.726,9.798,0
470,35.20399543,-97.46665562,270.1,12.730192,3,322,-0.025,0.542,9.97,0
471,35.20399585,-97.46679522,270.1,11.860017,3,322,-0.205,0.878,9.919,0
472,35.20399578,-97.46691391,270.1,10.540043,3,322,-0.301,0.763,9.598,0
473,35.20399554,-97.46702164,270.1,9.240021,3,322,-0.203,1.396,9.644,0
474,35.20399602,-97.46711534,269.9,7.9600253,3,322,0.004,1.666,9.577,0
475,35.20399667,-97.46719778,269.8,7.3900065,3,322,-0.099,0.702,9.839,1
476,35.2039965,-97.46727636,269.8,6.4700074,3,322,0.024,0.995,9.35,0
477,35.20399616,-97.46733813,270,5.3300095,3,322,-0.148,0.992,9.705,0
478,35.20399619,-97.4673896,270.1,4.220047,3,322,-0.142,1.194,9.714,1
479,35.2039971,-97.46745778,270.5,2.2203603,3,322,-0.217,1.423,9.628,1
481,35.20399689,-97.46747751,270.5,1.4105673,3,322,-0.236,1.279,9.755,1
482,35.20399689,-97.46747751,270.5,1.4105673,3,322,-0.179,1.234,9.565,1
483,35.20399706,-97.46749045,0,0.04,3,322,-0.225,2.195,9.546,1
484,35.20399706,-97.46749045,0,0.04,3,322,-0.202,2.132,9.564,1
485,35.20399706,-97.46749045,0,0.04,3,322,-0.223,2.115,9.592,1
486,35.20399706,-97.46749045,0,0.04,3,322,-0.218,2.14,9.589,1
487,35.20399706,-97.46749045,0,0.04,3,322,-0.214,2.146,9.642,1
488,35.20399706,-97.46749045,0,0.04,3,322,-0.232,2.153,9.634,1
489,35.20399706,-97.46749045,0,0.04,3,322,-0.243,2.154,9.603,1
490,35.20399706,-97.46749045,0,0.04,3,322,-0.218,2.159,9.592,1
491,35.20399706,-97.46749045,0,0.04,3,322,-0.245,2.166,9.581,1
492,35.20399706,-97.46749045,0,0.04,3,322,-0.227,2.17,9.596,1
493,35.20399706,-97.46749045,0,0.04,3,322,-0.255,2.151,9.621,1
494,35.20399706,-97.46749045,0,0.04,3,322,-0.219,2.148,9.597,1
495,35.20399706,-97.46749045,0,0.04,3,322,-0.25,2.134,9.637,1
496,35.20399706,-97.46749045,0,0.04,3,322,-0.226,2.152,9.564,1
497,35.20399706,-97.46749045,0,0.04,3,322,-0.22,2.168,9.54,1
498,35.20399706,-97.46749045,0,0.04,3,322,-0.236,2.159,9.547,1
499,35.20399706,-97.46749045,0,0.04,3,322,-0.233,2.155,9.587,1
500,35.20399706,-97.46749045,0,0.04,3,322,-0.239,2.143,9.584,1
501,35.20399706,-97.46749045,0,0.04,3,322,-0.224,2.167,9.544,1
502,35.20399706,-97.46749045,0,0.04,3,322,-0.241,2.156,9.587,1
503,35.20399706,-97.46749045,0,0.04,3,322,-0.217,2.167,9.597,1
504,35.20399706,-97.46749045,0,0.04,3,322,-0.245,2.159,9.615,1
505,35.20399706,-97.46749045,0,0.04,3,322,-0.215,2.157,9.594,1
506,35.20399706,-97.46749045,0,0.04,3,322,-0.241,2.161,9.599,1
507,35.20399706,-97.46749045,0,0.04,3,322,-0.239,2.138,9.616,1
508,35.20399706,-97.46749045,0,0.04,3,322,-0.25,2.167,9.582,1
509,35.20399706,-97.46749045,0,0.04,3,322,-0.232,2.152,9.585,1
510,35.20399706,-97.46749045,0,0.04,3,322,-0.24,2.157,9.617,1
511,35.20399706,-97.46749045,0,0.04,3,322,-0.239,2.138,9.622,1
512,35.20399706,-97.46749045,0,0.04,3,322,-0.232,2.155,9.611,1
513,35.20399706,-97.46749045,0,0.04,3,322,-0.225,2.168,9.582,1
514,35.20399706,-97.46749045,0,0.04,3,322,-0.244,2.145,9.62,1
515,35.20399706,-97.46749045,0,0.04,3,322,-0.216,2.147,9.621,1
516,35.20399706,-97.46749045,0,0.04,3,322,-0.24,2.164,9.6,1
517,35.20399706,-97.46749045,0,0.04,3,322,-0.209,2.169,9.61,1
518,35.20399706,-97.46749045,0,0.04,3,322,-0.245,2.151,9.515,1
519,35.20399706,-97.46749045,0,0.04,3,322,-0.2,2.162,9.585,1
520,35.20399706,-97.46749045,0,0.04,3,322,-0.231,2.159,9.577,1
521,35.20399706,-97.46749045,0,0.04,3,322,-0.21,2.169,9.596,1
522,35.20399706,-97.46749045,0,0.04,3,322,-0.247,2.171,9.571,1
523,35.20399706,-97.46749045,0,0.04,3,322,-0.227,2.159,9.548,1
524,35.20399706,-97.46749045,0,0.04,3,322,-0.235,2.159,9.554,1
525,35.20399706,-97.46749045,0,0.04,3,322,-0.222,2.181,9.542,1
526,35.20399706,-97.46749045,0,0.04,3,322,-0.23,2.146,9.626,1
527,35.20399706,-97.46749045,0,0.04,3,322,-0.214,2.179,9.546,1
528,35.20399706,-97.46749045,0,0.04,3,322,-0.226,2.153,9.614,1
529,35.20399706,-97.46749045,0,0.04,3,322,-0.214,2.167,9.557,1
530,35.20399706,-97.46749045,0,0.04,3,322,-0.231,2.164,9.586,1
531,35.20399706,-97.46749045,0,0.04,3,322,-0.221,2.172,9.554,1
532,35.20399706,-97.46749045,0,0.04,3,322,-0.241,2.158,9.55,1
533,35.20399706,-97.46749045,0,0.04,3,322,-0.225,2.155,9.59,1
534,35.20399706,-97.46749045,0,0.04,3,322,-0.228,2.167,9.579,1
535,35.20399706,-97.46749045,0,0.04,3,322,-0.236,2.154,9.616,1
536,35.20399706,-97.46749045,0,0.04,3,322,-0.248,2.165,9.557,1
537,35.20400415,-97.46748358,0,0.01,3,320,-0.211,2.163,9.577,1
538,35.20400415,-97.46748358,0,0.01,3,320,-0.231,2.16,9.554,1
539,35.20400415,-97.46748358,0,0.01,3,320,-0.239,2.153,9.628,1
540,35.20400415,-97.46748358,0,0.01,3,320,-0.238,2.161,9.556,1
542,35.20400415,-97.46748358,0,0.01,3,320,-0.225,2.161,9.584,1
543,35.20400415,-97.46748358,0,0.01,3,320,-0.231,2.413,9.519,1
544,35.20400415,-97.46748358,0,0.01,3,320,-0.28,2.595,9.676,0
545,35.20400415,-97.46748358,0,0.01,3,320,-0.282,4.044,9.369,0
546,35.20400755,-97.46751351,270.6,2.5900772,3,320,-0.293,3.935,9.299,0
547,35.20400827,-97.46755279,270.6,4.240106,3,320,-0.328,4.062,9.292,0
548,35.20400867,-97.46761261,270.5,5.8600087,3,320,-0.088,3.533,9.431,0
549,35.20400991,-97.46768645,270.5,7.080254,3,320,-0.297,3.369,9.142,0
550,35.20401056,-97.46776983,270.5,8.170024,3,320,-0.5,3.469,9.383,0
551,35.20401113,-97.46786895,270.5,9.050138,3,320,-0.614,2.926,8.84,0
552,35.20401201,-97.46797055,270.3,9.640083,3,320,-0.378,2.711,9.522,0
553,35.20401151,-97.46807972,270,10.1100445,3,320,-0.212,2.641,9.586,0
554,35.20401289,-97.46819075,269.9,10.570075,3,319,-0.332,2.61,9.2,0
555,35.20401424,-97.46831032,269.9,10.990369,3,319,-0.327,2.619,9.402,0
556,35.20401421,-97.46843796,269.8,11.430281,3,319,-0.334,2.628,9.277,0
557,35.20401408,-97.46856396,269.7,11.950205,3,319,-0.147,3.1,9.258,0
558,35.20401484,-97.46870255,270.1,12.790661,3,319,-0.277,2.548,9.916,0
559,35.20401554,-97.46884778,270.1,13.270242,3,319,-0.347,2.361,9.671,0
560,35.20401649,-97.46899581,270.1,13.460033,3,319,-0.441,2.246,9.523,0
561,35.20401505,-97.46914562,270.2,13.650443,3,319,-0.21,2.378,9.707,0
562,35.20401575,-97.46929268,270.3,13.870292,3,319,-0.206,2.346,9.198,0
563,35.20401727,-97.46944836,270.3,14.150226,3,319,-0.319,2.329,9.467,0
564,35.20401895,-97.46960711,270.3,14.410347,3,318,-0.522,2.195,9.523,0
565,35.20401955,-97.46976726,270.3,14.46,3,318,-0.145,2.174,10.189,0
566,35.20402029,-97.46992672,270.2,14.480013,3,318,-0.538,2.221,9.255,0
567,35.20402252,-97.47008828,270.3,14.600014,3,318,-0.08,2.564,9.727,0
568,35.20402362,-97.47025193,270.2,14.93,3,318,-0.354,2.514,9.051,0
569,35.20402403,-97.47041362,270,15.23,3,318,-0.135,2.524,9.276,0
570,35.20402303,-97.47058351,270,15.530261,3,318,-0.548,2.14,9.991,0
571,35.20402233,-97.47074926,269.9,15.411051,3,318,-0.064,2.137,9.801,0
572,35.20402204,-97.47092461,269.9,15.320326,3,318,-0.363,2.289,9.615,0
573,35.20402192,-97.47109519,269.8,15.440323,3,318,-0.194,2.39,9.682,0
574,35.20402172,-97.47126234,269.7,15.650459,3,318,0.037,2.576,9.573,0
575,35.20402146,-97.47144413,269.9,16.080004,3,318,-0.442,2.182,9.714,0
576,35.2040213,-97.47161752,270,16.200153,3,318,-0.249,2.147,9.376,0
577,35.20402272,-97.47179624,270,16.110111,3,317,-0.136,2.28,9.801,0
578,35.20402376,-97.47197562,270.1,16.220198,3,317,-0.2,2.67,9.343,0
579,35.20402415,-97.47215067,270.1,16.610027,3,317,-0.34,2.398,10.193,0
580,35.20402461,-97.47234218,270,16.940012,3,317,-0.377,2.155,9.704,0
581,35.20402676,-97.47252515,270.2,17.070293,3,317,-0.203,1.782,9.581,0
582,35.20402763,-97.47271111,270.4,16.770584,3,317,-0.282,1.88,9.649,0
583,35.20402861,-97.47290126,270.5,16.60077,3,317,-0.396,2.441,9.217,0
584,35.20402965,-97.47308134,270,16.910425,3,317,-0.262,1.837,10.315,0
585,35.20403012,-97.47326271,269.9,16.73019,3,317,-0.396,1.734,9.495,0
586,35.20403074,-97.47344449,269.7,16.370077,3,317,-0.142,2.091,9.315,0
587,35.20403111,-97.47362348,269.8,16.000027,3,317,-0.371,1.869,9.263,0
588,35.2040329,-97.47379908,270.1,15.71,3,317,-0.456,1.89,8.987,0
589,35.20403266,-97.47397206,269.9,15.520081,3,317,-0.173,2.001,9.605,0
590,35.20403407,-97.47413753,270.1,15.39,3,317,-0.275,2.392,9.705,0
591,35.20403644,-97.47431331,270.3,15.370012,3,317,-0.225,2.394,9.677,0
592,35.20403619,-97.47448338,270.1,15.42,3,317,-0.356,2.193,9.011,0
593,35.20403671,-97.47464856,270,15.490029,3,317,-0.386,2.371,9.599,0
594,35.20403714,-97.47482013,269.9,15.760715,3,316,-0.338,2.064,9.07,0
595,35.20403855,-97.47499216,269.8,15.890255,3,316,-0.166,2.047,9.602,0
596,35.20403847,-97.47517154,270,15.660625,3,316,-0.165,2.212,9.937,0
597,35.20403993,-97.47534433,270.4,15.630205,3,316,-0.073,1.785,9.258,0
598,35.20404152,-97.47551225,270.4,15.77,3,315,0.094,-0.2,9.229,0
599,35.20404476,-97.47581866,271.1,11.9501505,3,315,0.209,0.006,9.989,0
600,35.20404715,-97.47593001,271.3,9.68013,3,315,0.28,-0.405,10.578,0
