time,lat,lng,bearing,spd,acc,alt,accx,accy,accz,stable,
0,35.211,-97.439,0,0,12,311,-0.309,7.676,8.48,0
1,35.21,-97.439,0,0.11,12,323,-3.372,7.959,5.834,0
2,35.211,-97.439,0,0,10,314,-0.853,7.51,7.592,0
3,35.211,-97.439,0,0,9,313,0.01,8.738,5.949,0
4,35.211,-97.439,0,0,9,313,1.832,9.579,0.083,0
6,35.211,-97.439,0,0,9,313,-0.339,10.488,-2.659,0
7,35.211,-97.439,0,0,9,313,-1.05,10.732,-1.481,0
8,35.211,-97.439,0,0,9,313,-0.992,10.773,-1.544,0
9,35.211,-97.439,0,0,9,313,-1.002,10.752,-1.588,0
10,35.211,-97.439,0,0,9,311,-0.998,10.758,-1.565,0
11,35.211,-97.439,0,0,9,311,-1.014,10.778,-1.608,0
12,35.211,-97.439,0,0,9,311,-0.999,10.749,-1.57,0
13,35.211,-97.439,0,0,9,311,-0.996,10.77,-1.591,0
14,35.211,-97.439,0,0,9,311,-0.758,10.791,-1.611,0
15,35.211,-97.439,0,0,9,311,0.552,10.859,-1.401,0
16,35.211,-97.439,355.1,1.4803,9,308,0.494,10.909,-1.509,0
17,35.211,-97.439,357.5,2.8809,9,309,0.326,10.876,-1.546,0
18,35.211,-97.439,359,4.1908,9,309,-0.082,10.933,-1.6,0
19,35.211,-97.439,357.7,5.23,9,308,-0.986,10.698,-1.465,0
20,35.211,-97.439,357.8,5.32,9,307,-1.224,10.75,-1.519,0
21,35.211,-97.439,358,5.13,9,307,-1.201,10.742,-1.486,0
22,35.211,-97.439,358.6,4.8905,9,307,-1.284,10.847,-1.327,0
23,35.211,-97.439,359.3,4.59,9,307,-1.213,10.949,-1.468,0
24,35.211,-97.439,0.4,4.32,9,307,-1.682,10.791,-1.426,0
25,35.211,-97.439,0.7,3.86,9,307,-1.645,10.706,-1.382,0
26,35.211,-97.439,1.5,2.6101,9,310,-0.489,10.896,-1.376,0
27,35.211,-97.439,0.8,3.21,9,310,-1.099,10.721,-1.325,0
28,35.211,-97.439,359.4,2.9501,9,310,-1.211,10.895,-1.224,0
29,35.211,-97.439,359.4,2.38,9,310,-1.939,10.818,-0.994,0
30,35.211,-97.439,0.7,1.9731,9,310,1.068,10.841,-0.412,0
31,35.211,-97.439,1.7,4.0321,9,310,-0.43,10.732,-3.656,0
33,35.211,-97.439,339.3,4.4916,9,310,-0.039,10.467,-4.438,0
34,35.211,-97.439,345.3,4.1708,9,311,1.344,10.527,-4.437,0
35,35.211,-97.439,329,4.2101,10,310,1.273,10.762,-2.296,0
36,35.211,-97.439,286.8,5.1104,10,311,0.657,10.82,-1.126,0
37,35.211,-97.439,277.6,6.88,11,311,-0.156,10.881,-0.997,0
38,35.211,-97.439,273.9,8.65,12,311,-0.281,10.915,-0.637,0
39,35.211,-97.439,270.9,12.73,11,310,-0.711,11.177,-1.213,0
40,35.211,-97.44,271,13.24,11,310,-1.187,10.611,-2.108,0
41,35.211,-97.44,271.4,13.02,11,310,-1.438,10.86,-1.144,0
42,35.211,-97.44,272.1,12.59,10,309,-1.547,10.833,-1.441,0
43,35.211,-97.44,272.6,11.98,10,310,-1.409,10.786,-1.028,0
44,35.211,-97.44,272.5,11.57,10,310,-1.678,10.715,-1.449,0
45,35.211,-97.44,272.2,11,10,307,-2.076,10.664,-1.611,0
46,35.211,-97.44,271.2,10.001,10,313,-1.96,10.548,-1.324,0
47,35.211,-97.441,274.1,9.8232,10,311,-1.622,10.639,-1.229,0
48,35.211,-97.441,274.9,9.1375,10,310,-1.907,10.613,-0.747,0
49,35.211,-97.441,271.6,6.84,10,309,-2.102,10.672,-1.498,0
50,35.211,-97.441,271.8,5.6507,10,308,-1.774,10.843,-1.174,0
51,35.211,-97.441,270.3,4.67,10,308,-1.913,10.728,-1.109,0
52,35.211,-97.441,270.2,3.9772,10,307,-1.798,10.798,-1.39,0
53,35.211,-97.441,269.9,2.8,10,306,-1.676,10.839,-1.388,0
54,35.211,-97.441,270.1,1.8322,10,305,-1.537,10.817,-1.045,0
55,35.211,-97.441,270.1,1.3793,9,305,-1.648,10.796,-1.209,0
56,35.211,-97.441,270.1,1.3793,9,305,-1.012,10.82,-1.118,0
57,35.211,-97.441,270.1,1.3793,9,305,-0.915,10.834,-1.254,0
58,35.211,-97.441,270.1,1.3793,9,305,-0.888,10.816,-1.188,0
59,35.211,-97.441,270.1,1.3793,9,305,-0.884,10.816,-1.154,0
60,35.211,-97.441,270.1,1.3793,9,305,-0.879,10.836,-1.222,0
61,35.211,-97.441,0,0,10,304,-0.871,10.848,-1.235,0
62,35.211,-97.441,0,0,10,304,-0.872,10.829,-1.212,0
63,35.211,-97.441,0,0,10,304,-0.884,10.84,-1.243,0
64,35.211,-97.441,0,0,10,304,-0.887,10.848,-1.227,0
65,35.211,-97.441,0,0,10,304,-0.884,10.838,-1.191,0
66,35.211,-97.441,0,0,10,304,-0.886,10.811,-1.199,0
68,35.211,-97.441,0,0,10,304,-0.884,10.843,-1.237,0
69,35.211,-97.441,0,0,10,304,-0.885,10.835,-1.205,0
70,35.211,-97.441,0,0,10,304,-0.892,10.812,-1.276,0
71,35.211,-97.441,0,0,10,304,-0.872,10.826,-1.199,0
72,35.211,-97.441,0,0,10,304,-0.869,10.845,-1.163,0
73,35.211,-97.441,0,0,10,304,-0.88,10.832,-1.246,0
74,35.211,-97.441,0,0,10,304,-0.884,10.846,-1.218,0
75,35.211,-97.441,0,0,10,304,-0.884,10.826,-1.249,0
76,35.211,-97.441,0,0,10,304,-0.881,10.844,-1.264,0
77,35.211,-97.441,0,0,10,304,-0.886,10.816,-1.267,0
78,35.211,-97.441,0,0,10,304,-0.869,10.831,-1.185,0
79,35.211,-97.441,0,0,10,304,-0.863,10.826,-1.176,0
80,35.211,-97.441,0,0,10,304,-0.884,10.829,-1.243,0
81,35.211,-97.441,0,0,10,304,-0.882,10.839,-1.249,0
82,35.211,-97.441,0,0,10,304,-0.895,10.848,-1.267,0
83,35.211,-97.441,0,0,10,304,-0.88,10.844,-1.202,0
84,35.211,-97.441,0,0,10,304,-0.876,10.826,-1.19,0
85,35.211,-97.441,0,0,10,304,-0.881,10.845,-1.198,0
86,35.211,-97.441,0,0,10,304,-0.879,10.828,-1.185,0
87,35.211,-97.441,0,0,10,304,-0.873,10.86,-1.19,0
88,35.211,-97.441,0,0,10,304,-0.883,10.815,-1.222,0
89,35.211,-97.441,0,0,10,304,-0.877,10.829,-1.248,0
90,35.211,-97.441,0,0,10,304,-0.889,10.831,-1.253,0
91,35.211,-97.441,0,0,10,304,-0.871,10.83,-1.199,0
92,35.211,-97.441,0,0,10,304,-0.879,10.838,-1.222,0
93,35.211,-97.441,0,0,10,304,-0.878,10.83,-1.229,0
94,35.211,-97.441,0,0,10,304,-0.875,10.817,-1.192,0
95,35.211,-97.441,0,0,10,304,-0.875,10.847,-1.2,0
96,35.211,-97.441,0,0,10,304,-0.877,10.821,-1.227,0
97,35.211,-97.441,0,0,10,304,-0.875,10.83,-1.184,0
98,35.211,-97.441,0,0,10,304,-0.871,10.827,-1.197,0
99,35.211,-97.441,0,0,10,304,-0.42,10.865,-1.102,0
100,35.211,-97.441,269.1,1.18,9,303,0.949,10.935,-1.192,0
101,35.211,-97.441,268.9,2.9804,9,304,0.885,10.95,-1.03,0
102,35.211,-97.441,266.9,4.4665,9,304,0.723,10.924,-1.333,0
103,35.211,-97.441,269.3,6.151,9,306,0.634,10.946,-1.421,0
104,35.211,-97.441,270,7.6605,9,307,0.525,10.641,-0.772,0
106,35.211,-97.441,270,8.85,9,311,0.252,10.946,-1.029,0
107,35.211,-97.441,270.4,9.9903,9,310,0.209,10.891,-1.122,0
108,35.211,-97.442,269.2,10.502,9,310,-0.026,11.074,-1.576,0
109,35.211,-97.442,270.5,11.91,9,309,0.028,11.162,-1.361,0
110,35.211,-97.442,269.1,12.56,9,309,-0.895,10.674,-1.07,0
111,35.211,-97.442,268.9,12.37,9,310,-1.122,10.901,-1.293,0
112,35.211,-97.442,268.9,11.95,9,310,-1.115,10.597,-0.594,0
113,35.211,-97.442,269.6,11.481,9,311,-1.152,10.922,-1.155,0
114,35.211,-97.442,268.6,10.89,10,312,-1.295,10.909,-0.802,0
115,35.211,-97.442,268.8,10.36,10,313,-1.546,10.823,-0.504,0
116,35.211,-97.443,268.3,9.85,10,313,-1.375,10.704,-0.829,0
117,35.211,-97.443,270.8,9.68,10,312,-1.464,10.762,-0.754,0
118,35.211,-97.443,269.8,8.8614,10,313,-1.303,11.043,-1.829,0
119,35.211,-97.443,270.8,8.23,10,313,-2.214,10.758,-1.342,0
120,35.211,-97.443,269.5,6.7707,10,313,-1.88,10.829,-1.131,0
121,35.211,-97.443,272.6,5.7109,10,313,-1.774,10.792,-1.074,0
122,35.211,-97.443,274.4,4.873,10,314,-1.555,10.803,-1.247,0
123,35.211,-97.443,276,4.32,10,313,-1.622,11.004,-1.305,0
124,35.211,-97.443,278.5,3.6809,10,311,-1.489,10.886,-1.417,0
125,35.211,-97.443,275.5,2.6509,10,312,-1.311,10.82,-1.252,0
126,35.211,-97.443,274,2.1702,10,312,-1.648,10.77,-1.27,0
127,35.211,-97.443,279.8,1.7242,10,311,-1.901,10.775,-1.204,0
128,35.211,-97.443,297.3,0.86313,10,311,-1.052,10.845,-1.201,0
129,35.211,-97.443,0,0,10,311,-0.884,10.835,-1.244,0
130,35.211,-97.443,0,0,10,311,-0.86,10.848,-1.224,0
131,35.211,-97.443,0,0,10,311,-0.861,10.829,-1.185,0
132,35.211,-97.443,0,0,10,311,-0.864,10.864,-1.252,0
133,35.211,-97.443,0,0,10,311,-0.859,10.833,-1.232,0
134,35.211,-97.443,0,0,10,311,-0.617,10.853,-1.117,0
135,35.211,-97.443,0,0,10,311,-0.608,10.854,-1.273,0
136,35.211,-97.443,0,0,10,312,-0.593,10.887,-1.175,0
137,35.211,-97.443,0,0,10,312,-0.465,10.883,-1.323,0
138,35.211,-97.443,264.8,0.85094,10,314,0.786,10.897,-1.091,0
139,35.211,-97.443,256.8,1.4279,10,315,0.571,10.898,-1.237,0
140,35.211,-97.443,270.6,4.3004,9,313,0.506,10.96,-1.133,0
141,35.211,-97.443,270.6,4.3004,9,313,-0.286,10.907,-1.219,0
142,35.211,-97.443,270.4,6.22,9,315,-0.323,10.814,-1.087,0
143,35.211,-97.444,270.1,7.01,9,316,-0.246,10.81,-1.147,0
144,35.211,-97.444,270.2,7.6302,9,317,-0.219,11.139,-1.531,0
145,35.211,-97.444,269.8,8.27,9,317,0.042,11.028,-1.287,0
146,35.211,-97.444,270.4,8.8701,9,316,-0.245,10.426,-0.288,0
147,35.211,-97.444,270.9,9.33,9,315,-0.132,10.824,-1.068,0
148,35.211,-97.444,270.5,9.9605,9,315,-0.185,10.802,-1.305,0
149,35.211,-97.444,270.4,10.47,9,313,-0.144,11.078,-1.231,0
150,35.211,-97.444,270.6,11.081,9,313,-0.301,10.82,-1.242,0
152,35.211,-97.444,270,11.4,9,313,-0.859,10.783,-1.131,0
153,35.211,-97.445,269.9,11.23,9,313,-0.745,10.951,-1.017,0
154,35.211,-97.445,270.2,11.35,9,313,-0.393,10.828,-1.906,0
155,35.211,-97.445,270.2,11.45,9,314,-0.797,10.763,-1.334,0
156,35.211,-97.445,270.1,11.3,9,315,-1.166,10.872,-1.026,0
157,35.211,-97.445,270.2,10.6,9,314,-1.575,10.846,-1.217,0
158,35.211,-97.445,270.4,9.55,9,314,-1.435,10.746,-1.275,0
159,35.211,-97.445,270.5,8.9408,9,314,-2.346,10.816,-1.402,0
160,35.211,-97.445,270.4,7.1303,9,314,-2.926,10.746,-1.26,0
161,35.211,-97.445,270.2,4.8402,9,315,-3.151,10.703,-1.227,0
162,35.211,-97.445,271.7,2.5428,9,315,-2.062,10.788,-1.08,0
163,35.211,-97.445,271.6,1.3106,9,315,-1.473,10.828,-1.179,0
164,35.211,-97.445,271.6,1.3106,9,315,-0.935,10.869,-1.221,0
165,35.211,-97.445,271.5,0.5009,9,315,-0.868,10.848,-1.262,0
166,35.211,-97.445,271.5,0.5009,9,315,-1.209,10.831,-1.233,0
167,35.211,-97.445,271.5,0.5009,9,315,-0.788,10.852,-1.261,0
168,35.211,-97.445,0,0,9,316,-0.536,10.859,-1.166,0
169,35.211,-97.445,0,0,9,316,-0.686,10.857,-1.207,0
170,35.211,-97.445,0,0,9,316,-0.511,10.874,-1.186,0
171,35.211,-97.445,0,0,9,316,0.51,10.927,-1.233,0
172,35.211,-97.445,0,0,9,316,0.617,10.891,-1.204,0
173,35.211,-97.445,0,0,9,316,1.391,10.869,-1.067,0
174,35.211,-97.446,272.8,3.7209,9,317,1.572,10.878,-1.319,0
175,35.211,-97.446,270.7,6.8111,9,317,0.921,11.142,-0.79,0
176,35.211,-97.446,269.9,8.8703,9,316,0.268,10.808,-0.977,0
177,35.211,-97.446,269.7,9.9406,9,315,-0.048,11.012,-1.467,0
178,35.211,-97.446,269.9,10.881,9,315,0.126,10.59,-1.179,0
179,35.211,-97.446,269.6,11.73,9,315,-0.011,10.653,-1.204,0
180,35.211,-97.446,269.5,12.54,9,315,0.039,10.554,-1.217,0
181,35.211,-97.446,269.7,13.42,9,316,-0.361,10.831,-1.156,0
182,35.211,-97.447,270.1,14.05,9,316,-0.477,10.521,-1.214,0
183,35.211,-97.447,270,14.45,9,317,-0.435,10.828,-1.065,0
184,35.211,-97.447,270,14.64,9,317,-0.802,10.789,-1.069,0
185,35.211,-97.447,269.9,14.76,9,316,-1.153,10.622,-1.08,0
186,35.211,-97.447,270.2,14.12,9,317,-1.259,10.839,-0.999,0
187,35.211,-97.447,270.2,13.77,9,318,-1.183,11.007,-1.126,0
188,35.211,-97.448,270.3,13.42,9,317,-1.231,10.705,-1.226,0
189,35.211,-97.448,270.1,13.02,9,318,-1.422,10.971,-1.689,0
190,35.211,-97.448,270,12.71,9,318,-0.78,10.7,-1.261,0
191,35.211,-97.448,269.7,12.8,9,319,-0.698,10.65,-0.603,0
192,35.211,-97.448,269.4,12.87,9,318,-0.687,10.92,-1.121,0
193,35.211,-97.448,269.2,12.72,9,319,-0.911,10.933,-1.251,0
194,35.211,-97.448,268.8,12.65,9,319,-0.747,10.869,-1.228,0
195,35.211,-97.449,268.6,12.76,9,323,-0.706,10.958,-1.028,0
197,35.211,-97.449,269.3,12.89,9,322,-1.746,10.769,-1.031,0
198,35.211,-97.449,270,11.87,9,322,-2.727,11.008,-1.159,0
199,35.211,-97.449,270.2,9.8806,9,321,-1.859,10.835,-1.279,0
200,35.211,-97.449,270.3,8.8902,9,320,-1.342,10.747,-1.033,0
201,35.211,-97.449,270.3,8.3801,9,319,-0.928,10.804,-1.133,0
202,35.211,-97.449,270,8.2707,9,319,-0.668,10.837,-0.94,0
203,35.211,-97.449,268.8,8.5704,9,317,-0.463,10.867,-1.116,0
204,35.211,-97.449,270.3,8.6603,9,316,-0.243,10.865,-0.968,0
205,35.211,-97.45,269.6,9.1207,9,316,-0.558,10.309,-0.686,0
206,35.211,-97.45,270,9.5,9,316,-0.329,10.714,-0.612,0
207,35.211,-97.45,270.8,9.6138,9,315,-0.717,10.795,-1.087,0
208,35.211,-97.45,270.1,9.9605,9,313,-0.518,10.795,-0.928,0
209,35.211,-97.45,270.3,10.17,9,313,-0.391,10.838,-0.827,0
210,35.211,-97.45,270.3,10.52,9,313,-0.729,10.876,-0.885,0
211,35.211,-97.45,270.5,10.64,9,313,-0.359,10.73,-0.872,0
212,35.211,-97.45,270.3,10.85,9,313,-0.388,10.934,-0.961,0
213,35.211,-97.451,270.2,11.31,9,313,-0.315,10.909,-1.065,0
214,35.211,-97.451,270.6,11.85,9,311,-0.63,10.769,-1.451,0
215,35.211,-97.451,270.1,12.07,9,311,-0.585,10.698,-1.129,0
216,35.211,-97.451,270,12.22,9,319,-2.18,11.536,-0.056,0
217,35.211,-97.451,269.8,12.46,9,317,-0.619,10.898,-0.881,0
218,35.211,-97.451,270,12.74,9,316,-0.34,10.929,-1.242,0
219,35.211,-97.451,270,12.91,9,315,-0.518,11.183,-1.59,0
220,35.211,-97.451,270.2,13.131,9,315,-0.252,10.838,-1.085,0
221,35.211,-97.452,270.1,13.56,9,314,-1.147,11.167,-0.924,0
222,35.211,-97.452,270,13.55,9,314,-0.676,10.74,-0.891,0
223,35.211,-97.452,269.9,13.53,9,313,-0.549,10.713,-1.465,0
224,35.211,-97.452,270.4,13.41,9,313,-0.567,10.773,-1.348,0
225,35.211,-97.452,269.5,13.68,9,312,-0.783,10.892,-1.113,0
226,35.211,-97.452,270.2,14,9,320,-1.273,10.727,-1.243,0
227,35.211,-97.452,270.2,13.953,9,317,-1.098,10.849,-1.501,0
228,35.211,-97.453,270.4,13.691,9,315,-1.048,10.749,-1.121,0
229,35.211,-97.453,270.3,13.61,9,314,-1.094,10.963,-1.403,0
230,35.211,-97.453,270.5,13.25,9,313,-1.124,11.083,-1.585,0
231,35.211,-97.453,270.4,13.19,9,313,-0.767,11.057,-1.25,0
232,35.211,-97.453,270.4,13.06,9,312,-0.713,10.742,-1.264,0
233,35.211,-97.453,269.5,13.07,9,312,-0.497,10.944,-1.044,0
234,35.211,-97.454,269.6,13.34,9,312,-0.473,10.875,-1.078,0
235,35.211,-97.454,270.1,13.693,9,311,-0.991,10.639,-1.681,0
236,35.211,-97.454,269.8,13.62,9,311,-0.826,10.721,-1.073,0
237,35.211,-97.454,270.7,13.971,10,312,-0.683,10.918,-1.179,0
238,35.211,-97.454,270.7,14.18,10,313,-0.657,11.087,-1.61,0
239,35.211,-97.454,269.8,14.392,10,313,-0.759,10.904,-1.455,0
240,35.211,-97.455,270.1,14.28,10,313,-0.796,11.095,-1.43,0
241,35.211,-97.455,270,14.62,9,314,-0.549,10.247,-0.877,0
242,35.211,-97.455,270.3,14.69,9,314,-0.537,10.77,-0.959,0
243,35.211,-97.455,270.7,14.59,9,315,-0.639,10.914,-0.983,0
244,35.211,-97.455,270.1,14.41,9,315,-1.16,10.983,-1.063,0
245,35.211,-97.455,269.8,13.672,9,316,-1.112,11.037,-0.997,0
247,35.211,-97.456,270.1,13.012,9,316,-0.728,11.16,-1.067,0
248,35.211,-97.456,270.5,12.77,10,316,-0.424,11.121,-1.52,0
249,35.211,-97.456,270.9,12.792,10,317,-0.257,10.634,-1.047,0
250,35.211,-97.456,271,12.84,10,318,-0.015,11.052,-1.402,0
251,35.211,-97.456,272.2,12.811,10,318,-0.011,10.595,-1.296,0
252,35.211,-97.456,271.7,13.26,11,318,0.023,10.864,-1.234,0
253,35.211,-97.456,272.7,13.321,10,318,-0.059,10.648,-1.463,0
254,35.211,-97.457,270,13.851,10,315,-0.186,10.744,-1.336,0
255,35.211,-97.457,269.6,14.31,11,315,-0.744,10.611,-1.108,0
256,35.211,-97.457,269.3,14.69,10,316,-0.955,10.806,-0.939,0
257,35.211,-97.457,269.8,14.4,10,316,-1.006,10.756,-0.756,0
258,35.211,-97.457,270.4,14.042,10,318,-0.801,10.933,-0.832,0
259,35.211,-97.457,270.9,13.82,10,317,-0.936,10.679,-0.994,0
260,35.211,-97.458,270.6,13.76,10,315,-0.814,10.866,-1.059,0
261,35.211,-97.458,270.8,13.12,10,316,-1.065,10.874,-1.256,0
262,35.211,-97.458,270.8,12.81,10,316,-0.7,10.781,-1.148,0
263,35.211,-97.458,270.3,12.72,9,318,-0.984,10.88,-1.344,0
264,35.211,-97.458,269.7,12.471,9,316,-1.121,10.842,-1.417,0
265,35.211,-97.458,267.6,12.381,10,317,-1.53,11.008,-1.167,0
266,35.211,-97.458,265.7,11.8,10,316,-2.311,10.799,-0.991,0
267,35.211,-97.458,263.1,11.05,10,316,-2.732,10.736,-1.127,0
268,35.211,-97.459,267.8,8.1103,10,317,-2.545,10.718,-0.823,0
269,35.211,-97.459,266.9,6.7805,10,316,-1.902,10.785,-0.907,0
270,35.211,-97.459,268.3,4.9608,10,316,-1.802,10.864,-1.027,0
271,35.211,-97.459,261.6,4.4109,11,315,-1.776,10.87,-1.142,0
272,35.211,-97.459,256,3.4701,11,315,-1.168,10.889,-0.629,0
273,35.211,-97.459,256,3.4701,11,315,-0.986,10.874,-0.8,0
274,35.211,-97.459,248.5,2.1161,11,315,-0.074,10.899,-0.593,0
275,35.211,-97.459,271.4,1.2902,10,315,1.767,10.918,-0.798,0
276,35.211,-97.459,271.9,3.3501,10,314,0.309,10.943,-0.903,0
277,35.211,-97.459,272.4,4.7215,10,313,-0.357,10.786,-1.462,0
278,35.211,-97.459,270.2,5.66,10,313,-0.324,11.164,-2.166,0
279,35.211,-97.459,263.7,5.6123,10,315,-0.914,10.643,-3.72,0
280,35.211,-97.459,250.7,6.3803,10,315,-0.606,10.463,-4.69,0
281,35.211,-97.459,222.9,6.6,9,314,0.188,10.624,-3.372,0
282,35.211,-97.459,216.8,6.3301,9,315,0.423,10.638,-1.284,0
283,35.211,-97.459,181,8.1802,9,316,0.407,11.065,-1.26,0
284,35.211,-97.459,180.3,8.0123,9,316,0.26,10.807,-0.864,0
285,35.211,-97.459,179.2,10.753,9,315,0.172,11.481,-1.328,0
286,35.211,-97.459,177.7,11.321,9,315,0.135,10.793,-0.985,0
287,35.21,-97.459,177.6,12.501,10,317,0.008,10.871,-0.314,0
288,35.21,-97.459,178.8,13.01,9,317,-0.083,10.845,-0.808,0
289,35.21,-97.459,180.4,13.66,9,317,-0.268,10.873,-1.285,0
290,35.21,-97.459,180.2,13.87,9,317,-0.471,10.843,-1.056,0
291,35.21,-97.459,179.2,14.051,9,317,-0.443,10.872,-0.707,0
292,35.21,-97.459,179.8,14.081,9,318,-0.711,10.941,-1.393,0
293,35.21,-97.459,180.3,14.28,9,318,-0.556,11.001,-1.24,0
294,35.21,-97.459,179.5,14.502,10,318,-0.938,10.717,-1.149,0
296,35.209,-97.459,178.7,14.27,10,318,-1.003,10.753,-1.055,0
297,35.209,-97.459,179,14.02,10,319,-0.611,11.039,-0.801,0
298,35.209,-97.459,179.6,13.78,10,319,-0.613,10.77,-0.926,0
299,35.209,-97.459,179.9,13.77,10,319,-0.57,10.878,-1.361,0
300,35.209,-97.459,180.3,13.85,10,319,-0.506,10.983,-1.063,0
301,35.209,-97.459,182,13.71,10,317,-0.63,10.969,-1.313,0
302,35.209,-97.459,181.6,13.62,10,316,-0.546,10.721,-1.509,0
303,35.209,-97.459,181.4,13.811,10,314,-0.581,10.747,-0.798,0
304,35.208,-97.459,180.6,14.06,10,314,-0.669,10.967,-1.057,0
305,35.208,-97.459,179.9,14.29,10,315,-0.626,10.927,-1.015,0
306,35.208,-97.459,180.5,14.37,10,315,-0.474,10.9,-1.246,0
307,35.208,-97.459,180.5,14.091,10,314,-0.605,10.852,-1.179,0
308,35.208,-97.459,180.4,14.74,10,314,-0.479,10.825,-1.054,0
309,35.208,-97.459,180.4,14.73,10,315,-0.494,10.819,-1.378,0
310,35.208,-97.459,180.8,15.18,11,314,-0.411,10.811,-0.982,0
311,35.208,-97.459,179.9,15.541,11,315,-0.646,10.891,-1.234,0
312,35.207,-97.459,179.7,15.33,11,315,-0.598,10.979,-1.272,0
313,35.207,-97.459,179.5,15.21,11,315,-0.574,10.601,-1.396,0
314,35.207,-97.459,180.5,15.08,11,316,-0.799,11.023,-1.432,0
315,35.207,-97.459,180.1,15.05,11,315,-0.61,11.042,-1.033,0
316,35.207,-97.459,181.9,14.8,10,314,-0.682,11.16,-0.921,0
317,35.207,-97.459,181,14.72,10,314,-0.533,11.025,-1.295,0
318,35.207,-97.459,180.8,14.94,10,314,-0.459,10.708,-1.166,0
319,35.206,-97.459,180.6,14.851,10,316,-0.311,10.938,-0.847,0
320,35.206,-97.459,180.1,15.21,11,316,-0.276,11.05,-1.323,0
321,35.206,-97.459,177.9,15.55,11,316,-0.944,10.74,-1.08,0
322,35.206,-97.459,178.6,15.28,11,315,-1.028,10.748,-1.095,0
323,35.206,-97.459,179.1,15.31,10,316,-0.91,10.972,-1.031,0
324,35.206,-97.459,178.8,15.241,10,315,-0.991,10.988,-1.052,0
325,35.206,-97.459,178,15.27,10,316,-1.966,10.769,-0.832,0
326,35.205,-97.459,180,14.98,11,315,-1.551,10.4,-0.875,0
327,35.205,-97.459,180.7,14.63,11,315,-2.427,10.944,-1.395,0
328,35.205,-97.459,178.2,12.811,12,317,-2.256,11.051,-1.285,0
329,35.205,-97.459,178.2,11.93,11,318,-2.362,11.024,-1.266,0
330,35.205,-97.459,178.1,11.35,11,317,-2.403,10.877,-1.298,0
331,35.205,-97.459,182.1,8.8903,11,316,-1.875,10.788,-0.592,0
332,35.205,-97.459,184.3,7.27,11,317,-1.88,10.751,-0.694,0
333,35.205,-97.459,188,7.62,11,316,-1.985,10.759,-0.852,0
334,35.205,-97.459,184,4.9702,10,315,-1.972,10.751,-0.695,0
335,35.205,-97.459,184.4,3.7501,9,314,-2.367,10.77,-0.93,0
336,35.205,-97.459,183.7,2.2608,10,314,-2.2,10.87,-1.249,0
337,35.205,-97.459,183.7,1.3601,10,314,-1.388,10.856,-0.523,0
338,35.205,-97.459,183.7,1.3601,10,314,-1.279,10.856,-0.946,0
339,35.205,-97.459,183.7,1.3601,10,314,-1.439,10.844,-1.045,0
340,35.205,-97.459,0,0.13,9,315,-0.949,10.85,-1.212,0
341,35.205,-97.459,0,0.13,9,315,-0.831,10.857,-1.006,0
342,35.205,-97.459,0,0,9,316,-0.846,10.868,-1.178,0
343,35.205,-97.459,0,0,9,316,-0.836,10.842,-1.136,0
344,35.205,-97.459,0,0,9,316,-0.827,10.861,-1.148,0
345,35.205,-97.459,0,0,9,317,-0.339,10.862,-1.041,0
347,35.205,-97.459,0,0,9,317,0.148,10.914,-1.186,0
348,35.205,-97.459,184.9,1.7201,9,318,1.038,10.778,-1.057,0
349,35.205,-97.459,190,3.0008,9,318,0.98,10.873,-1.399,0
350,35.205,-97.459,188.2,4.47,9,319,0.835,10.688,-1.266,0
351,35.204,-97.459,183.3,6.2101,9,320,0.761,10.874,-0.844,0
352,35.204,-97.459,183.1,7.03,10,320,-0.134,10.748,-0.621,0
353,35.204,-97.459,180.5,7.67,10,319,-0.224,11.244,-1.27,0
354,35.204,-97.459,179,8.06,10,318,-0.453,11.005,-0.934,0
355,35.204,-97.459,179.2,8.2302,9,318,-0.828,10.978,-1.034,0
356,35.204,-97.459,180.3,7.97,4,318,-1.564,10.132,1.303,0
357,35.204,-97.459,191.2,7.0601,3,317,-1.518,9.851,5.4,0
358,35.204,-97.459,202,6.88,4,317,-1.392,9.578,6.09,0
359,35.204,-97.459,254.3,6.9909,3,318,-0.214,10.232,3.879,0
360,35.204,-97.459,265.5,7.6101,3,318,0.142,10.312,2.318,0
361,35.204,-97.459,269.8,8.49,3,318,0.188,10.52,2.341,0
362,35.204,-97.459,269.8,9.44,3,318,0.142,10.564,2.283,0
363,35.204,-97.46,270.3,10.38,3,318,0.116,10.398,2.116,0
364,35.204,-97.46,270,11.27,3,319,-0.18,10.562,2.337,0
365,35.204,-97.46,269.8,11.94,3,318,-0.316,10.353,2.34,0
366,35.204,-97.46,269.9,12.49,3,318,-0.263,10.353,2.24,0
367,35.204,-97.46,270.2,13.04,3,318,-0.244,10.465,2.29,0
368,35.204,-97.46,269.8,13.48,3,318,-0.895,10.607,2.094,0
369,35.204,-97.46,269.7,13.57,3,318,-0.878,10.379,2.323,0
370,35.204,-97.461,269.9,13.26,3,318,-0.839,10.543,2.176,0
371,35.204,-97.461,269.9,13.23,3,318,-0.759,10.717,2.302,0
372,35.204,-97.461,269.9,13.05,3,317,-0.719,10.755,2.237,0
373,35.204,-97.461,270,13.15,3,317,-0.99,10.633,1.996,0
374,35.204,-97.461,270.1,13.05,3,317,-0.574,10.452,1.957,0
375,35.204,-97.461,270.3,12.94,3,317,-0.645,10.392,2.271,0
376,35.204,-97.461,270.3,13.14,3,318,-0.668,10.491,2.012,0
377,35.204,-97.462,270.3,13.27,3,317,-0.738,10.653,2.221,0
378,35.204,-97.462,270.3,13.42,3,317,-0.609,10.809,2.266,0
379,35.204,-97.462,270,13.47,3,317,-0.584,10.451,2.128,0
380,35.204,-97.462,269.8,13.47,3,317,-0.731,10.516,2.161,0
381,35.204,-97.462,269.9,13.33,3,317,-0.75,10.543,2.314,0
382,35.204,-97.462,269.9,13.35,3,316,-0.799,10.357,2.079,0
383,35.204,-97.462,270,13.31,3,316,-0.751,10.427,2.022,0
384,35.204,-97.463,270.2,13.44,3,315,-0.769,10.492,2.193,0
385,35.204,-97.463,270.4,13.42,3,315,-0.785,10.619,2.249,0
386,35.204,-97.463,270.5,13.45,3,314,-0.814,10.489,2.212,0
387,35.204,-97.463,270.4,13.45,3,314,-0.801,10.393,2.061,0
388,35.204,-97.463,270.1,13.43,3,314,-0.991,10.446,2.083,0
389,35.204,-97.464,270,13.38,3,314,-0.742,10.26,2.038,0
390,35.204,-97.464,270,13.24,3,313,-1.099,10.352,2.195,0
391,35.204,-97.464,269.9,12.72,3,313,-1.608,10.378,1.99,0
392,35.204,-97.464,270,11.81,3,313,-2.1,10.468,2.066,0
393,35.204,-97.464,270,10.4,3,314,-1.893,10.513,2.065,0
394,35.204,-97.464,270.2,9.48,3,314,-1.043,10.595,2.133,0
395,35.204,-97.464,270.2,9.5003,3,315,-0.16,10.191,2.086,0
396,35.204,-97.464,270.1,10.38,3,315,-0.029,10.556,2.346,0
397,35.204,-97.464,270.2,11.15,3,316,0.225,10.538,2.265,0
399,35.204,-97.465,270.2,12.04,3,316,0.176,10.584,2.218,0
400,35.204,-97.465,270,12.89,3,316,-0.017,10.583,2.028,0
401,35.204,-97.465,269.8,13.75,3,315,-0.306,10.344,2.066,0
402,35.204,-97.465,269.6,14.25,3,315,-0.901,10.439,2.15,0
403,35.204,-97.465,269.8,14.01,3,315,-1.208,10.465,2.386,0
404,35.204,-97.465,269.9,13.7,3,315,-0.77,10.697,2.277,0
405,35.204,-97.466,269.7,13.71,3,316,-0.727,10.5,2.194,0
406,35.204,-97.466,269.9,13.71,3,316,-0.975,10.539,2.133,0
407,35.204,-97.466,269.8,13.55,3,316,-1.04,10.456,1.954,0
408,35.204,-97.466,270,13.15,3,317,-1.032,10.558,2.191,0
409,35.204,-97.466,270,12.71,3,316,-1.128,10.56,2.263,0
410,35.204,-97.466,269.9,12.26,3,317,-1.152,10.446,2.11,0
411,35.204,-97.466,269.9,11.84,3,317,-1.41,10.157,2.293,0
412,35.204,-97.466,270,11.41,3,318,-1.229,10.378,1.977,0
413,35.204,-97.467,270.3,11.03,3,317,-1.173,10.505,2.166,0
414,35.204,-97.467,270.2,10.6,3,317,-1.292,10.634,2.045,0
415,35.204,-97.467,270.3,10.15,3,317,-1.311,10.402,2.014,0
416,35.204,-97.467,270.3,9.61,3,317,-1.292,10.627,2.026,0
417,35.204,-97.467,270.2,9.1,3,316,-1.11,10.572,2.222,0
418,35.204,-97.467,269.8,8.6501,3,316,-0.936,10.625,2.162,0
419,35.204,-97.467,269.8,8.4401,3,316,-0.855,10.258,2.235,0
420,35.204,-97.467,269.8,8.37,3,316,-1.558,10.352,2.211,0
421,35.204,-97.467,270.1,7.8301,3,317,-2.066,10.249,2.184,0
422,35.204,-97.467,270.4,6.5701,9,316,-1.679,10.371,2.015,0
423,35.204,-97.468,270.4,5.56,9,316,-1.96,10.519,2.08,0
424,35.204,-97.468,270.6,4.5,9,317,-2.078,10.528,2.064,0
425,35.204,-97.468,270.8,3.18,9,317,-1.601,10.49,2.024,0
426,35.204,-97.468,270.5,2.21,9,317,-2.082,10.491,2.055,0
427,35.204,-97.468,270.5,1.27,9,317,-1.679,10.464,2.064,0
428,35.204,-97.468,270.5,1.27,9,317,-0.926,10.518,2.061,0
429,35.204,-97.468,270.5,1.27,9,317,-0.781,10.506,2.073,0
430,35.204,-97.468,270.5,1.27,9,317,-0.757,10.498,2.077,0
431,35.204,-97.468,270.5,1.27,9,317,-0.756,10.492,2.082,0
432,35.204,-97.468,270.5,1.27,9,317,-0.757,10.496,2.074,0
433,35.204,-97.468,270.5,1.27,9,317,-0.752,10.495,2.077,0
434,35.204,-97.468,270.5,1.27,9,317,-0.752,10.527,2.054,0
435,35.204,-97.468,270.5,1.27,9,317,-0.755,10.513,2.069,0
436,35.204,-97.468,270.5,1.27,9,317,-0.755,10.5,2.076,0
437,35.204,-97.468,270.5,1.27,9,317,-0.753,10.506,2.072,0
438,35.204,-97.468,270.5,1.27,9,317,-0.76,10.509,2.068,0
439,35.204,-97.468,270.5,1.27,9,317,-0.761,10.517,2.068,0
440,35.204,-97.468,270.5,1.27,9,317,-0.76,10.504,2.082,0
441,35.204,-97.468,270.5,1.27,9,317,-0.761,10.523,2.06,0
442,35.204,-97.468,270.5,1.27,9,317,-0.761,10.517,2.079,0
443,35.204,-97.468,270.5,1.27,9,317,-0.756,10.507,2.066,0
444,35.204,-97.468,270.5,1.27,9,317,-0.756,10.528,2.071,0
445,35.204,-97.468,270.5,1.27,9,317,-0.763,10.504,2.078,0
446,35.204,-97.468,270.5,1.27,9,317,-0.765,10.523,2.061,0
447,35.204,-97.468,270.5,1.27,9,317,-0.752,10.522,2.062,0
448,35.204,-97.468,270.5,1.27,9,317,-0.748,10.489,2.084,0
449,35.204,-97.468,270.5,1.27,9,317,-0.758,10.535,2.071,0
450,35.204,-97.468,270.5,1.27,9,317,-0.753,10.502,2.085,0
451,35.204,-97.468,270.5,1.27,9,317,-0.754,10.497,2.071,0
452,35.204,-97.468,270.5,1.27,9,317,-0.757,10.514,2.069,0
453,35.204,-97.468,270.5,1.27,9,317,-0.756,10.502,2.084,0
454,35.204,-97.468,270.5,1.27,9,317,-0.754,10.524,2.059,0
455,35.204,-97.468,270.5,1.27,9,317,-0.754,10.49,2.071,0
456,35.204,-97.468,270.5,1.27,9,317,-0.757,10.506,2.062,0
457,35.204,-97.468,270.5,1.27,9,317,-0.752,10.5,2.078,0
458,35.204,-97.468,270.5,1.27,9,317,-0.755,10.529,2.066,0
459,35.204,-97.468,270.5,1.27,9,317,-0.754,10.504,2.077,0
460,35.204,-97.468,270.5,1.27,9,317,-0.763,10.518,2.066,0
461,35.204,-97.468,270.5,1.27,9,317,-0.753,10.496,2.084,0
462,35.204,-97.468,270.5,1.27,9,317,-0.751,10.521,2.058,0
463,35.204,-97.468,270.5,1.27,9,317,-0.752,10.497,2.082,0
465,35.204,-97.468,270.5,1.27,9,317,-0.765,10.5,2.077,0
466,35.204,-97.468,270.5,1.27,9,317,-0.759,10.509,2.072,0
467,35.204,-97.468,270.5,1.27,9,317,-0.763,10.506,2.06,0
468,35.204,-97.468,270.5,1.27,9,317,-0.756,10.522,2.067,0
469,35.204,-97.468,270.5,1.27,9,317,-0.755,10.498,2.071,0
470,35.204,-97.468,270.5,1.27,9,317,-0.753,10.511,2.069,0
471,35.204,-97.468,270.5,1.27,9,317,-0.756,10.522,2.068,0
472,35.204,-97.468,270.5,1.27,9,317,-0.751,10.513,2.075,0
473,35.204,-97.468,270.5,1.27,9,317,-0.76,10.516,2.081,0
474,35.204,-97.468,270.5,1.27,9,317,-0.752,10.512,2.063,0
475,35.204,-97.468,270.5,1.27,9,317,-0.76,10.52,2.075,0
476,35.204,-97.468,270.5,1.27,9,317,-0.757,10.491,2.08,0
477,35.204,-97.468,270.5,1.27,9,317,-0.763,10.514,2.067,0
478,35.204,-97.468,270.5,1.27,9,317,-0.754,10.499,2.079,0
479,35.204,-97.468,270.5,1.27,9,317,-0.753,10.512,2.071,0
480,35.204,-97.468,270.5,1.27,9,317,-0.754,10.49,2.079,0
481,35.204,-97.468,270.5,1.27,9,317,-0.744,10.519,2.087,0
482,35.204,-97.468,270.5,1.27,9,317,-0.767,10.504,2.069,0
483,35.204,-97.468,270.5,1.27,9,317,-0.764,10.498,2.074,0
484,35.204,-97.468,270.5,1.27,9,317,-0.761,10.492,2.084,0
485,35.204,-97.468,270.5,1.27,9,317,-0.763,10.521,2.075,0
486,35.204,-97.468,270.5,1.27,9,317,-0.759,10.488,2.089,0
487,35.204,-97.468,270.5,1.27,9,317,-0.757,10.52,2.065,0
488,35.204,-97.468,270.5,1.27,9,317,-0.754,10.505,2.074,0
489,35.204,-97.468,270.5,1.27,9,317,-0.756,10.504,2.083,0
490,35.204,-97.468,270.5,1.27,9,317,-0.76,10.499,2.076,0
491,35.204,-97.468,270.5,1.27,9,317,-0.751,10.508,2.086,0
492,35.204,-97.468,270.5,1.27,9,317,-0.758,10.517,2.071,0
493,35.204,-97.468,270.5,1.27,9,317,1.156,10.519,2.151,0
494,35.204,-97.468,270.5,1.27,9,317,1.986,10.454,2.178,0
495,35.204,-97.468,270.4,3.8122,9,317,1.743,10.396,2.006,0
496,35.204,-97.468,269.8,6.1914,9,317,0.653,11.101,2.356,0
497,35.204,-97.468,269.9,8.14,9,318,0.087,10.741,2.17,0
498,35.204,-97.468,269.8,8.9807,9,318,0.024,10.448,2.185,0
499,35.204,-97.468,269.6,9.6303,9,319,0.022,10.435,2.048,0
500,35.204,-97.468,269.7,10.39,9,319,-0.085,10.645,2.274,0
501,35.204,-97.468,269.9,11.13,9,319,0.007,10.514,2.416,0
502,35.204,-97.468,269.9,11.81,9,319,0.01,10.534,2.238,0
503,35.204,-97.469,269.9,12.53,9,319,-0.07,10.481,2.183,0
504,35.204,-97.469,270,13.18,9,320,-0.059,10.574,2.043,0
505,35.204,-97.469,270.1,13.9,9,320,0.011,10.766,2.277,0
506,35.204,-97.469,270,14.64,9,320,-0.189,10.558,1.99,0
507,35.204,-97.469,270,15.34,9,320,-0.48,10.629,2.143,0
508,35.204,-97.469,270,15.71,9,319,-0.419,10.364,2.105,0
509,35.204,-97.47,270.1,16.07,9,319,-0.9,10.442,2.043,0
510,35.204,-97.47,270.1,16.07,9,318,-0.72,10.636,1.979,0
511,35.204,-97.47,270.1,15.93,9,318,-0.856,10.585,2.076,0
512,35.204,-97.47,269.8,16,9,318,-0.775,10.47,2.196,0
513,35.204,-97.47,269.6,15.91,9,319,-0.801,10.192,2.123,0
514,35.204,-97.47,269.8,15.85,9,319,-0.729,10.316,2.095,0
515,35.204,-97.471,270.1,15.78,9,318,-0.464,10.543,1.881,0
516,35.204,-97.471,270.3,15.77,9,318,-0.731,10.53,1.929,0
517,35.204,-97.471,270.2,15.75,9,318,-0.75,10.396,2.001,0
518,35.204,-97.471,270.1,15.76,9,318,-0.759,10.541,2.178,0
519,35.204,-97.471,270.2,15.75,9,318,-0.796,10.577,2.066,0
520,35.204,-97.472,270.2,15.7,9,318,-0.83,10.688,2.132,0
521,35.204,-97.472,270.2,15.59,9,318,-0.829,10.666,2.208,0
522,35.204,-97.472,270,15.51,9,317,-0.768,10.546,2.155,0
523,35.204,-97.472,270,15.46,9,318,-0.681,10.487,2.014,0
524,35.204,-97.472,270,15.43,9,318,-0.748,10.483,1.997,0
525,35.204,-97.472,270,15.43,9,318,-0.7,10.446,1.942,0
526,35.204,-97.473,270,15.42,9,319,-0.761,10.477,2.206,0
527,35.204,-97.473,269.9,15.52,9,318,-0.728,10.489,2.271,0
528,35.204,-97.473,269.9,15.57,9,318,-0.744,10.513,2.077,0
529,35.204,-97.473,269.8,15.64,9,318,-0.894,10.54,1.853,0
530,35.204,-97.473,269.8,15.67,9,319,-0.819,10.73,1.885,0
531,35.204,-97.474,269.6,15.68,9,319,-0.686,10.631,2.055,0
533,35.204,-97.474,269.8,15.62,9,319,-0.792,10.477,2.229,0
534,35.204,-97.474,270.1,15.56,9,319,-0.477,10.054,2.362,0
535,35.204,-97.474,270,15.53,9,318,-0.773,10.583,2.393,0
536,35.204,-97.474,270.1,15.47,9,318,-0.716,10.527,2.256,0
537,35.204,-97.474,270,15.43,9,319,-0.74,10.498,2.075,0
538,35.204,-97.475,269.8,15.4,9,319,-0.73,10.446,2.032,0
539,35.204,-97.475,269.9,15.41,9,319,-0.68,10.359,2.119,0
540,35.204,-97.475,269.8,15.37,9,319,-0.78,10.484,2.394,0
541,35.204,-97.475,269.9,15.47,9,319,-0.658,10.471,2.273,0
542,35.204,-97.475,270.1,15.57,9,319,-0.659,10.195,2.172,0
543,35.204,-97.475,270.3,15.69,9,319,-0.896,10.682,2.497,0
544,35.204,-97.476,270.4,15.69,9,319,-0.81,10.769,2.303,0
545,35.204,-97.476,270.5,15.6,9,319,-0.949,10.459,2.186,0
546,35.204,-97.476,270.7,15.52,9,320,-0.78,10.266,2.499,0
547,35.204,-97.476,271.3,15.48,9,319,-0.758,10.147,2.538,0
548,35.204,-97.476,272.1,15.44,9,320,-0.815,10.417,1.904,0
549,35.204,-97.476,272,15.4,9,320,-1.028,11.166,1.931,0
550,35.204,-97.477,270.9,15.37,9,320,-1.041,10.552,1.952,0
551,35.204,-97.477,270.1,15.37,3,321,-1.035,10.49,2.405,0
552,35.204,-97.477,269.7,15.36,3,321,-0.73,10.574,2.535,0
553,35.204,-97.477,269.8,15.321,3,321,-0.752,10.613,2.247,0
554,35.204,-97.477,270,15.3,3,321,-0.789,10.588,2.257,0
555,35.204,-97.477,270.2,15.23,3,322,-0.649,10.464,2.261,0
556,35.204,-97.478,270.3,15.131,3,322,-0.671,10.563,2.044,0
557,35.204,-97.478,270.2,15.041,3,322,-0.722,10.497,2.431,0
558,35.204,-97.478,270.4,15.01,3,322,-0.627,10.454,2.188,0
559,35.204,-97.478,270.1,14.991,3,323,-0.553,10.636,2.461,0
560,35.204,-97.478,269.5,15.021,3,323,-0.601,10.484,2.355,0
561,35.204,-97.478,269.2,15.042,3,323,-0.942,10.447,2.713,0
562,35.204,-97.479,270.2,14.911,3,323,-0.91,10.005,3.541,0
563,35.204,-97.479,275,14.51,3,323,-0.538,9.453,4.96,0
564,35.204,-97.479,284,14.743,3,322,-0.988,9.281,5.872,0
565,35.204,-97.479,289.3,15.932,3,322,-1.213,9.143,6.756,0
566,35.204,-97.479,295.4,15.74,4,321,-0.798,9.223,6.689,0
567,35.204,-97.479,330.7,14.811,3,321,-0.301,9.845,3.711,0
568,35.204,-97.479,339.2,15.43,3,320,0.158,10.02,2.806,0
569,35.205,-97.479,341.2,16.463,3,320,0.19,10.268,2.497,0
570,35.205,-97.479,341.7,17.707,3,319,0.155,10.558,2.403,0
571,35.205,-97.479,342.1,18.966,3,318,0.004,10.503,2.074,0
572,35.205,-97.48,341.7,20.177,3,317,-0.09,10.58,2.197,0
573,35.205,-97.48,341.2,21.286,3,316,-0.072,10.518,2.365,0
574,35.205,-97.48,341.2,22.356,3,316,-0.11,10.677,2.213,0
575,35.206,-97.48,341.3,23.273,3,315,-0.122,10.67,2.257,0
576,35.206,-97.48,341.3,24.121,3,315,-0.201,10.845,2.325,0
577,35.206,-97.48,340.8,24.84,3,315,-0.12,10.567,2.304,0
578,35.206,-97.48,340,25.49,3,314,-0.05,10.059,2.101,0
579,35.207,-97.48,339.6,26.08,3,314,-0.185,10.43,2.466,0
580,35.207,-97.48,339.2,26.66,3,314,-0.199,10.539,2.532,0
581,35.207,-97.48,338.7,27.04,3,314,0.016,10.569,2.53,0
582,35.207,-97.48,337.6,27.62,3,314,-0.481,10.549,2.535,0
583,35.207,-97.481,336.7,27.94,3,314,-0.582,10.426,2.532,0
584,35.208,-97.481,334.7,28.181,3,314,-0.528,10.539,2.287,0
585,35.208,-97.481,334.7,28.181,3,314,-0.516,10.468,2.261,0
586,35.208,-97.481,332.6,28.41,3,314,-0.468,10.667,2.176,0
587,35.209,-97.481,330.8,28.721,3,315,-0.292,10.407,2.574,0
588,35.209,-97.481,330.3,29.03,3,315,-0.299,10.187,2.917,0
589,35.209,-97.482,330.9,29.421,3,316,-0.265,10.194,2.921,0
590,35.209,-97.482,331.5,29.581,3,317,-0.326,10.454,2.818,0
591,35.21,-97.482,331.6,29.931,3,317,-0.35,10.566,2.078,0
592,35.21,-97.482,331.3,30.16,3,317,-0.386,10.516,2.006,0
593,35.21,-97.482,331,30.451,3,317,-0.333,10.331,2.314,0
594,35.21,-97.482,331.1,30.81,3,318,-0.46,10.431,2.515,0
595,35.21,-97.483,331.2,31.21,3,318,-0.381,10.564,2.257,0
596,35.211,-97.483,331.7,31.47,3,319,-0.857,10.346,2.47,0
597,35.211,-97.483,332.1,31.37,3,319,-0.804,10.344,2.323,0
598,35.211,-97.483,332,31.36,3,320,-0.651,10.414,2.214,0
599,35.212,-97.483,332.1,31.331,3,320,-0.624,10.63,1.959,0
601,35.212,-97.483,331.3,31.441,3,320,-0.55,10.449,1.882,0
602,35.212,-97.484,330.4,31.67,3,320,-0.547,10.359,2.281,0
603,35.212,-97.484,330.3,31.82,3,320,-0.603,10.381,2.564,0
604,35.213,-97.484,331,31.88,3,320,-0.966,10.365,2.729,0
605,35.213,-97.484,332.2,31.64,3,321,-1.161,10.341,2.419,0
606,35.213,-97.484,332.9,31.25,3,321,-1.239,10.509,2.316,0
607,35.213,-97.484,333.4,30.78,3,321,-1.21,10.314,2.269,0
608,35.214,-97.484,334.1,30.3,3,321,-1.112,9.96,3.882,0
609,35.214,-97.485,337.4,29.96,3,322,-0.855,10.009,3.355,0
610,35.214,-97.485,339.9,29.9,3,322,-0.811,10.327,3.234,0
611,35.214,-97.485,341.4,29.96,3,321,-0.593,10.207,3.107,0
612,35.215,-97.485,343,30.13,3,321,-0.567,10.239,2.91,0
