time,lat,lng,bearing,spd,acc,alt,accx,accy,accz,stable,
0,35.209,-97.44,0,0,6.068,337,-0.314,1.806,9.516,1
1,35.209,-97.44,0,0,6.068,337,-0.315,1.805,9.517,1
2,35.209,-97.44,0,0,6.068,337,-0.316,1.806,9.517,1
3,35.209,-97.44,0,0,6.068,337,-0.314,1.809,9.517,1
4,35.209,-97.44,0,0,6.068,337,-0.314,1.804,9.518,1
5,35.209,-97.44,0,0,6.068,337,-0.318,1.809,9.516,1
6,35.209,-97.44,0,0,6.068,337,-0.317,1.804,9.517,1
7,35.209,-97.44,0,0,6.068,337,-0.282,2.127,9.441,1
8,35.209,-97.44,0,0,6.068,337,-0.293,2.113,9.439,1
9,35.209,-97.44,0,0,6.068,337,-0.285,1.964,9.463,1
10,35.209,-97.44,11.6,0.91,4.551,334,-0.182,2.207,9.402,1
11,35.209,-97.44,18.4,1.24,4.551,333,0.198,1.986,9.435,1
12,35.209,-97.44,33.4,1.82,4.551,332,0.385,1.863,9.492,1
13,35.209,-97.44,62.7,2.05,4.551,332,0.483,1.983,9.429,1
14,35.209,-97.44,81.4,2.79,6.068,332,0.709,2.339,9.326,1
15,35.209,-97.44,93.4,3.38,6.068,333,0.176,2.566,9.294,1
16,35.209,-97.44,93.4,4.27,6.068,332,-0.076,2.458,9.356,1
17,35.209,-97.44,92.6,5.13,6.068,330,-0.095,2.368,9.381,1
18,35.209,-97.44,90.6,5.55,4.551,330,-0.12,2.077,9.424,1
19,35.209,-97.44,89.5,5.92,4.551,330,-0.029,1.927,9.504,1
20,35.209,-97.44,90.2,5.94,4.551,330,-0.027,1.83,9.537,1
21,35.209,-97.44,88.9,5.91,4.551,330,-0.038,1.794,9.541,1
22,35.209,-97.44,90.6,5.85,4.551,330,0.005,1.748,9.46,1
23,35.209,-97.44,89.8,5.7,4.551,329,0.1,1.762,9.506,1
24,35.209,-97.44,90.5,5.54,4.551,330,0.175,1.768,9.504,1
25,35.209,-97.44,90,5.48,4.551,330,0.251,1.746,9.518,1
26,35.209,-97.44,90.4,5.31,6.068,329,0.279,1.743,9.539,1
27,35.209,-97.439,89.2,5.23,7.585,328,0.311,1.746,9.517,1
28,35.209,-97.439,89.3,5.04,6.068,328,0.32,1.736,9.553,1
29,35.209,-97.439,91.8,4.81,6.068,328,0.417,1.712,9.487,1
30,35.209,-97.439,88.1,4.66,6.068,327,0.47,1.681,9.542,1
31,35.209,-97.439,84.7,5.04,6.068,328,0.373,1.69,9.497,1
32,35.209,-97.439,85,4.3,6.068,327,0.242,1.687,9.55,1
33,35.209,-97.439,90.8,4.07,6.068,327,0.231,1.582,9.545,1
34,35.209,-97.439,91.9,3.77,6.068,327,-0.447,1.705,9.578,1
35,35.209,-97.439,77.9,3.38,4.551,327,-1.157,1.627,9.744,1
36,35.209,-97.439,73.5,2.68,6.068,327,-1.092,1.511,9.353,1
37,35.209,-97.439,52,1.69,6.068,327,-1.299,1.613,9.612,0
38,35.209,-97.439,21.5,2.2,6.068,327,-0.951,1.762,9.581,0
39,35.209,-97.439,9.5,2.26,6.068,326,-0.59,2.11,9.459,0
40,35.209,-97.439,3.4,2.23,4.551,323,-0.522,2.392,9.374,0
41,35.209,-97.439,357,2.67,4.551,323,-0.951,2.402,9.381,0
42,35.209,-97.439,338.3,2.93,4.551,323,-1.513,2.229,9.437,0
43,35.21,-97.439,310.5,3.32,4.551,322,-1.615,2.264,9.424,0
45,35.21,-97.439,288.8,3.86,4.551,321,-0.459,2.362,9.431,0
46,35.21,-97.439,277.3,4.15,4.551,320,-0.296,2.358,9.376,1
47,35.21,-97.439,275.1,4.19,4.551,320,-0.046,2.016,9.446,1
48,35.21,-97.439,273.6,4.11,4.551,320,0.201,1.575,9.578,1
49,35.21,-97.439,272.8,3.89,4.551,320,1.036,1.107,9.682,1
50,35.21,-97.439,276.7,3.02,4.551,321,1.54,1.024,9.543,1
51,35.21,-97.439,284.9,2.63,4.551,320,0.925,1.705,9.391,1
52,35.21,-97.439,343.1,1.9,4.551,320,0.585,2.277,9.359,1
53,35.21,-97.439,351.1,1.86,4.551,320,0.23,2.29,9.386,1
54,35.21,-97.439,351.1,1.81,4.551,320,-0.02,1.964,9.462,1
55,35.21,-97.439,351.1,1.48,4.551,320,-0.108,2.208,9.428,1
56,35.21,-97.439,351.1,1.21,4.551,320,0.306,2.919,9.164,1
57,35.21,-97.439,4.6,1.93,4.551,320,0.726,2.76,9.161,1
58,35.21,-97.439,42.9,2.39,4.551,321,0.829,2.595,9.235,1
59,35.21,-97.439,42.8,3.01,4.551,321,0.622,3.086,9.172,1
61,35.21,-97.439,85.3,5.04,4.551,321,-0.471,2.663,9.241,1
62,35.21,-97.439,84,5.7,4.551,321,-0.683,2.054,9.477,1
63,35.21,-97.439,87.3,5.92,6.068,321,-0.729,1.623,9.547,1
64,35.21,-97.439,85.5,5.62,6.068,321,-0.835,1.149,9.703,1
65,35.21,-97.439,91.8,5.32,6.068,321,-0.856,0.599,9.818,1
66,35.21,-97.439,92.2,4.37,6.068,321,-0.753,0.765,9.808,1
67,35.21,-97.439,95.4,3.37,6.068,321,-0.597,1.547,9.6,1
68,35.21,-97.439,90.8,1.19,4.551,321,-0.91,2.791,9.23,1
69,35.21,-97.439,76.7,2.31,4.551,322,-1.542,3.091,9.188,1
70,35.21,-97.439,74.8,3.09,4.551,323,-2.146,3.362,9.193,0
71,35.21,-97.439,38.4,4.62,4.551,323,-2.459,3.353,9.16,0
72,35.21,-97.439,23.5,4.97,4.551,321,-1.457,3.259,9.134,0
73,35.21,-97.439,6.3,5.97,4.551,318,-0.705,3.119,9.142,0
74,35.21,-97.439,1.7,8.35,4.551,318,-0.491,2.469,9.398,0
75,35.21,-97.439,0.6,8.56,6.068,318,-0.41,2.537,9.354,0
76,35.21,-97.439,359.7,9.39,6.068,317,-0.363,2.535,9.332,0
77,35.21,-97.439,0.2,9.67,6.068,317,-0.286,2.522,9.344,0
78,35.21,-97.439,0.3,9.98,4.551,318,-0.317,1.982,9.452,0
79,35.21,-97.439,0.1,10.21,6.068,319,-0.4,1.687,9.563,0
80,35.21,-97.439,359.6,9.84,4.551,319,-0.43,1.627,9.576,1
81,35.211,-97.439,0.4,9.16,4.551,320,-0.502,1.615,9.581,1
82,35.211,-97.439,0.6,8.75,6.068,320,-0.493,1.577,9.573,1
83,35.211,-97.439,0.5,8.23,4.551,320,-0.509,1.543,9.604,1
84,35.211,-97.439,0.3,7.67,4.551,320,-0.437,1.312,9.569,1
85,35.211,-97.439,1.1,6.98,4.551,319,-0.556,0.974,9.719,1
87,35.211,-97.439,0.5,5.94,4.551,319,-0.603,0.929,9.749,1
88,35.211,-97.439,359.4,5.06,4.551,320,-0.615,1.245,9.734,1
89,35.211,-97.439,1.5,3.88,4.551,321,-0.599,1.32,9.72,1
90,35.211,-97.439,0.8,3.13,4.551,320,-0.378,1.336,9.632,1
91,35.211,-97.439,2.9,2.37,4.551,321,-0.376,0.876,9.79,1
92,35.211,-97.439,1.5,1.06,4.551,321,-0.265,1.557,9.583,1
93,35.211,-97.439,1.5,1.06,4.551,321,-0.237,1.793,9.506,1
94,35.211,-97.439,1.5,0.43,4.551,322,0.133,3.736,8.927,1
95,35.211,-97.439,1.5,0.43,4.551,322,-1.03,4.758,8.868,0
96,35.211,-97.439,2.3,4.13,4.551,321,-3.903,3.829,8.888,0
97,35.211,-97.439,337.1,6.08,4.551,322,-5.143,3.663,8.989,0
98,35.211,-97.439,294.2,8.26,6.068,322,-2.055,3.714,8.946,0
99,35.211,-97.439,285.4,7.88,7.585,322,-0.655,3.312,9.108,0
100,35.211,-97.439,279.4,8.53,10.619,322,-0.246,2.874,9.236,0
101,35.211,-97.439,276.9,10.03,12.136,322,-0.059,2.571,9.405,0
102,35.211,-97.44,275.9,10.43,12.136,322,-0.131,2.228,9.425,0
103,35.211,-97.44,274.9,11.49,12.136,322,-0.104,1.859,9.537,0
104,35.211,-97.44,275.1,11.63,13.653,322,-0.04,1.703,9.567,0
105,35.211,-97.44,272.7,12.34,9.102,322,-0.148,1.802,9.519,0
106,35.211,-97.44,273.6,12.18,9.102,322,-0.424,1.706,9.534,0
107,35.211,-97.44,271.9,11.75,7.585,321,-0.553,1.701,9.605,1
108,35.211,-97.44,271.3,11.67,7.585,322,-0.467,1.567,9.62,1
109,35.211,-97.44,270.7,10.54,9.102,322,-0.488,1.135,9.791,1
110,35.211,-97.441,272.5,9.81,7.585,321,-0.449,0.892,9.776,1
111,35.211,-97.441,269.6,8.1,7.585,321,-0.387,0.778,9.843,1
112,35.211,-97.441,269.6,7.13,7.585,322,-0.358,1.067,9.728,1
113,35.211,-97.441,267.5,6.83,7.585,323,-0.351,1.236,9.683,1
114,35.211,-97.441,265.6,6.15,15.17,323,-0.379,1.332,9.667,1
115,35.211,-97.441,262.6,6.14,16.687,323,-0.385,1.262,9.665,1
116,35.211,-97.441,263.6,5.35,16.687,323,-0.41,0.882,9.777,1
117,35.211,-97.441,261.2,4.49,16.687,324,-0.36,1.17,9.69,1
118,35.211,-97.441,261.7,3.67,16.687,323,-0.373,1.027,9.753,1
119,35.211,-97.441,254.4,3.08,16.687,322,-0.371,1.158,9.72,1
120,35.211,-97.441,0,0,15.17,321,-0.316,1.841,9.526,1
121,35.211,-97.441,0,0,15.17,321,-0.304,2.009,9.478,1
122,35.211,-97.441,0,0,15.17,321,-0.3,2.039,9.47,1
123,35.211,-97.441,0,0,15.17,323,-0.301,2.044,9.467,1
124,35.211,-97.441,0,0,15.17,323,-0.301,2.043,9.469,1
125,35.211,-97.441,0,0,15.17,323,-0.301,2.044,9.467,1
126,35.211,-97.441,0,0,15.17,323,-0.301,2.043,9.468,1
127,35.211,-97.441,0,0,15.17,323,-0.304,2.045,9.47,1
128,35.211,-97.441,0,0,15.17,322,-0.304,2.044,9.471,1
129,35.211,-97.441,0,0,15.17,322,-0.304,2.044,9.47,1
130,35.211,-97.441,0,0,15.17,322,-0.305,2.047,9.47,1
131,35.211,-97.441,0,0,15.17,322,-0.304,2.043,9.47,1
132,35.211,-97.441,0,0,15.17,322,-0.304,2.045,9.471,1
133,35.211,-97.441,0,0,15.17,322,-0.298,2.044,9.469,1
134,35.211,-97.441,0,0,15.17,322,-0.301,2.048,9.467,1
135,35.211,-97.441,0,0,15.17,322,-0.301,2.045,9.469,1
136,35.211,-97.441,0,0,15.17,322,-0.301,2.044,9.467,1
137,35.211,-97.441,0,0,15.17,322,-0.301,2.043,9.469,1
138,35.211,-97.441,0,0,15.17,322,-0.302,2.047,9.471,1
139,35.211,-97.441,0,0,15.17,322,-0.302,2.049,9.473,1
140,35.211,-97.441,0,0,15.17,322,-0.3,2.047,9.467,1
141,35.211,-97.441,0,0,15.17,322,-0.303,2.046,9.472,1
142,35.211,-97.441,0,0,15.17,322,-0.292,2.053,9.468,1
143,35.211,-97.441,0,0,15.17,322,-0.293,2.057,9.468,1
144,35.211,-97.441,0,0,15.17,322,-0.291,2.061,9.464,1
145,35.211,-97.441,0,0,15.17,322,-0.296,2.062,9.464,1
146,35.211,-97.441,0,0,15.17,322,-0.286,2.064,9.464,1
147,35.211,-97.441,0,0,15.17,322,-0.29,2.063,9.467,1
148,35.211,-97.441,0,0,15.17,322,-0.288,2.063,9.466,1
149,35.211,-97.441,0,0,15.17,322,-0.289,2.063,9.466,1
150,35.211,-97.441,0,0,15.17,322,-0.288,2.059,9.467,1
151,35.211,-97.441,0,0,15.17,322,-0.288,2.059,9.467,1
152,35.211,-97.441,0,0,15.17,322,-0.291,2.062,9.467,1
153,35.211,-97.441,0,0,15.17,322,-0.287,2.061,9.47,1
154,35.211,-97.441,0,0,15.17,322,-0.288,2.061,9.47,1
155,35.211,-97.441,0,0,15.17,322,-0.286,2.061,9.467,1
156,35.211,-97.441,0,0,15.17,322,-0.288,2.062,9.469,1
157,35.211,-97.441,0,0,15.17,322,-0.288,2.066,9.469,1
158,35.211,-97.441,0,0,15.17,322,-0.288,2.062,9.466,1
159,35.211,-97.441,0,0,15.17,322,-0.288,2.061,9.465,1
160,35.211,-97.441,0,0,15.17,322,-0.286,2.145,9.447,1
163,35.211,-97.441,301.5,1,13.653,322,-0.173,3.994,8.918,1
164,35.211,-97.441,300.4,2.33,13.653,322,-0.187,3.777,8.992,1
165,35.211,-97.441,292.2,3.67,13.653,323,-0.269,3.45,9.061,1
166,35.211,-97.441,285.4,5.3,15.17,324,-0.235,3.269,9.096,1
167,35.211,-97.441,278.4,6.6,15.17,324,-0.284,3.177,9.149,1
168,35.211,-97.441,272.7,7.61,15.17,325,-0.292,3.105,9.136,1
169,35.211,-97.442,276.1,9.22,16.687,320,-0.414,2.224,9.445,1
170,35.211,-97.442,267.2,11.95,15.17,322,-0.512,1.919,9.53,1
171,35.211,-97.442,267.6,12.53,15.17,324,-0.433,2.021,9.513,1
172,35.211,-97.442,267.7,12.42,15.17,324,-0.119,2.068,9.451,1
173,35.211,-97.442,267.9,12.47,15.17,325,0.044,2.146,9.395,1
174,35.211,-97.442,268,12.39,13.653,326,0.058,2.528,9.346,1
175,35.211,-97.443,270.3,12.88,15.17,325,-0.107,2.568,9.368,1
176,35.211,-97.443,269.8,13.33,15.17,327,-0.369,2.994,9.184,1
177,35.211,-97.443,269.9,13.95,15.17,326,-0.191,3.157,9.254,1
178,35.211,-97.443,269.6,15.03,15.17,327,-0.085,3.042,9.256,1
179,35.211,-97.443,269.9,16.03,13.653,328,-0.081,2.507,9.256,1
180,35.211,-97.443,271.5,16.99,15.17,326,-0.239,1.852,9.39,1
181,35.211,-97.444,271.2,16.84,15.17,327,-0.199,1.688,9.436,1
182,35.211,-97.444,271.7,16.44,13.653,325,-0.207,1.671,9.519,0
183,35.211,-97.444,272.4,15.98,13.653,327,-0.797,1.268,9.58,0
184,35.211,-97.444,271.9,15.6,13.653,327,-0.974,0.391,9.958,0
185,35.211,-97.444,270,14.28,13.653,328,-0.804,0.343,9.898,0
186,35.211,-97.444,271.2,11.98,13.653,328,-0.5,1.138,9.765,0
187,35.211,-97.445,271.4,11.57,13.653,329,-0.557,1.439,9.635,0
189,35.211,-97.445,273.2,10.68,13.653,328,-0.572,1.639,9.614,0
190,35.211,-97.445,270.8,9.96,13.653,326,-0.448,1.931,9.513,0
191,35.211,-97.445,270.7,9.98,13.653,325,-0.409,1.93,9.493,0
192,35.211,-97.445,272,9.44,13.653,325,-0.417,1.765,9.535,0
193,35.211,-97.445,271.9,9.24,13.653,324,-0.345,2.198,9.407,0
194,35.211,-97.445,270.3,9.36,13.653,324,-0.273,2.16,9.444,0
195,35.211,-97.445,270.3,9.22,13.653,324,-0.255,2.145,9.445,1
196,35.211,-97.445,271.1,9.19,13.653,322,-0.34,1.865,9.53,1
197,35.211,-97.445,271.3,9.31,15.17,321,-0.319,2.08,9.42,1
198,35.211,-97.446,270,9.13,15.17,322,-0.346,2.437,9.372,1
199,35.211,-97.446,270.2,9.37,13.653,322,-0.32,2.508,9.315,1
200,35.211,-97.446,269.8,9.67,13.653,320,-0.343,2.239,9.546,1
201,35.211,-97.446,270.9,10.36,13.653,318,-0.377,2.418,9.353,1
202,35.211,-97.446,270,10.58,13.653,318,-0.43,2.143,9.405,1
203,35.211,-97.446,269.6,10.51,15.17,319,-0.464,2.09,9.469,1
204,35.211,-97.446,270.2,10.78,13.653,320,-0.397,2.044,9.486,1
205,35.211,-97.446,271.8,10.9,15.17,320,-0.424,2.425,9.379,1
206,35.211,-97.447,267.9,11.23,15.17,321,-0.386,2.495,9.374,1
207,35.211,-97.447,269.5,11.65,15.17,320,-0.379,1.919,9.437,1
208,35.211,-97.447,264.3,12.51,13.653,318,-0.409,1.95,9.504,1
209,35.211,-97.447,266.7,11.98,13.653,318,-0.493,1.982,9.425,1
210,35.211,-97.447,266.9,12.19,15.17,317,-0.481,2.403,9.467,1
211,35.211,-97.447,269,12.21,13.653,317,-0.353,2.79,9.175,1
212,35.211,-97.447,270.7,12.83,15.17,316,-0.318,2.427,9.33,1
213,35.211,-97.448,270.3,13.07,13.653,316,-0.39,1.914,9.53,1
214,35.211,-97.448,269.5,12.86,15.17,317,-0.439,1.752,9.553,1
215,35.211,-97.448,270,12.52,13.653,317,-0.436,2.468,9.416,1
216,35.211,-97.448,268.8,13.27,13.653,318,-0.317,3.324,9.138,1
217,35.211,-97.448,269.1,14.46,13.653,316,-0.42,2.405,9.354,1
218,35.211,-97.448,269.5,14.72,13.653,315,-0.498,1.547,9.652,1
219,35.211,-97.448,270.2,14.11,13.653,316,-0.706,0.972,9.714,1
220,35.211,-97.449,268.1,13.61,13.653,316,-0.888,-0.499,10.098,0
221,35.211,-97.449,267.8,12.87,15.17,318,-0.857,1.038,9.752,0
222,35.211,-97.449,264,9.6,13.653,319,-0.709,0.59,9.903,0
223,35.211,-97.449,265.6,7.9,15.17,320,-0.458,0.528,9.873,0
224,35.211,-97.449,264.7,6.68,13.653,320,-0.274,-0.139,10.063,0
225,35.211,-97.449,266.8,3.89,13.653,319,-0.329,0.064,10.022,0
226,35.211,-97.449,267.8,1.7,13.653,320,-0.242,1.326,9.653,0
227,35.211,-97.449,264.8,1.52,4.551,321,-0.205,1.732,9.536,0
228,35.211,-97.449,264.8,1.52,4.551,321,-0.227,1.657,9.569,0
229,35.211,-97.449,264.3,0.89,4.551,323,-0.216,1.808,9.538,0
230,35.211,-97.449,264.3,0.89,4.551,323,-0.177,2.382,9.369,0
231,35.211,-97.449,269.9,1.54,4.551,322,-0.105,3.274,9.137,0
232,35.211,-97.449,267.6,2.73,4.551,323,-0.015,4.152,8.887,0
233,35.211,-97.449,261.1,4.4,7.585,324,-0.129,1.782,9.509,0
234,35.211,-97.449,267.4,4.32,7.585,325,-0.239,0.608,9.858,1
235,35.211,-97.449,263.8,3.1,7.585,325,-0.242,0.964,9.772,1
236,35.211,-97.449,251.6,2.48,9.102,325,-0.244,1.271,9.69,1
237,35.211,-97.449,255.1,2.39,10.619,327,-0.231,1.489,9.622,1
238,35.211,-97.449,246.3,2.89,12.136,327,-0.197,2.011,9.49,1
239,35.211,-97.449,244.5,2.19,13.653,328,-0.088,3.611,9.028,1
240,35.211,-97.449,252.9,2.36,9.102,328,-0.077,4.006,8.925,1
241,35.211,-97.449,264.9,4.22,9.102,328,-0.048,4.094,8.895,1
242,35.211,-97.449,265.1,6.07,7.585,327,-0.109,3.626,9.025,1
243,35.211,-97.45,265.6,7.58,9.102,328,-0.122,3.795,8.963,1
244,35.211,-97.45,265.9,9.26,7.585,328,-0.192,2.515,9.297,1
245,35.211,-97.45,268.7,9.95,7.585,326,-0.124,2.44,9.373,1
246,35.211,-97.45,269.6,10.5,7.585,326,-0.161,2.249,9.443,1
247,35.211,-97.45,269.4,10.53,7.585,326,-0.212,1.992,9.492,1
248,35.211,-97.45,268.7,10.39,7.585,326,-0.191,2.355,9.358,1
249,35.211,-97.45,269.4,10.81,6.068,326,-0.222,2.484,9.351,1
250,35.211,-97.45,269.3,11.21,6.068,326,-0.272,2.801,9.243,1
251,35.211,-97.45,271.6,11.51,6.068,329,-0.409,2.336,9.369,1
252,35.211,-97.451,269.9,12.49,6.068,328,-0.372,1.887,9.488,1
253,35.211,-97.451,269.9,12.55,6.068,326,-0.364,1.71,9.49,1
254,35.211,-97.451,270.3,12.41,6.068,326,-0.362,1.706,9.545,1
255,35.211,-97.451,269,12.27,6.068,323,-0.385,1.728,9.571,1
256,35.211,-97.451,269.8,11.72,6.068,323,-0.374,1.707,9.504,1
257,35.211,-97.451,271.4,11.6,6.068,322,-0.437,1.572,9.611,1
258,35.211,-97.451,272.8,11.24,6.068,321,-0.399,1.376,9.684,1
259,35.211,-97.452,273.3,10.59,6.068,321,-0.339,1.138,9.738,1
260,35.211,-97.452,272.1,9.73,6.068,321,-0.272,1.145,9.636,1
261,35.211,-97.452,272.5,8.78,6.068,322,-0.347,1.539,9.586,1
262,35.211,-97.452,268,7.95,6.068,322,-0.497,0.771,9.822,1
263,35.211,-97.452,263.6,7.18,6.068,321,-0.547,0.946,9.754,1
264,35.211,-97.452,267.4,5.63,6.068,321,-0.503,0.668,9.854,1
265,35.211,-97.452,269,4.35,6.068,320,-0.485,0.875,9.788,1
266,35.211,-97.452,271.3,3.63,6.068,320,-0.474,1.289,9.684,1
267,35.211,-97.452,268.5,2.69,4.551,319,-0.479,1.453,9.638,1
268,35.211,-97.452,268.7,2.2,4.551,319,-0.468,1.536,9.618,1
269,35.211,-97.452,275.2,2.03,6.068,320,-0.471,1.232,9.698,1
270,35.211,-97.452,275.2,2.03,6.068,320,-0.473,1.158,9.717,1
271,35.211,-97.452,268.4,0.89,6.068,320,-0.438,1.651,9.582,1
272,35.211,-97.452,334.6,0.87,7.585,319,-0.424,1.866,9.528,1
273,35.211,-97.452,0,0,7.585,319,-0.421,1.901,9.521,1
274,35.211,-97.452,0,0,7.585,319,-0.419,1.909,9.518,1
275,35.211,-97.452,0,0,9.102,319,-0.419,1.911,9.517,1
276,35.211,-97.452,0,0,9.102,319,-0.421,1.911,9.515,1
277,35.211,-97.452,0,0,9.102,319,-0.419,1.913,9.516,1
278,35.211,-97.452,0,0,9.102,319,-0.412,2.061,9.484,1
279,35.211,-97.452,0,0,9.102,319,-0.34,3.02,9.223,1
280,35.211,-97.452,229.1,1.18,9.102,318,-0.301,3.478,9.086,1
281,35.211,-97.452,262.2,1.77,9.102,320,-0.336,2.67,9.304,1
282,35.211,-97.452,263.3,3.26,7.585,318,-0.352,2.38,9.395,1
283,35.211,-97.452,267.5,3.66,6.068,318,-0.353,2.064,9.47,1
284,35.211,-97.452,267.7,4.02,6.068,318,-0.271,2.644,9.302,1
285,35.211,-97.452,268.8,4.37,6.068,318,-0.223,2.952,9.192,1
286,35.211,-97.452,266.9,5.58,6.068,318,-0.238,2.773,9.313,1
287,35.211,-97.452,265.8,6.18,6.068,320,-0.317,2.316,9.44,1
288,35.211,-97.453,267.4,7.08,4.551,320,-0.358,2.319,9.416,1
289,35.211,-97.453,269.1,7.59,13.653,321,-0.392,2.256,9.42,1
290,35.211,-97.453,269.6,8.05,13.653,319,-0.348,2.6,9.325,1
291,35.211,-97.453,270.5,8.4,13.653,319,-0.291,2.364,9.459,1
292,35.211,-97.453,269.7,9.16,13.653,320,-0.291,2.179,9.556,1
293,35.211,-97.453,270.5,9.63,13.653,320,-0.329,2.096,9.34,1
294,35.211,-97.453,270.1,9.78,13.653,320,-0.495,1.928,9.41,1
296,35.211,-97.453,270.5,10.02,13.653,320,-0.403,1.874,9.456,1
297,35.211,-97.453,269.9,10.16,13.653,320,-0.43,1.885,9.608,1
298,35.211,-97.453,270.7,10.44,13.653,321,-0.494,1.392,9.683,1
299,35.211,-97.454,271.3,10.29,13.653,320,-0.418,1.449,9.66,1
300,35.211,-97.454,268.7,9.69,13.653,319,-0.463,1.46,9.671,1
301,35.211,-97.454,274.5,8.84,13.653,319,-0.434,1.749,9.535,1
302,35.211,-97.454,269.7,9.03,13.653,320,-0.539,1.845,9.567,1
303,35.211,-97.454,270.6,8.86,13.653,320,-0.55,1.422,9.635,1
304,35.211,-97.454,269.8,8.23,13.653,319,-0.536,1.768,9.643,1
305,35.211,-97.454,268.7,8.19,13.653,319,-0.51,2.132,9.514,1
306,35.211,-97.454,276,7.97,13.653,320,-0.457,2.368,9.388,1
307,35.211,-97.454,273.5,9.09,13.653,320,-0.368,2.293,9.357,1
308,35.211,-97.455,270.4,9.48,15.17,320,-0.342,2.288,9.484,1
309,35.211,-97.455,270.4,9.75,15.17,320,-0.197,2.29,9.665,1
310,35.211,-97.455,269.1,9.7,15.17,320,-0.397,2.247,9.441,1
311,35.211,-97.455,270.1,9.89,15.17,320,-0.346,2.455,9.424,1
312,35.211,-97.455,269,10.21,13.653,321,-0.337,2.523,9.38,1
313,35.211,-97.455,268.3,10.58,13.653,321,-0.323,2.611,9.375,1
314,35.211,-97.455,270,10.93,13.653,321,-0.322,2.593,9.353,1
315,35.211,-97.455,271.6,11.3,13.653,321,-0.438,2.608,9.329,1
316,35.211,-97.456,270,11.52,13.653,321,-0.455,2.628,9.381,1
317,35.211,-97.456,270.1,11.92,13.653,322,-0.427,2.451,9.37,1
318,35.211,-97.456,270.1,11.87,13.653,321,-0.32,2.46,9.317,1
319,35.211,-97.456,268.9,12.02,13.653,322,-0.269,2.522,9.361,1
320,35.211,-97.456,270.3,11.97,13.653,319,-0.208,2.477,9.316,1
321,35.211,-97.456,270.5,12.14,13.653,316,-0.3,2.276,9.327,1
322,35.211,-97.456,271.9,12.1,13.653,315,-0.352,2.012,9.382,1
323,35.211,-97.456,270.5,11.98,13.653,315,-0.276,1.931,9.37,1
324,35.211,-97.457,269.5,12,15.17,314,-0.387,2.066,9.491,1
325,35.211,-97.457,269.3,11.73,15.17,315,-0.245,2.244,9.426,1
326,35.211,-97.457,268.3,12.02,15.17,316,-0.299,2.295,9.446,1
327,35.211,-97.457,269.5,11.82,15.17,314,-0.278,1.912,9.52,1
328,35.211,-97.457,270.6,12.04,15.17,314,-0.251,1.775,9.56,1
329,35.211,-97.457,270,11.75,15.17,315,-0.244,1.956,9.527,1
330,35.211,-97.457,269.5,11.55,15.17,315,-0.247,1.816,9.532,1
331,35.211,-97.457,270.1,11.42,15.17,314,-0.23,1.724,9.535,1
332,35.211,-97.458,270.7,11.18,15.17,313,-0.228,1.554,9.624,1
333,35.211,-97.458,272.6,10.67,15.17,315,-0.292,0.87,9.795,1
334,35.211,-97.458,275.7,9.51,15.17,313,-0.328,0.762,9.814,1
335,35.211,-97.458,275.7,8.18,15.17,312,-0.366,0.672,9.853,1
336,35.211,-97.458,274.5,6.71,15.17,314,-0.374,0.885,9.78,1
337,35.211,-97.458,275.5,5.58,15.17,314,-0.371,1.083,9.718,1
338,35.211,-97.458,275.1,4.75,15.17,314,-0.389,1.384,9.643,1
339,35.211,-97.458,275.8,3.88,13.653,314,-0.373,1.533,9.607,1
340,35.211,-97.458,271.6,3.09,13.653,315,-0.363,1.723,9.577,1
341,35.211,-97.458,269.2,3.13,13.653,317,-0.387,1.616,9.594,1
342,35.211,-97.458,274.3,2.97,15.17,317,-0.389,1.543,9.621,1
343,35.211,-97.458,273.7,2.91,16.687,320,-0.415,1.322,9.68,1
344,35.211,-97.458,249.1,0.69,15.17,319,-0.413,1.354,9.669,1
345,35.211,-97.458,249.1,0.69,15.17,319,-0.38,1.908,9.519,1
346,35.211,-97.458,0,0,16.687,319,-0.367,2.048,9.482,1
347,35.211,-97.458,0,0,16.687,319,-0.368,2.079,9.473,1
348,35.211,-97.458,0,0,16.687,319,-0.364,2.091,9.471,1
349,35.211,-97.458,0,0,16.687,319,-0.368,2.093,9.467,1
350,35.211,-97.458,0,0,16.687,319,-0.369,2.093,9.465,1
351,35.211,-97.458,0,0,16.687,319,-0.37,2.093,9.469,1
352,35.211,-97.458,0,0,16.687,319,-0.371,2.093,9.469,1
353,35.211,-97.458,0,0,18.204,317,-0.368,2.093,9.47,1
354,35.211,-97.458,0,0,18.204,317,-0.365,2.093,9.467,1
355,35.211,-97.458,0,0,18.204,317,-0.366,2.096,9.47,1
356,35.211,-97.458,0,0,18.204,317,-0.364,2.094,9.471,1
357,35.211,-97.458,0,0,18.204,317,-0.366,2.094,9.472,1
358,35.211,-97.458,0,0,18.204,317,-0.366,2.092,9.472,1
359,35.211,-97.458,0,0,18.204,317,-0.363,2.093,9.469,1
360,35.211,-97.458,0,0,18.204,317,-0.363,2.093,9.47,1
361,35.211,-97.458,0,0,18.204,317,-0.364,2.093,9.468,1
362,35.211,-97.458,0,0,18.204,317,-0.368,2.093,9.467,1
363,35.211,-97.458,0,0,18.204,317,-0.366,2.093,9.467,1
364,35.211,-97.458,0,0,18.204,317,-0.364,2.093,9.467,1
365,35.211,-97.458,0,0,18.204,317,-0.363,2.095,9.464,1
366,35.211,-97.458,0,0,18.204,317,-0.368,2.095,9.467,1
367,35.211,-97.458,0,0,18.204,317,-0.368,2.092,9.465,1
368,35.211,-97.458,0,0,18.204,317,-0.368,2.095,9.465,1
369,35.211,-97.458,0,0,18.204,317,-0.366,2.094,9.467,1
370,35.211,-97.458,0,0,18.204,317,-0.365,2.094,9.466,1
371,35.211,-97.458,0,0,18.204,317,-0.366,2.093,9.47,1
372,35.211,-97.458,0,0,18.204,317,-0.368,2.092,9.469,1
373,35.211,-97.458,0,0,18.204,317,-0.365,2.095,9.468,1
374,35.211,-97.458,0,0,18.204,317,-0.364,2.094,9.467,1
375,35.211,-97.458,0,0,18.204,317,-0.369,2.094,9.469,1
376,35.211,-97.458,0,0,18.204,317,-0.365,2.096,9.463,1
377,35.211,-97.458,0,0,18.204,317,-0.368,2.097,9.466,1
378,35.211,-97.458,0,0,18.204,317,-0.368,2.096,9.468,1
379,35.211,-97.458,0,0,18.204,317,-0.362,2.096,9.466,1
380,35.211,-97.458,0,0,18.204,317,-0.366,2.096,9.47,1
381,35.211,-97.458,0,0,18.204,317,-0.365,2.093,9.47,1
382,35.211,-97.458,0,0,18.204,317,-0.363,2.093,9.47,1
383,35.211,-97.458,0,0,18.204,317,-0.368,2.093,9.472,1
384,35.211,-97.458,0,0,18.204,317,-0.366,2.096,9.471,1
385,35.211,-97.458,0,0,18.204,317,-0.365,2.096,9.472,1
386,35.211,-97.458,0,0,18.204,317,-0.365,2.096,9.47,1
387,35.211,-97.458,0,0,18.204,317,-0.365,2.095,9.473,1
388,35.211,-97.458,0,0,18.204,317,-0.365,2.096,9.467,1
389,35.211,-97.458,0,0,18.204,317,-0.363,2.097,9.471,1
391,35.211,-97.458,0,0,18.204,317,-0.367,2.094,9.469,1
392,35.211,-97.458,0,0,18.204,317,-0.368,2.094,9.464,1
393,35.211,-97.458,0,0,18.204,317,-0.368,2.096,9.467,1
394,35.211,-97.458,0,0,18.204,317,-0.355,2.253,9.431,1
395,35.211,-97.458,0,0,18.204,317,-0.309,2.868,9.273,1
396,35.211,-97.458,0,0,18.204,317,-0.276,3.317,9.137,1
398,35.211,-97.458,266.4,3.22,13.653,320,-0.297,3.621,9.038,1
399,35.211,-97.458,267.6,3.87,15.17,319,-0.363,3.488,9.136,1
400,35.211,-97.458,276.8,4.49,15.17,319,-0.399,3.135,9.151,1
401,35.211,-97.458,269.2,6.53,15.17,320,-0.391,2.904,9.267,1
402,35.211,-97.459,268.9,8.43,15.17,317,-0.44,2.46,9.384,1
403,35.211,-97.459,270,8.47,15.17,318,-0.332,0.954,9.763,1
404,35.211,-97.459,270,7.63,15.17,318,0.353,0.681,9.85,1
405,35.211,-97.459,276.2,7.33,15.17,319,2.681,0.719,9.609,0
406,35.211,-97.459,274.2,7.08,15.17,321,3.599,2.141,9.236,0
407,35.211,-97.459,343.5,7.18,15.17,323,2.069,3.511,9.072,0
408,35.211,-97.459,351.8,7.78,15.17,322,0.448,3.413,9.097,0
409,35.211,-97.459,355.6,8.38,15.17,321,-0.086,3.254,9.108,0
410,35.212,-97.459,1.4,10.68,15.17,321,-0.28,3.073,9.078,0
411,35.212,-97.459,356.9,12.58,13.653,322,-0.4,2.988,9.176,0
412,35.212,-97.459,352.8,13.07,13.653,322,-0.352,2.609,9.349,0
413,35.212,-97.459,358.3,13.43,13.653,322,-0.081,2.254,9.375,0
414,35.212,-97.459,0.3,13.48,13.653,322,0.124,2.338,9.421,0
415,35.212,-97.459,359.6,13.82,13.653,320,-0.254,2.43,9.424,0
416,35.212,-97.459,359.3,14.11,13.653,321,-0.322,2.5,9.361,1
417,35.212,-97.459,0.4,14.22,13.653,322,-0.234,2.363,9.336,1
418,35.213,-97.459,2.9,14.32,13.653,322,-0.135,1.937,9.637,1
419,35.213,-97.459,2.2,14.37,15.17,324,-0.115,1.723,9.583,1
420,35.213,-97.459,0.3,13.43,13.653,324,-0.153,1.716,9.514,1
421,35.213,-97.459,0.3,13.72,13.653,325,-0.108,1.746,9.55,1
422,35.213,-97.459,0.6,13.41,13.653,328,-0.157,1.889,9.674,1
423,35.213,-97.459,0.1,13.13,13.653,328,-0.197,2.067,9.469,1
424,35.213,-97.459,357.5,13.33,15.17,327,-0.274,2.151,9.574,1
425,35.213,-97.459,357.9,12.76,15.17,328,-0.247,2.143,9.426,1
426,35.214,-97.459,359.1,13.37,15.17,329,-0.293,2.135,9.377,1
427,35.214,-97.459,359.6,13.18,13.653,330,-0.29,2.127,9.327,1
428,35.214,-97.459,359.8,13.23,15.17,331,-0.358,2.3,9.459,1
429,35.214,-97.459,359.8,13.59,15.17,332,-0.316,2.148,9.421,1
430,35.214,-97.459,359.8,13.63,15.17,333,-0.181,2.091,9.626,1
431,35.214,-97.459,359.7,13.75,15.17,332,-0.131,2.147,9.435,1
432,35.214,-97.459,0.7,13.27,15.17,332,-0.232,2.186,9.376,1
433,35.214,-97.459,1.4,13.93,15.17,332,-0.351,2.262,9.406,1
434,35.215,-97.459,3.6,13.82,15.17,332,-0.334,2.273,9.454,1
435,35.215,-97.459,359.9,14.43,13.653,332,-0.278,2.168,9.538,1
436,35.215,-97.459,359.8,14.24,15.17,334,-0.256,2.14,9.54,1
437,35.215,-97.459,359,14.5,13.653,333,-0.258,1.83,9.579,1
438,35.215,-97.459,357.8,14.14,13.653,333,-0.253,1.801,9.692,1
439,35.215,-97.459,359.9,14.04,13.653,332,-0.228,1.755,9.645,1
440,35.215,-97.459,359.8,13.6,13.653,333,-0.234,1.776,9.493,1
441,35.215,-97.459,1.6,13.33,15.17,333,-0.281,1.939,9.495,1
442,35.216,-97.459,1.4,13.67,15.17,332,-0.221,2.013,9.499,1
443,35.216,-97.459,359.9,13.1,13.653,333,-0.164,2.202,9.421,1
444,35.216,-97.459,0.2,13.39,13.653,331,-0.16,2.224,9.48,1
445,35.216,-97.459,359.9,13.27,13.653,330,-0.229,2.264,9.496,1
446,35.216,-97.459,359.3,13.32,13.653,329,-0.26,2.044,9.281,1
447,35.216,-97.459,359.7,13.23,13.653,328,-0.334,1.821,9.414,1
448,35.216,-97.459,1.9,13.53,15.17,329,-0.355,2.015,9.534,1
449,35.216,-97.459,0.8,13.71,15.17,328,-0.469,1.81,9.561,1
450,35.217,-97.459,358.9,13.34,15.17,327,-0.457,1.963,9.748,1
451,35.217,-97.459,358.8,13.02,15.17,326,-0.287,1.99,9.557,1
453,35.217,-97.459,1.2,12.65,13.653,329,-0.255,1.758,9.54,0
454,35.217,-97.459,358.3,12.53,13.653,328,-0.095,1.704,9.578,0
455,35.217,-97.459,0.2,12.27,13.653,328,-0.157,1.715,9.545,0
456,35.217,-97.459,0,11.87,13.653,328,-0.185,1.845,9.574,0
457,35.217,-97.459,355.3,11.58,13.653,328,-0.242,1.783,9.539,0
458,35.217,-97.459,359.3,11.22,13.653,329,-0.254,1.71,9.503,0
459,35.218,-97.459,1.2,10.69,13.653,330,-0.45,1.721,9.585,0
460,35.218,-97.459,0.9,10.36,13.653,330,-0.411,1.727,9.591,0
461,35.218,-97.459,1.2,10,13.653,331,-0.415,1.423,9.594,1
462,35.218,-97.459,0,9.42,13.653,331,-0.406,1.323,9.728,1
463,35.218,-97.459,0.6,8.47,13.653,331,-0.344,1.204,9.653,1
464,35.218,-97.459,0.6,7.62,13.653,328,-0.466,0.876,9.817,1
465,35.218,-97.459,359.8,7.14,13.653,330,-0.522,1.113,9.788,1
466,35.218,-97.459,3.1,5.41,13.653,330,-0.481,0.919,9.818,1
467,35.218,-97.459,359.1,3.98,13.653,330,-0.516,1.13,9.646,1
468,35.218,-97.459,0.1,3.04,13.653,329,-0.449,1.164,9.721,1
469,35.218,-97.459,3.7,2.23,13.653,330,-0.538,1.256,9.742,1
470,35.218,-97.459,3.7,2.23,13.653,330,-0.438,1.751,9.557,1
471,35.218,-97.459,3.7,2.23,13.653,330,-0.432,1.543,9.62,1
472,35.218,-97.459,3.7,2.23,13.653,330,-0.413,1.849,9.547,1
473,35.218,-97.459,3.7,2.23,13.653,330,-0.39,2.092,9.476,1
474,35.218,-97.459,3.7,2.23,13.653,330,-0.39,2.133,9.463,1
475,35.218,-97.459,3.7,2.23,13.653,330,-0.39,2.143,9.463,1
476,35.218,-97.459,3.7,2.23,13.653,330,-0.387,2.146,9.461,1
477,35.218,-97.459,3.7,2.23,13.653,330,-0.393,2.145,9.461,1
478,35.218,-97.459,3.7,2.23,13.653,330,-0.395,2.143,9.463,1
479,35.218,-97.459,3.7,2.23,13.653,330,-0.396,2.143,9.461,1
480,35.218,-97.459,3.7,2.23,13.653,330,-0.395,2.148,9.461,1
481,35.218,-97.459,3.7,2.23,13.653,330,-0.394,2.147,9.461,1
482,35.218,-97.459,3.7,2.23,13.653,330,-0.391,2.147,9.461,1
483,35.218,-97.459,3.7,2.23,13.653,330,-0.393,2.147,9.461,1
484,35.218,-97.459,3.7,2.23,13.653,330,-0.393,2.145,9.464,1
486,35.218,-97.459,3.7,2.23,13.653,330,-0.393,2.145,9.463,1
487,35.218,-97.459,3.7,2.23,13.653,330,-0.39,2.147,9.463,1
488,35.218,-97.459,3.7,2.23,13.653,330,-0.394,2.145,9.461,1
489,35.218,-97.459,3.7,2.23,13.653,330,-0.393,2.149,9.461,1
490,35.218,-97.459,3.7,2.23,13.653,330,-0.393,2.147,9.46,1
491,35.218,-97.459,3.7,2.23,13.653,330,-0.394,2.147,9.461,1
492,35.218,-97.459,3.7,2.23,13.653,330,-0.393,2.145,9.461,1
493,35.218,-97.459,3.7,2.23,13.653,330,-0.395,2.144,9.463,1
494,35.218,-97.459,3.7,2.23,13.653,330,-0.393,2.147,9.461,1
495,35.218,-97.459,3.7,2.23,13.653,330,-0.393,2.147,9.461,1
496,35.218,-97.459,3.7,2.23,13.653,330,-0.391,2.149,9.461,1
497,35.218,-97.459,3.7,2.23,13.653,330,-0.389,2.15,9.463,1
498,35.218,-97.459,3.7,2.23,13.653,330,-0.393,2.15,9.464,1
499,35.218,-97.459,3.7,2.23,13.653,330,-0.388,2.149,9.462,1
500,35.218,-97.459,3.7,2.23,13.653,330,-0.394,2.15,9.462,1
501,35.218,-97.459,3.7,2.23,13.653,330,-0.391,2.147,9.464,1
502,35.218,-97.459,3.7,2.23,13.653,330,-0.394,2.148,9.462,1
503,35.218,-97.459,3.7,2.23,13.653,330,-0.389,2.146,9.462,1
504,35.218,-97.459,3.7,2.23,13.653,330,-0.396,2.147,9.462,1
505,35.218,-97.459,3.7,2.23,13.653,330,-0.394,2.15,9.46,1
506,35.218,-97.459,3.7,2.23,13.653,330,-0.395,2.147,9.463,1
507,35.218,-97.459,3.7,2.23,13.653,330,-0.394,2.144,9.46,1
508,35.218,-97.459,3.7,2.23,13.653,330,-0.395,2.146,9.461,1
509,35.218,-97.459,3.7,2.23,13.653,330,-0.392,2.15,9.461,1
510,35.218,-97.459,3.7,2.23,13.653,330,-0.397,2.145,9.461,1
511,35.218,-97.459,3.7,2.23,13.653,330,-0.394,2.145,9.461,1
512,35.218,-97.459,3.7,2.23,13.653,330,-0.397,2.146,9.463,1
513,35.218,-97.459,3.7,2.23,13.653,330,-0.394,2.149,9.461,1
514,35.218,-97.459,3.7,2.23,13.653,330,-0.393,2.147,9.462,1
515,35.218,-97.459,3.7,2.23,13.653,330,-0.393,2.15,9.456,1
516,35.218,-97.459,3.7,2.23,13.653,330,-0.393,2.148,9.462,1
517,35.218,-97.459,3.7,2.23,13.653,330,-0.39,2.146,9.461,1
518,35.218,-97.459,3.7,2.23,13.653,330,-0.394,2.145,9.461,1
519,35.218,-97.459,3.7,2.23,13.653,330,-0.393,2.146,9.46,1
520,35.218,-97.459,3.7,2.23,13.653,330,-0.391,2.147,9.46,1
521,35.218,-97.459,3.7,2.23,13.653,330,-0.392,2.145,9.461,1
522,35.218,-97.459,3.7,2.23,13.653,330,-0.389,2.149,9.461,1
523,35.218,-97.459,0,0,13.653,327,-0.394,2.151,9.461,1
524,35.218,-97.459,0,0,13.653,327,-0.393,2.15,9.463,1
525,35.218,-97.459,0,0,13.653,327,-0.393,2.149,9.463,1
526,35.218,-97.459,0,0,13.653,327,-0.393,2.148,9.461,1
527,35.218,-97.459,0,0,13.653,327,-0.395,2.147,9.461,1
528,35.218,-97.459,0,0,13.653,327,-0.392,2.149,9.461,1
529,35.218,-97.459,0,0,13.653,327,-0.394,2.147,9.461,1
530,35.218,-97.459,0,0,13.653,327,-0.392,2.147,9.463,1
531,35.218,-97.459,0,0,13.653,327,-0.389,2.149,9.46,1
532,35.218,-97.459,0,0,13.653,327,-0.381,2.268,9.431,1
533,35.218,-97.459,0,0,13.653,327,-0.327,3.037,9.173,1
534,35.218,-97.459,0,0,13.653,327,-0.368,3.537,9.087,1
535,35.218,-97.459,359.3,2.32,13.653,327,-0.34,3.567,9.056,1
536,35.218,-97.459,359.9,3.52,13.653,326,-0.404,3.614,9.019,1
537,35.218,-97.459,359.2,6.03,13.653,327,-0.361,3.475,9.185,1
538,35.218,-97.459,358.9,7.07,13.653,327,-0.144,3.214,9.106,1
540,35.218,-97.459,358.2,8.79,13.653,326,-0.001,2.882,9.038,1
541,35.219,-97.459,357.5,8.92,13.653,326,-0.092,2.594,9.386,1
542,35.219,-97.459,359.9,10.26,13.653,327,-0.157,2.347,9.148,1
543,35.219,-97.459,359.2,10.45,13.653,326,-0.323,2.295,9.394,1
544,35.219,-97.459,359.7,11.04,13.653,327,-0.409,2.103,9.366,1
545,35.219,-97.459,359.2,11.25,15.17,327,-0.402,2.324,9.341,1
546,35.219,-97.459,359.1,11.33,13.653,327,-0.336,2.216,9.32,1
547,35.219,-97.459,359.4,11.57,13.653,328,-0.269,2.358,9.386,1
548,35.219,-97.459,358.9,11.92,13.653,326,-0.18,2.337,9.402,1
549,35.219,-97.459,359.2,12.26,13.653,325,-0.228,2.248,9.48,1
550,35.22,-97.459,359.7,12.23,13.653,326,-0.205,2.061,9.578,1
551,35.22,-97.459,0.8,12.48,13.653,326,-0.263,1.85,9.601,1
552,35.22,-97.459,1.5,11.86,13.653,326,-0.357,1.889,9.488,1
553,35.22,-97.459,0.2,12.09,13.653,325,-0.368,2.255,9.24,1
554,35.22,-97.459,0.3,12.21,13.653,325,-0.558,2.156,9.485,0
555,35.22,-97.459,0.3,12.21,15.17,327,-0.613,1.847,9.395,0
556,35.22,-97.459,359.5,11.71,15.17,327,-0.523,2.269,9.412,0
557,35.22,-97.459,359.6,11.53,15.17,328,-0.518,2.226,9.479,0
558,35.22,-97.459,358.4,11.4,16.687,328,-0.468,2.023,9.484,0
559,35.22,-97.459,358.8,11.62,16.687,328,-0.293,2.134,9.576,0
560,35.221,-97.459,359.4,12.11,15.17,328,-0.309,2.307,9.287,0
561,35.221,-97.459,0.2,12.39,15.17,327,-0.425,2.426,9.415,0
562,35.221,-97.459,359.3,12.68,15.17,326,-0.467,2.387,9.381,0
563,35.221,-97.459,4.3,12.13,15.17,326,-0.447,2.189,9.519,1
564,35.221,-97.459,0.3,12.83,15.17,326,-0.464,2.163,9.458,1
565,35.221,-97.459,359.1,12.69,15.17,325,-0.451,1.951,9.556,1
566,35.221,-97.459,359.8,12.51,15.17,326,-0.558,1.989,9.55,1
567,35.221,-97.459,359,12.54,13.653,327,-0.425,2.013,9.452,1
568,35.222,-97.459,0.6,12.49,15.17,326,-0.486,2.091,9.452,1
569,35.222,-97.459,2.3,12.31,13.653,327,-0.424,2.275,9.357,1
570,35.222,-97.459,359.6,12.64,13.653,326,-0.516,2.42,9.456,1
571,35.222,-97.459,359.6,13.04,13.653,327,-0.437,2.245,9.414,1
572,35.222,-97.459,359,13.05,13.653,328,-0.336,2.079,9.444,1
573,35.222,-97.459,359.1,13.23,13.653,327,-0.371,1.868,9.47,1
574,35.222,-97.459,359.2,13.07,13.653,327,-0.452,1.786,9.591,1
575,35.222,-97.459,359.4,13.18,13.653,326,-0.469,2.008,9.589,1
576,35.222,-97.459,0.2,12.64,13.653,326,-0.411,2.178,9.498,1
577,35.223,-97.459,0.9,12.46,13.653,326,-0.374,2.278,9.503,1
578,35.223,-97.459,359.5,12.44,15.17,327,-0.252,2.174,9.491,1
579,35.223,-97.459,359.3,12.54,13.653,326,-0.232,2.063,9.46,1
581,35.223,-97.459,357.6,12.71,15.17,325,-0.216,2.065,9.561,1
582,35.223,-97.459,358.1,12.59,15.17,325,-0.262,1.865,9.663,1
583,35.223,-97.459,359.5,12.55,15.17,324,-0.224,2.121,9.552,1
584,35.223,-97.459,359.5,12.66,15.17,324,-0.232,2.074,9.507,1
585,35.223,-97.459,359.8,12.67,15.17,324,-0.305,1.818,9.482,1
586,35.224,-97.459,0.3,12.27,13.653,324,-0.44,1.788,9.658,1
587,35.224,-97.459,0.4,12.34,13.653,325,-0.419,2.07,9.633,1
588,35.224,-97.459,1.1,12.47,15.17,324,-0.48,2.554,9.417,1
589,35.224,-97.459,0.6,12.5,15.17,324,-0.416,2.759,9.269,1
590,35.224,-97.459,0.4,13.27,13.653,326,-0.424,2.278,9.285,1
591,35.224,-97.459,0.3,13.63,13.653,326,-0.39,1.895,9.485,1
592,35.224,-97.459,359.4,13.63,13.653,327,-0.41,1.81,9.584,1
593,35.224,-97.459,0.2,13.48,15.17,327,-0.398,2.037,9.471,1
594,35.225,-97.459,359,13.07,15.17,327,-0.357,2.096,9.461,1
595,35.225,-97.459,358.9,12.96,15.17,327,-0.27,1.988,9.44,1
596,35.225,-97.459,358.7,12.44,15.17,328,-0.266,1.798,9.507,1
597,35.225,-97.459,0.8,12.66,15.17,328,-0.362,1.834,9.555,1
598,35.225,-97.459,0,12.39,15.17,328,-0.341,2.032,9.381,1
599,35.225,-97.459,0.2,12.39,13.653,328,-0.255,2.144,9.435,1
600,35.225,-97.459,0.8,12.58,13.653,329,-0.202,2.287,9.385,1
601,35.225,-97.459,0.9,13.05,13.653,327,-0.217,2.156,9.372,1
602,35.226,-97.459,0.7,13.28,13.653,328,-0.36,2.029,9.346,1
603,35.226,-97.459,359.9,12.64,13.653,329,-0.344,1.957,9.504,1
604,35.226,-97.459,359.8,12.65,13.653,330,-0.334,1.921,9.308,1
605,35.226,-97.459,359.5,12.55,13.653,330,-0.246,1.971,9.541,1
606,35.226,-97.459,359.6,12.41,13.653,329,-0.237,1.88,9.492,1
607,35.226,-97.459,0,12.27,13.653,330,-0.099,1.995,9.474,1
608,35.226,-97.459,359.8,12.13,13.653,329,-0.228,2.281,9.452,1
609,35.226,-97.459,0,12.53,13.653,329,-0.241,2.423,9.418,1
610,35.226,-97.459,0.2,12.55,13.653,327,-0.232,2.289,9.437,1
611,35.227,-97.459,0.1,12.95,13.653,326,-0.269,2.276,9.476,1
612,35.227,-97.459,357.8,13.23,13.653,326,-0.308,2.362,9.394,1
613,35.227,-97.459,359.4,13.24,13.653,326,-0.358,2.411,9.487,1
614,35.227,-97.459,359,13.06,15.17,328,-0.336,2.313,9.391,1
615,35.227,-97.459,359.3,13.62,15.17,328,-0.423,2.026,9.507,1
616,35.227,-97.459,359.9,14,13.653,328,-0.444,1.846,9.57,1
617,35.227,-97.459,0.2,13.44,13.653,328,-0.385,2.064,9.516,1
618,35.227,-97.459,358.5,13.42,13.653,328,-0.372,2.188,9.427,1
619,35.228,-97.459,0.4,13.66,13.653,328,-0.298,1.863,9.408,1
620,35.228,-97.459,357.8,13.21,13.653,329,-0.272,1.96,9.361,0
621,35.228,-97.459,358.4,13.21,13.653,329,-0.221,1.946,9.564,0
622,35.228,-97.459,1.3,12.74,13.653,330,-0.287,1.993,9.542,0
623,35.228,-97.459,0.4,12.86,13.653,330,-0.298,1.897,9.566,0
624,35.228,-97.459,0.4,12.37,13.653,330,-0.178,1.756,9.456,0
625,35.228,-97.459,0.4,12.16,13.653,330,-0.144,2.068,9.495,0
626,35.228,-97.459,0.3,12.25,13.653,331,-0.182,1.905,9.519,0
627,35.228,-97.459,359.6,12.05,13.653,330,-0.052,2.237,9.429,0
628,35.229,-97.459,359.1,12.19,13.653,330,-0.09,2.267,9.386,1
629,35.229,-97.459,0.3,12.4,13.653,329,-0.149,2.347,9.379,1
630,35.229,-97.459,0.7,12.65,13.653,330,-0.147,2.287,9.44,1
631,35.229,-97.459,359.5,12.79,13.653,329,-0.168,2.133,9.452,1
632,35.229,-97.459,358.8,12.93,13.653,329,-0.162,1.89,9.456,1
633,35.229,-97.459,359.8,12.36,13.653,329,-0.111,2.056,9.499,1
634,35.229,-97.459,359.6,12.53,13.653,329,-0.076,2.128,9.443,1
635,35.229,-97.459,359.6,12.76,13.653,329,-0.044,2.158,9.424,1
636,35.229,-97.459,359.5,12.86,13.653,329,-0.056,2.163,9.453,1
637,35.23,-97.459,0.7,12.62,13.653,328,0.002,2.382,9.435,1
638,35.23,-97.459,1,12.94,13.653,329,-0.083,2.471,9.265,1
639,35.23,-97.459,0.9,13.47,13.653,328,-0.118,2.518,9.411,1
640,35.23,-97.459,359.9,14.01,13.653,328,-0.083,2.493,9.354,1
641,35.23,-97.459,359.3,14.24,13.653,330,-0.058,2.439,9.338,1
642,35.23,-97.459,0,14.45,13.653,330,-0.043,2.397,9.338,1
643,35.23,-97.459,0.1,14.97,13.653,331,-0.094,2.091,9.463,1
644,35.23,-97.459,359.4,14.98,13.653,330,-0.151,2.065,9.433,1
645,35.231,-97.459,0.1,14.87,13.653,330,-0.186,2.224,9.447,1
646,35.231,-97.459,0.1,14.89,13.653,330,-0.112,2.047,9.452,1
647,35.231,-97.459,0.5,14.89,13.653,331,-0.234,1.798,9.534,1
648,35.231,-97.459,0.2,14.64,13.653,330,-0.152,1.886,9.528,1
649,35.231,-97.459,0.6,14.22,13.653,331,-0.235,2.19,9.575,0
650,35.231,-97.459,359.8,14.34,13.653,331,-0.286,2.115,9.395,0
651,35.231,-97.459,359.4,14.83,13.653,331,-0.179,1.902,9.518,0
652,35.232,-97.459,359.4,14.41,13.653,331,-0.112,2.154,9.434,0
