time,lat,lng,bearing,spd,acc,alt,accx,accy,accz,stable,
0,35.209,-97.44,0,0,4,312,-0.314,3.408,9.365,0
1,35.209,-97.44,0,0,4,312,-0.32,3.404,9.344,0
2,35.209,-97.44,0,0,4,312,-0.33,3.394,9.34,0
3,35.209,-97.44,0,0,4,312,-0.31,3.411,9.324,0
4,35.209,-97.44,0,0,4,312,-0.3,3.401,9.339,0
5,35.209,-97.44,0,0,4,312,-0.307,3.419,9.344,0
6,35.209,-97.44,0,0,4,312,-0.274,3.4,9.297,0
7,35.209,-97.44,0,0,4,312,-0.291,3.876,9.205,1
8,35.209,-97.44,357.5,0.48042,3,305,-0.276,3.63,9.3,0
9,35.209,-97.44,357.8,0.66,3,306,-0.287,3.687,9.239,0
11,35.209,-97.44,357.8,0.89006,3,307,-0.034,3.847,9.432,0
12,35.209,-97.44,4,1.3039,3,307,0.308,3.484,9.12,0
13,35.209,-97.44,4.6,1.7303,3,308,0.419,3.485,9.293,0
14,35.209,-97.44,51,1.91,3,308,0.694,3.821,9.169,0
15,35.209,-97.44,73.6,2.2971,3,308,0.422,4.143,9.061,0
16,35.209,-97.44,93,3.4504,3,308,-0.125,4.27,9.193,0
17,35.209,-97.44,90.9,4.1606,3,309,0.002,3.936,8.978,0
18,35.209,-97.44,90.4,4.9112,3,309,-0.124,3.489,9.195,0
19,35.209,-97.44,89.4,5.4703,3,310,-0.096,3.475,9.408,0
20,35.209,-97.44,89,5.89,3,310,-0.126,3.39,9.369,0
21,35.209,-97.44,89.3,5.9601,3,310,-0.078,3.386,9.006,0
22,35.209,-97.44,90.2,5.9103,3,311,0.144,3.27,9.171,0
23,35.209,-97.44,90.4,5.85,4,311,-0.066,3.295,9.324,0
24,35.209,-97.44,90.6,5.74,4,310,0.623,3.341,9.35,0
25,35.209,-97.44,90.2,5.6201,4,311,0.398,3.488,9.444,0
26,35.209,-97.44,89.4,5.4501,4,311,0.52,3.218,9.209,0
27,35.209,-97.44,88.8,5.37,4,311,0.439,3.179,9.202,0
28,35.209,-97.44,88.6,5.06,4,311,0.537,3.264,9.346,0
29,35.209,-97.44,87.9,4.8503,3,313,0.584,3.27,9.486,0
30,35.209,-97.439,88.3,4.7113,3,312,0.541,3.322,8.902,0
31,35.209,-97.439,90.2,4.51,3,312,0.164,3.478,9.468,0
32,35.209,-97.439,90.1,4.2604,3,312,0.211,3.447,9.057,0
33,35.209,-97.439,89.8,4.01,3,312,0.37,3.329,9.638,0
34,35.209,-97.439,87.6,3.67,3,312,-0.464,3.375,9.209,0
35,35.209,-97.439,79.8,4.1002,3,313,-1.18,3.34,9.939,0
36,35.209,-97.439,66.1,3.0528,3,313,-0.895,2.895,9.141,0
37,35.209,-97.439,34,2.8414,3,313,-1.087,2.988,9.207,0
38,35.209,-97.439,17.4,2.5928,3,314,-0.829,3.341,9.303,0
39,35.209,-97.439,13.6,2.2522,3,313,-0.502,3.72,9.304,0
40,35.209,-97.439,3.6,2.3602,3,313,-0.6,4.011,9.229,0
42,35.209,-97.439,3.8,2.71,3,312,-1.207,3.96,9.103,0
43,35.21,-97.439,337.9,2.8609,3,311,-1.651,3.737,9.402,0
44,35.21,-97.439,335,2.673,3,312,-1.712,3.803,9.181,0
45,35.21,-97.439,310.6,3.4015,3,312,-0.739,3.941,9.113,0
46,35.21,-97.439,291.7,4.07,3,312,-0.386,4.048,9.181,0
47,35.21,-97.439,280.5,4.2,3,312,-0.175,3.927,9.479,0
48,35.21,-97.439,270.3,4.54,3,312,-0.012,3.198,9.26,0
49,35.21,-97.439,270.7,4.42,3,312,0.477,2.981,9.441,0
50,35.21,-97.439,270.4,3.9,3,313,1.448,2.584,9.465,0
51,35.21,-97.44,272.8,3.2602,3,313,1.284,2.927,9.284,0
52,35.21,-97.44,318.1,2.27,3,313,0.943,3.476,9.273,0
53,35.21,-97.44,340.1,2.28,3,313,0.737,4.038,9.115,0
54,35.21,-97.44,350.5,2.1353,3,314,0.102,3.406,9.323,0
55,35.21,-97.44,351.6,1.7901,3,315,-0.024,3.735,8.927,0
56,35.21,-97.44,351.7,1.1507,3,315,0.074,4.837,8.957,0
57,35.21,-97.44,351.8,1.05,3,315,0.593,4.513,9.028,0
58,35.21,-97.44,13.1,1.8697,3,316,0.786,4.365,9.016,0
59,35.21,-97.44,31.3,2.3935,3,316,1.102,4.308,8.921,0
60,35.21,-97.439,55.5,3.9074,3,316,0.372,4.862,9.1,0
61,35.21,-97.439,74,4.9454,3,317,-0.309,4.527,8.784,0
62,35.21,-97.439,89.7,5.8605,3,317,-0.528,3.758,9.346,0
63,35.21,-97.439,90.9,5.83,3,316,-0.6,3.52,9.504,0
64,35.21,-97.439,90,5.5101,3,315,-0.733,2.761,9.484,0
65,35.21,-97.439,91.4,5.12,4,316,-0.739,2.306,9.662,0
66,35.21,-97.439,92.2,3.9506,4,316,-0.685,2.286,9.824,0
67,35.21,-97.439,94.8,2.9411,4,315,-0.613,2.627,9.543,0
68,35.21,-97.439,89.6,1.3219,4,316,-0.706,4.552,9.07,0
69,35.21,-97.439,80.9,2.16,4,315,-1.241,4.509,9.061,0
70,35.21,-97.439,75.2,3.1508,4,316,-2.037,4.891,8.791,0
71,35.21,-97.439,54.8,3.7519,4,316,-2.646,4.717,8.746,0
72,35.21,-97.439,17.5,5.98,4,315,-1.735,4.809,8.968,0
73,35.21,-97.439,12.4,7.1009,4,315,-0.848,4.647,8.764,0
74,35.21,-97.439,2.5,8.2109,4,315,-0.571,4.161,8.851,0
75,35.21,-97.439,0.9,8.87,4,314,-0.391,4.104,9.087,0
77,35.21,-97.439,0.1,9.25,4,314,-0.413,4.046,9.139,0
78,35.21,-97.439,0,9.68,4,315,-0.301,4.069,9.085,0
79,35.21,-97.439,359.7,10.13,3,315,-0.23,3.568,9.172,0
80,35.21,-97.439,0,10.21,3,314,-0.431,3.304,9.224,0
81,35.21,-97.439,359.9,9.75,3,315,-0.42,3.149,9.325,0
82,35.211,-97.439,0.7,9.2216,3,315,-0.497,3.211,9.311,0
83,35.211,-97.439,0.1,8.7501,3,316,-0.451,3.189,9.402,0
84,35.211,-97.439,0.1,8.2401,3,315,-0.29,2.826,9.428,0
85,35.211,-97.439,0.4,7.7202,3,316,-0.314,2.937,9.444,0
86,35.211,-97.439,0.5,7.1105,3,315,-0.188,2.429,9.912,0
87,35.211,-97.439,0.7,5.94,3,316,-0.545,2.479,9.506,0
88,35.211,-97.439,0.5,4.7402,3,316,-0.492,2.877,9.649,0
89,35.211,-97.439,0.9,3.85,3,316,-0.653,2.957,9.713,0
90,35.211,-97.439,1,3.0801,3,316,-0.437,3.017,9.393,0
91,35.211,-97.439,0.3,2.3401,3,317,-0.349,2.397,9.68,0
92,35.211,-97.439,0.4,1.2902,3,317,-0.273,3.161,9.276,0
93,35.211,-97.439,0.4,1.2902,3,317,-0.235,3.439,9.398,0
94,35.211,-97.439,0.4,1.2902,3,317,-0.11,5.449,8.843,0
95,35.211,-97.439,0.8,1.0512,3,317,-1.309,6.198,8.829,0
96,35.211,-97.439,1.9,4.06,3,316,-4.614,5.092,8.746,0
97,35.211,-97.439,338.4,6.2218,3,317,-5.976,4.301,8.894,0
98,35.211,-97.439,301.2,7.7505,3,317,-2.665,4.969,8.711,0
99,35.211,-97.439,269.2,11.19,3,316,-1.58,4.65,9.028,0
100,35.211,-97.439,269.3,12.16,3,316,-1.082,4.286,9.045,0
101,35.211,-97.439,269.9,12.81,3,316,-0.896,3.969,9.005,0
102,35.211,-97.44,270.6,12.97,3,316,-0.833,3.478,9.594,0
103,35.211,-97.44,270.9,12.97,3,316,-0.702,3.297,9.416,0
104,35.211,-97.44,271.9,12.64,3,315,-0.511,3.171,9.267,0
105,35.211,-97.44,272.5,12.27,3,315,-0.777,3.402,9.111,0
106,35.211,-97.44,273.2,12.04,3,315,-0.939,3.389,9.382,0
107,35.211,-97.44,272,11.681,3,315,-1.123,3.085,9.454,0
108,35.211,-97.44,271.7,11.32,3,316,-0.884,2.773,9.522,0
109,35.211,-97.441,271.3,10.511,3,315,-0.924,2.6,9.661,0
110,35.211,-97.441,270.4,9.3812,3,315,-0.725,2.374,9.814,0
111,35.211,-97.441,270.7,8.1105,3,316,-0.539,2.277,9.624,0
112,35.211,-97.441,270.4,6.8002,3,316,-0.628,2.563,9.596,0
113,35.211,-97.441,270.8,6.03,3,316,-0.743,2.791,9.663,0
114,35.211,-97.441,270.4,5.2902,3,315,-0.96,2.944,9.646,0
115,35.211,-97.441,270.6,4.5303,3,314,-0.84,2.77,9.501,0
117,35.211,-97.441,270.3,3.6702,3,313,-0.779,2.394,9.643,0
118,35.211,-97.441,268.8,2.4413,3,313,-0.844,2.774,9.429,0
119,35.211,-97.441,267.9,1.6836,3,313,-0.74,2.479,9.543,0
120,35.211,-97.441,267.9,1.6836,3,313,-0.892,3.174,9.342,0
121,35.211,-97.441,0,0,3,313,-0.945,3.449,9.244,0
122,35.211,-97.441,0,0,3,313,-0.992,3.562,9.244,0
123,35.211,-97.441,0,0,3,313,-0.998,3.568,9.294,0
124,35.211,-97.441,0,0,3,313,-0.984,3.571,9.314,0
125,35.211,-97.441,0,0,3,313,-0.991,3.556,9.292,0
126,35.211,-97.441,0,0,3,313,-0.989,3.553,9.294,0
127,35.211,-97.441,0,0,3,313,-0.975,3.556,9.317,0
128,35.211,-97.441,0,0,3,313,-0.987,3.56,9.31,0
129,35.211,-97.441,0,0,3,313,-0.985,3.562,9.288,0
130,35.211,-97.441,0,0,3,313,-0.973,3.556,9.323,0
131,35.211,-97.441,0,0,3,313,-0.982,3.56,9.32,0
132,35.211,-97.441,0,0,3,313,-0.978,3.558,9.283,0
133,35.211,-97.441,0,0,3,313,-0.982,3.571,9.314,0
134,35.211,-97.441,0,0,3,313,-0.979,3.563,9.306,0
135,35.211,-97.441,0,0,3,313,-0.986,3.56,9.317,0
136,35.211,-97.441,0,0,3,313,-0.984,3.566,9.304,0
137,35.211,-97.441,0,0,3,313,-0.981,3.567,9.32,0
138,35.211,-97.441,0,0,3,313,-0.982,3.561,9.297,0
139,35.211,-97.441,0,0,3,313,-0.98,3.567,9.294,0
140,35.211,-97.441,0,0,3,313,-0.987,3.567,9.275,0
141,35.211,-97.441,0,0,3,313,-0.985,3.568,9.315,0
142,35.211,-97.441,0,0,3,313,-0.626,3.593,9.284,0
143,35.211,-97.441,0,0,3,313,-0.217,3.648,9.271,0
144,35.211,-97.441,0,0,3,313,-0.201,3.653,9.294,0
145,35.211,-97.441,0,0,3,313,-0.18,3.662,9.265,0
146,35.211,-97.441,0,0,3,313,-0.179,3.652,9.275,0
147,35.211,-97.441,0,0,3,313,-0.179,3.657,9.261,0
148,35.211,-97.441,0,0,3,313,-0.174,3.656,9.286,0
149,35.211,-97.441,0,0,3,313,-0.179,3.651,9.279,0
150,35.211,-97.441,0,0,3,313,-0.178,3.656,9.268,0
151,35.211,-97.441,0,0,3,313,-0.184,3.663,9.281,0
152,35.211,-97.441,0,0,3,313,-0.172,3.668,9.255,0
153,35.211,-97.441,0,0,3,313,-0.163,3.655,9.28,0
154,35.211,-97.441,0,0,3,313,-0.171,3.656,9.297,0
155,35.211,-97.441,0,0,3,313,-0.179,3.67,9.269,0
156,35.211,-97.441,0,0,3,313,-0.18,3.669,9.291,0
157,35.211,-97.441,0,0,3,313,-0.172,3.655,9.303,0
158,35.211,-97.441,0,0,3,313,-0.172,3.667,9.275,0
159,35.211,-97.441,0,0,3,313,-0.182,3.668,9.272,0
160,35.211,-97.441,0,0,3,313,-0.178,3.709,9.258,0
161,35.211,-97.441,0,0,3,313,-0.038,5.632,8.696,0
163,35.211,-97.441,270.5,2.03,3,317,-0.211,5.813,8.475,0
164,35.211,-97.441,270.5,4.2,3,317,-0.032,5.627,8.793,0
165,35.211,-97.441,269.8,6.1101,3,317,-0.052,5.489,9.004,0
166,35.211,-97.441,270.2,7.85,3,317,-0.123,4.979,8.865,0
167,35.211,-97.441,270,9.23,3,317,-0.107,5.001,9.009,0
168,35.211,-97.442,269.6,10.4,3,318,0.066,4.595,8.543,0
169,35.211,-97.442,269.9,11.52,3,318,-0.169,4.654,9.574,0
170,35.211,-97.442,269.6,12.45,3,318,-0.041,3.696,9.278,0
171,35.211,-97.442,269.4,12.76,4,319,-0.292,3.515,9.318,0
172,35.211,-97.442,269.8,12.51,4,319,-0.342,3.917,9.47,0
173,35.211,-97.442,270.4,12.48,4,319,-0.094,3.734,9.133,0
174,35.211,-97.442,269.6,12.44,4,320,0.313,4.151,9.622,0
175,35.211,-97.442,270,12.44,4,320,0.142,4.199,8.99,0
176,35.211,-97.443,269.8,12.91,4,320,-0.087,4.249,9.185,0
177,35.211,-97.443,269.7,13.42,4,321,-0.236,4.847,9.118,0
178,35.211,-97.443,269.6,14.16,4,322,-0.155,4.777,8.877,0
179,35.211,-97.443,270,15.29,4,323,-0.124,4.691,8.403,0
180,35.211,-97.443,271,16.36,5,323,-0.045,3.73,9.055,0
181,35.211,-97.443,271.4,17,4,322,0.164,3.164,8.833,0
182,35.211,-97.444,271.6,16.78,4,322,-0.218,3.244,8.333,0
183,35.211,-97.444,272.1,16.49,4,321,-0.072,3.875,9.137,0
184,35.211,-97.444,272.6,16.05,3,321,-0.667,2.617,9.421,0
185,35.211,-97.444,272.6,15.6,3,320,-0.879,1.801,9.928,0
186,35.211,-97.444,271,14.06,3,320,-0.547,2.28,9.509,0
187,35.211,-97.444,270.2,11.99,3,320,-0.291,2.712,9.525,0
188,35.211,-97.445,270.5,11.04,3,320,-0.83,3.305,8.662,0
189,35.211,-97.445,271,10.27,3,321,-0.344,3.683,9.19,0
190,35.211,-97.445,268.9,9.3821,3,320,-0.375,3.456,9.029,0
191,35.211,-97.445,270.1,9.1718,3,321,-0.324,3.623,9.271,0
192,35.211,-97.445,270.1,9.1901,3,321,-0.415,3.507,9.302,0
193,35.211,-97.445,270,9.1301,3,320,-0.355,3.745,9.355,0
194,35.211,-97.445,270.1,9.23,3,321,-0.228,3.73,9.328,0
195,35.211,-97.445,270.4,9.28,3,320,-0.245,3.664,9.361,0
196,35.211,-97.446,269.9,9.2401,3,320,-0.267,3.554,9.472,0
197,35.211,-97.446,270.4,9.11,3,319,-0.334,3.892,9.237,0
198,35.211,-97.446,270.1,9.35,3,320,-0.238,4.224,9.157,0
199,35.211,-97.446,269.9,9.87,3,319,-0.354,3.848,8.89,0
200,35.211,-97.446,269.8,10.2,3,319,-0.176,3.844,8.571,0
201,35.211,-97.446,270.2,10.37,3,319,-0.465,4.112,9.081,0
202,35.211,-97.446,270.3,10.75,3,319,-0.487,3.845,8.958,0
203,35.211,-97.446,270,10.76,3,319,-0.351,3.726,9.032,0
204,35.211,-97.446,270,10.79,3,320,-0.441,3.829,9.18,0
205,35.211,-97.447,269.4,10.95,3,321,-0.375,4.152,8.983,0
206,35.211,-97.447,269.8,11.46,3,321,-0.41,4.132,9.163,0
207,35.211,-97.447,269.7,11.71,3,322,-0.38,3.553,8.949,0
208,35.211,-97.447,270.4,11.29,3,324,-0.352,3.479,8.616,0
210,35.211,-97.447,270.3,11.341,3,324,-0.549,3.837,9.102,0
211,35.211,-97.447,269.8,11.68,3,323,-0.413,4.306,9.009,0
212,35.211,-97.447,269.8,12.17,3,323,-0.193,4.495,9.191,0
213,35.211,-97.447,269.5,12.99,3,323,-0.32,3.707,9.626,0
214,35.211,-97.448,270,13.07,3,322,-0.224,3.245,9.117,0
215,35.211,-97.448,270.5,12.64,3,322,-0.337,3.338,9.186,0
216,35.211,-97.448,269.6,12.49,3,323,-0.422,4.691,8.689,0
217,35.211,-97.448,269.3,13.571,3,323,-0.289,4.8,8.655,0
218,35.211,-97.448,269.9,14.99,3,322,-0.523,3.488,9.184,0
219,35.211,-97.448,269.8,14.93,3,322,-0.429,2.88,9.138,0
220,35.211,-97.449,269,14.251,3,321,-0.939,1.241,9.922,0
221,35.211,-97.449,269,12.391,9,322,-0.69,2.274,9.629,0
222,35.211,-97.449,267.4,10.07,9,322,-0.651,2.968,9.477,0
223,35.211,-97.449,266.2,9.7603,9,322,-0.562,1.988,9.657,0
224,35.211,-97.449,265.2,7.9404,9,323,-0.095,1.978,9.688,0
225,35.211,-97.449,266.3,6.5315,9,323,-0.345,0.729,9.956,0
226,35.211,-97.449,268.2,3.8169,9,322,-0.164,2.598,9.465,0
227,35.211,-97.449,267,1.9251,9,322,-0.131,3.416,9.312,0
228,35.211,-97.449,266.7,1.5412,9,322,-0.163,3.313,9.197,0
229,35.211,-97.449,267.3,1.21,9,323,-0.176,3.386,9.188,0
230,35.211,-97.449,267.3,0.83,9,322,-0.15,3.772,9.359,0
231,35.211,-97.449,267.3,0.83,9,322,-0.09,4.49,9.08,0
232,35.211,-97.449,267.2,1.3106,9,323,-0.084,5.842,8.565,0
233,35.211,-97.449,268.1,2.9614,9,323,-0.066,4.476,8.992,0
234,35.211,-97.449,270.2,5.0404,9,323,-0.132,1.728,9.746,0
235,35.211,-97.449,266.7,4.0803,9,322,-0.156,2.541,9.587,0
236,35.211,-97.449,269.8,2.2901,9,322,-0.14,2.987,9.388,0
237,35.211,-97.449,270.5,1.0523,9,322,-0.136,3.007,9.448,0
238,35.211,-97.449,270.5,1.0523,9,322,-0.135,3.647,9.355,0
239,35.211,-97.449,270.5,1.0523,9,322,-0.088,5.108,8.946,0
240,35.211,-97.449,269.6,2.4613,10,323,-0.095,5.709,8.727,0
241,35.211,-97.449,269.7,4.5119,9,324,-0.083,5.802,8.612,0
242,35.211,-97.449,270.4,6.7001,9,325,-0.342,5.299,8.906,0
243,35.211,-97.45,269.1,8.21,9,325,0.206,5.593,8.637,0
244,35.211,-97.45,269.7,9.8,9,324,-0.182,4.25,9.151,0
245,35.211,-97.45,269.4,10.33,9,324,-0.177,4.207,9.264,0
246,35.211,-97.45,269.2,10.57,9,324,-0.165,3.988,9.203,0
247,35.211,-97.45,270.1,10.75,9,323,-0.195,3.722,9.54,0
248,35.211,-97.45,270.2,10.61,9,323,-0.01,3.921,9.065,0
249,35.211,-97.45,270.4,11.01,9,323,0.031,4.116,9.032,0
250,35.211,-97.45,270.5,11.55,9,322,-0.245,4.586,9.092,0
251,35.211,-97.45,270.5,12.32,9,322,-0.273,3.901,9.004,0
252,35.211,-97.451,270.2,12.72,9,323,-0.12,3.134,9.7,0
253,35.211,-97.451,268.3,12.52,9,323,-0.365,3.322,9.113,0
254,35.211,-97.451,269.3,12.38,9,322,-0.318,3.319,9.057,0
255,35.211,-97.451,270,11.96,9,322,-0.274,3.301,9.137,0
256,35.211,-97.451,269.8,11.6,9,322,-0.294,3.176,9.584,0
258,35.211,-97.451,270,11.35,9,322,-0.365,3.073,9.115,0
259,35.211,-97.451,270.2,10.83,9,322,-0.247,2.89,8.97,0
260,35.211,-97.452,270.6,10.44,9,322,-0.308,2.595,9.426,0
261,35.211,-97.452,270.7,9.37,9,322,-0.196,2.964,9.358,0
262,35.211,-97.452,270.2,8.3304,9,321,-0.217,3.081,9.229,0
263,35.211,-97.452,269.9,7.9005,9,322,-0.177,2.121,9.713,0
264,35.211,-97.452,270,6.8609,9,322,-0.416,2.45,9.58,0
265,35.211,-97.452,267,5.5306,9,323,-0.36,2.176,9.615,0
266,35.211,-97.452,270.3,4.4609,9,322,-0.388,2.531,9.513,0
267,35.211,-97.452,271,3.4112,9,322,-0.44,2.968,9.521,0
268,35.211,-97.452,270.6,2.6505,9,322,-0.426,3.116,9.397,0
269,35.211,-97.452,269.1,2.1902,9,322,-0.385,3.157,9.384,0
270,35.211,-97.452,269,2.1195,9,321,-0.395,2.816,9.551,0
271,35.211,-97.452,268.9,1.16,9,321,-0.373,2.763,9.504,0
272,35.211,-97.452,268.9,1.16,9,321,-0.349,3.336,9.325,0
273,35.211,-97.452,268.9,1.16,9,321,-0.35,3.49,9.36,0
274,35.211,-97.452,0,0,9,321,-0.343,3.523,9.301,0
275,35.211,-97.452,0,0,9,321,-0.352,3.522,9.31,0
276,35.211,-97.452,0,0,9,321,-0.355,3.51,9.348,0
277,35.211,-97.452,0,0,9,321,-0.35,3.521,9.32,0
278,35.211,-97.452,0,0,9,321,-0.351,3.516,9.345,0
279,35.211,-97.452,0,0,9,321,-0.351,3.817,9.275,0
280,35.211,-97.452,0,0,9,321,-0.281,4.925,8.899,0
281,35.211,-97.452,0,0,9,321,-0.275,5.1,8.825,0
282,35.211,-97.452,277.3,2.5454,9,322,-0.297,4.049,9.155,0
283,35.211,-97.452,272.5,3.4583,9,321,-0.299,3.773,9.213,0
284,35.211,-97.452,272,3.9418,9,321,-0.276,3.645,9.269,0
285,35.211,-97.452,272,4.071,9,322,-0.125,4.512,9.082,0
286,35.211,-97.452,271.7,4.4816,9,321,-0.14,4.364,9.109,0
287,35.211,-97.452,272.2,4.8504,9,326,-0.139,4.444,9.17,0
288,35.211,-97.452,273.2,5.9,9,325,-0.243,3.665,9.265,0
289,35.211,-97.453,269.5,7.5404,9,323,-0.343,4.051,9.254,0
290,35.211,-97.453,269.2,7.48,9,324,-0.418,3.817,9.247,0
291,35.211,-97.453,269.7,8.28,10,324,-0.284,4.518,9.061,0
292,35.211,-97.453,273.2,8.66,10,323,-0.288,3.853,9.051,0
293,35.211,-97.453,270.5,9.7207,9,331,-0.07,3.522,9.03,0
294,35.211,-97.453,271,9.3803,9,329,-0.484,3.61,9.259,0
295,35.211,-97.453,269.2,9.9316,9,327,-0.204,3.257,9.494,0
296,35.211,-97.453,268.4,9.9109,9,325,-0.282,3.387,9.474,0
297,35.211,-97.453,269.6,9.89,9,326,-0.544,3.226,9.584,0
298,35.211,-97.454,270.5,10.01,9,325,-0.522,3.05,9.686,0
299,35.211,-97.454,270.4,9.6203,9,323,-0.318,2.969,9.474,0
300,35.211,-97.454,269.9,9.31,9,324,-0.555,3.117,9.162,0
301,35.211,-97.454,269.3,9.05,9,323,-0.334,3.394,9.274,0
302,35.211,-97.454,270.2,8.7801,9,323,-0.555,3.299,9.508,0
303,35.211,-97.454,270.1,8.5008,9,324,-0.244,3.131,9.636,0
304,35.211,-97.454,269.6,8.5307,10,322,-0.268,3.433,9.495,0
305,35.211,-97.454,271.6,8.3801,10,321,-0.47,4.011,9.217,0
306,35.211,-97.454,271.6,8.55,10,321,-0.482,3.941,9.278,0
307,35.211,-97.454,271.9,8.9103,11,322,-0.231,4.088,9.151,0
308,35.211,-97.455,268.4,9.44,10,320,-0.143,3.81,9.131,0
309,35.211,-97.455,269.7,9.65,10,321,-0.133,4.08,9.426,0
310,35.211,-97.455,270.9,9.7402,9,321,-0.313,3.893,9.087,0
311,35.211,-97.455,270.5,9.87,9,320,-0.45,4.144,9.202,0
312,35.211,-97.455,270.7,10.25,9,320,-0.264,4.159,8.971,0
314,35.211,-97.455,271.5,10.67,9,318,-0.346,4.333,8.928,0
315,35.211,-97.455,270.7,11.091,9,318,-0.377,4.347,9.023,0
316,35.211,-97.455,270.8,11.33,9,319,-0.279,4.226,9.059,0
317,35.211,-97.456,270.3,11.631,9,319,-0.401,4.055,9.132,0
318,35.211,-97.456,271,11.92,9,319,-0.394,4.037,9.213,0
319,35.211,-97.456,270.4,11.89,9,319,-0.205,4.133,9.178,0
320,35.211,-97.456,269.8,11.99,9,319,-0.205,4.166,8.981,0
321,35.211,-97.456,269,11.85,9,320,-0.156,3.906,8.839,0
322,35.211,-97.456,270.7,12.13,9,321,-0.3,3.669,9.227,0
323,35.211,-97.456,270.2,12.8,10,322,-0.313,3.525,9.476,0
324,35.211,-97.456,270,12.02,10,334,-0.17,3.493,9.011,0
325,35.211,-97.457,268.9,12.31,10,332,-0.355,3.769,9.016,0
326,35.211,-97.457,271.1,11.825,10,327,-0.021,3.672,9.066,0
327,35.211,-97.457,269,11.681,10,326,-0.263,3.798,8.932,0
328,35.211,-97.457,271,12.064,9,324,-0.123,3.28,8.97,0
329,35.211,-97.457,270.7,12.081,9,323,-0.032,3.539,9.288,0
330,35.211,-97.457,270.8,11.74,9,321,-0.217,3.44,9.459,0
331,35.211,-97.457,270.3,11.58,9,320,-0.358,3.476,9.274,0
332,35.211,-97.457,270.4,11.31,9,320,-0.164,3.424,9.219,0
333,35.211,-97.458,270.9,11.03,9,320,-0.256,2.872,9.648,0
334,35.211,-97.458,271.3,10.22,9,331,-0.326,2.401,9.389,0
335,35.211,-97.458,271.6,8.9401,9,327,-0.21,2.206,9.778,0
336,35.211,-97.458,271.5,7.53,9,325,-0.222,2.51,9.598,0
337,35.211,-97.458,271.5,6.0702,9,323,-0.3,2.66,9.662,0
338,35.211,-97.458,269.6,4.89,9,323,-0.267,2.99,9.493,0
339,35.211,-97.458,270.8,4.0424,9,322,-0.255,3.071,9.457,0
340,35.211,-97.458,273.9,3.5817,9,321,-0.275,3.313,9.396,0
341,35.211,-97.458,269.9,3.0239,9,327,-0.28,3.372,9.513,0
342,35.211,-97.458,270.8,2.7028,9,324,-0.299,3.153,9.49,0
343,35.211,-97.458,272.7,2.2214,9,323,-0.3,2.921,9.39,0
344,35.211,-97.458,272.7,1.5473,9,321,-0.314,2.925,9.472,0
345,35.211,-97.458,272.7,1.5473,9,321,-0.304,3.414,9.269,0
346,35.211,-97.458,272.7,1.5473,9,321,-0.301,3.659,9.259,0
347,35.211,-97.458,0,0,10,319,-0.289,3.685,9.292,0
348,35.211,-97.458,0,0,10,319,-0.284,3.691,9.277,0
349,35.211,-97.458,0,0,10,319,-0.293,3.695,9.255,0
350,35.211,-97.458,0,0,10,319,-0.294,3.706,9.26,0
351,35.211,-97.458,0,0,10,319,-0.3,3.704,9.294,0
352,35.211,-97.458,0,0,10,319,-0.304,3.7,9.258,0
353,35.211,-97.458,0,0,10,319,-0.285,3.697,9.301,0
354,35.211,-97.458,0,0,10,319,-0.29,3.695,9.28,0
355,35.211,-97.458,0,0,10,319,-0.288,3.706,9.252,0
356,35.211,-97.458,0,0,10,319,-0.295,3.709,9.276,0
357,35.211,-97.458,0,0,10,319,-0.291,3.7,9.274,0
358,35.211,-97.458,0,0,10,319,-0.294,3.697,9.257,0
359,35.211,-97.458,0,0,10,319,-0.294,3.706,9.283,0
360,35.211,-97.458,0,0,10,319,-0.289,3.712,9.296,0
361,35.211,-97.458,0,0,10,319,-0.292,3.707,9.291,0
362,35.211,-97.458,0,0,10,319,-0.299,3.711,9.252,0
363,35.211,-97.458,0,0,10,319,-0.295,3.7,9.257,0
364,35.211,-97.458,0,0,10,319,-0.289,3.702,9.277,0
365,35.211,-97.458,0,0,10,319,-0.298,3.702,9.27,0
366,35.211,-97.458,0,0,10,319,-0.292,3.719,9.248,0
367,35.211,-97.458,0,0,10,319,-0.288,3.706,9.257,0
369,35.211,-97.458,0,0,10,319,-0.296,3.7,9.269,0
370,35.211,-97.458,0,0,10,319,-0.289,3.707,9.282,0
371,35.211,-97.458,0,0,10,319,-0.288,3.694,9.293,0
372,35.211,-97.458,0,0,10,319,-0.3,3.697,9.281,0
373,35.211,-97.458,0,0,10,319,-0.288,3.711,9.257,0
374,35.211,-97.458,0,0,10,319,-0.297,3.692,9.258,0
375,35.211,-97.458,0,0,10,319,-0.295,3.707,9.242,0
376,35.211,-97.458,0,0,10,319,-0.297,3.704,9.256,0
377,35.211,-97.458,0,0,10,319,-0.295,3.696,9.292,0
378,35.211,-97.458,0,0,10,319,-0.297,3.696,9.277,0
379,35.211,-97.458,0,0,10,319,-0.287,3.691,9.285,0
380,35.211,-97.458,0,0,10,319,-0.294,3.694,9.26,0
381,35.211,-97.458,0,0,10,319,-0.287,3.706,9.262,0
382,35.211,-97.458,0,0,10,319,-0.297,3.703,9.27,0
383,35.211,-97.458,0,0,10,319,-0.298,3.695,9.275,0
384,35.211,-97.458,0,0,10,319,-0.301,3.701,9.25,0
385,35.211,-97.458,0,0,10,319,-0.287,3.714,9.252,0
386,35.211,-97.458,0,0,10,319,-0.289,3.695,9.254,0
387,35.211,-97.458,0,0,10,319,-0.297,3.707,9.28,0
388,35.211,-97.458,0,0,10,319,-0.299,3.719,9.278,0
389,35.211,-97.458,0,0,10,319,-0.287,3.718,9.279,0
390,35.211,-97.458,0,0,10,319,-0.295,3.7,9.273,0
391,35.211,-97.458,0,0,10,319,-0.297,3.704,9.283,0
392,35.211,-97.458,0,0,10,319,-0.288,3.703,9.284,0
393,35.211,-97.458,0,0,10,319,-0.295,3.691,9.267,0
394,35.211,-97.458,0,0,10,319,-0.287,3.884,9.262,0
395,35.211,-97.458,0,0,10,319,-0.247,4.63,9.02,0
396,35.211,-97.458,0,0,10,319,-0.222,5.017,8.903,0
397,35.211,-97.458,0,0,10,319,-0.236,5.307,8.844,0
398,35.211,-97.458,272,2.55,9,317,-0.331,5.294,8.623,0
399,35.211,-97.458,277.7,3.8813,9,318,-0.33,5.209,8.904,0
400,35.211,-97.458,271.3,6.3,9,318,-0.369,4.801,8.796,0
401,35.211,-97.458,271.9,7.3807,9,317,-0.373,4.498,9.208,0
402,35.211,-97.459,267.5,7.92,9,317,-0.277,3.874,9.158,0
403,35.211,-97.459,270,9.1305,9,318,-0.224,2.354,9.864,0
404,35.211,-97.459,272.5,6.9706,9,316,0.756,2.304,9.833,0
405,35.211,-97.459,285.1,6.0901,9,317,3.167,2.129,8.916,0
406,35.211,-97.459,322.4,5.52,9,319,4.245,3.105,8.74,0
407,35.211,-97.459,325.5,5.7701,10,319,2.662,4.572,8.77,0
408,35.211,-97.459,339.7,7.8904,10,320,1.278,4.891,8.601,0
409,35.211,-97.459,357.5,10.061,10,320,0.858,4.756,8.597,0
410,35.212,-97.459,1.2,10.78,11,319,0.563,4.284,8.556,0
411,35.212,-97.459,359.8,11.67,12,319,0.59,4.725,8.749,0
412,35.212,-97.459,1.3,12.9,14,318,0.482,4.254,9.686,0
413,35.212,-97.459,358.3,13.442,11,318,1.117,3.646,9.033,0
414,35.212,-97.459,358.9,13.61,11,318,0.844,3.786,8.956,0
415,35.212,-97.459,359.9,13.81,10,320,0.212,4.037,8.489,0
416,35.212,-97.459,359.9,14.22,10,321,-0.19,4.205,8.92,0
417,35.212,-97.459,359.7,14.59,10,321,0.114,3.794,10.384,0
418,35.213,-97.459,359.3,14.65,10,321,-0.224,3.462,9.459,0
419,35.213,-97.459,358.4,14.41,10,321,0.278,3.09,8.612,0
420,35.213,-97.459,355.5,14.66,10,320,-0.1,3.441,9.318,0
421,35.213,-97.459,359.7,13.57,10,322,0.434,3.255,8.79,0
422,35.213,-97.459,359.7,13.16,9,323,0.058,3.552,10.009,0
423,35.213,-97.459,0.5,13.01,9,322,0.072,3.869,9.382,0
424,35.213,-97.459,0.1,13.01,9,323,-0.129,3.863,9.578,0
425,35.213,-97.459,0.3,13.05,9,324,-0.094,3.873,9.23,0
426,35.214,-97.459,359.9,13.17,9,323,0.081,3.516,9.66,0
427,35.214,-97.459,359.5,13.18,9,322,0.148,3.629,8.543,0
428,35.214,-97.459,359.6,13.27,9,322,0.098,4.12,9.586,0
429,35.214,-97.459,359.6,13.55,9,322,0.161,3.571,9.25,0
431,35.214,-97.459,359.9,13.57,9,323,-0.118,3.923,9.307,0
432,35.214,-97.459,0.3,13.59,4,322,0.092,3.956,9.572,0
433,35.214,-97.459,0.5,13.861,3,322,-0.053,3.661,9.171,0
434,35.214,-97.459,0.4,13.91,3,322,-0.421,3.881,9.59,0
435,35.215,-97.459,0.4,14.17,3,322,-0.55,3.785,8.723,0
436,35.215,-97.459,0.2,14.38,3,322,-0.353,3.787,9.029,0
437,35.215,-97.459,359.8,14.53,3,322,-0.37,3.644,8.955,0
438,35.215,-97.459,359.7,14.59,3,322,-0.089,3.323,9.446,0
439,35.215,-97.459,359.8,14.35,3,322,0.1,3.595,9.64,0
440,35.215,-97.459,0.2,14.06,3,322,0.257,3.392,9.812,0
441,35.215,-97.459,359.9,13.66,3,322,0.054,3.486,9.441,0
442,35.215,-97.459,359.7,13.44,3,322,-0.175,3.459,9.123,0
443,35.216,-97.459,359.5,13.181,3,323,-0.003,3.707,9.073,0
444,35.216,-97.459,0,13.2,3,323,-0.191,3.733,8.439,0
445,35.216,-97.459,0.1,13.39,3,323,0.074,3.85,9.196,0
446,35.216,-97.459,0.2,13.5,3,323,-0.03,3.881,9.164,0
447,35.216,-97.459,0.4,13.74,3,323,-0.229,3.297,9.226,0
448,35.216,-97.459,0.4,13.67,3,323,-0.284,3.471,8.959,0
449,35.216,-97.459,0.3,13.47,3,324,-0.123,3.632,8.887,0
450,35.216,-97.459,0.2,13.4,3,324,-0.493,3.333,8.794,0
451,35.217,-97.459,359.4,13.37,4,323,-0.206,3.64,9.496,0
452,35.217,-97.459,359.4,13.04,4,323,0.003,3.697,9.106,0
453,35.217,-97.459,359.7,13.04,4,323,-0.28,3.267,9.139,0
454,35.217,-97.459,1.2,12.57,4,323,-0.117,3.372,8.767,0
455,35.217,-97.459,0.1,12.29,5,323,-0.098,3.293,9.289,0
456,35.217,-97.459,0.1,11.99,4,324,-0.083,3.439,9.091,0
457,35.217,-97.459,0.6,11.54,4,325,-0.084,3.481,9.537,0
458,35.217,-97.459,0.5,11.421,4,324,-0.178,3.4,9.215,0
459,35.217,-97.459,0.7,11.02,4,324,-0.246,3.423,9.606,0
460,35.218,-97.459,1.5,10.59,3,324,-0.258,3.288,9.899,0
461,35.218,-97.459,1.4,10.22,3,324,-0.277,3.357,9.164,0
462,35.218,-97.459,1,9.8001,3,324,-0.444,3.138,9.617,0
463,35.218,-97.459,0.5,9.21,3,324,-0.218,3.211,9.847,0
464,35.218,-97.459,0.7,8.36,3,324,-0.011,2.625,9.158,0
465,35.218,-97.459,0.7,7.47,3,324,-0.309,2.766,9.789,0
466,35.218,-97.459,0.1,5.25,3,326,-0.298,2.204,9.406,0
467,35.218,-97.459,358.5,4.0221,3,326,-0.321,2.411,9.51,0
468,35.218,-97.459,359.9,2.96,3,325,-0.393,2.904,9.497,0
469,35.218,-97.459,0.6,2.12,3,325,-0.203,2.8,9.118,0
470,35.218,-97.459,0.6,1.34,3,326,-0.382,3.109,9.296,0
471,35.218,-97.459,0.6,1.34,3,326,-0.399,3.327,9.458,0
472,35.218,-97.459,0.6,0.47011,3,325,-0.349,3.119,9.452,0
473,35.218,-97.459,0.6,0.47011,3,325,-0.307,3.654,9.255,0
474,35.218,-97.459,0.6,0.47011,3,325,-0.297,3.743,9.233,0
475,35.218,-97.459,0.6,0.47011,3,325,-0.316,3.749,9.235,0
476,35.218,-97.459,0.6,0.47011,3,325,-0.314,3.748,9.238,0
477,35.218,-97.459,0.6,0.47011,3,325,-0.298,3.748,9.275,0
478,35.218,-97.459,0.6,0.47011,3,325,-0.302,3.74,9.246,0
479,35.218,-97.459,0.6,0.47011,3,325,-0.307,3.748,9.236,0
480,35.218,-97.459,0.6,0.47011,3,325,-0.303,3.74,9.247,0
481,35.218,-97.459,0.6,0.47011,3,325,-0.304,3.753,9.247,0
482,35.218,-97.459,0.6,0.47011,3,325,-0.303,3.756,9.248,0
483,35.218,-97.459,0.6,0.47011,3,325,-0.315,3.747,9.255,0
484,35.218,-97.459,0.6,0.47011,3,325,-0.315,3.755,9.245,0
485,35.218,-97.459,0.6,0.47011,3,325,-0.304,3.735,9.254,0
486,35.218,-97.459,0.6,0.47011,3,325,-0.311,3.754,9.249,0
487,35.218,-97.459,0.6,0.47011,3,325,-0.301,3.748,9.243,0
488,35.218,-97.459,0.6,0.47011,3,325,-0.311,3.739,9.248,0
489,35.218,-97.459,0.6,0.47011,3,325,-0.306,3.75,9.277,0
490,35.218,-97.459,0.6,0.47011,3,325,-0.299,3.743,9.283,0
492,35.218,-97.459,0.6,0.47011,3,325,-0.305,3.743,9.267,0
493,35.218,-97.459,0.6,0.47011,3,325,-0.298,3.758,9.237,0
494,35.218,-97.459,0.6,0.47011,3,325,-0.305,3.733,9.256,0
495,35.218,-97.459,0.6,0.47011,3,325,-0.312,3.752,9.241,0
496,35.218,-97.459,0.6,0.47011,3,325,-0.306,3.747,9.241,0
497,35.218,-97.459,0.6,0.47011,3,325,-0.305,3.746,9.245,0
498,35.218,-97.459,0.6,0.47011,3,325,-0.304,3.751,9.232,0
499,35.218,-97.459,0.6,0.47011,3,325,-0.311,3.74,9.253,0
500,35.218,-97.459,0.6,0.47011,3,325,-0.302,3.765,9.238,0
501,35.218,-97.459,0.6,0.47011,3,325,-0.313,3.746,9.253,0
502,35.218,-97.459,0.6,0.47011,3,325,-0.306,3.758,9.255,0
503,35.218,-97.459,0.6,0.47011,3,325,-0.309,3.748,9.241,0
504,35.218,-97.459,0.6,0.47011,3,325,-0.302,3.749,9.245,0
505,35.218,-97.459,0.6,0.47011,3,325,-0.306,3.744,9.272,0
506,35.218,-97.459,0.6,0.47011,3,325,-0.305,3.748,9.257,0
507,35.218,-97.459,0.6,0.47011,3,325,-0.308,3.75,9.241,0
508,35.218,-97.459,0.6,0.47011,3,325,-0.31,3.742,9.251,0
509,35.218,-97.459,0.6,0.47011,3,325,-0.3,3.746,9.26,0
510,35.218,-97.459,0.6,0.47011,3,325,-0.301,3.748,9.244,0
511,35.218,-97.459,0.6,0.47011,3,325,-0.304,3.755,9.237,0
512,35.218,-97.459,0.6,0.47011,3,325,-0.318,3.749,9.272,0
513,35.218,-97.459,0.6,0.47011,3,325,-0.306,3.748,9.237,0
514,35.218,-97.459,0.6,0.47011,3,325,-0.304,3.751,9.236,0
515,35.218,-97.459,0.6,0.47011,3,325,-0.296,3.749,9.251,0
516,35.218,-97.459,0.6,0.47011,3,325,-0.299,3.756,9.25,0
517,35.218,-97.459,0.6,0.47011,3,325,-0.296,3.749,9.246,0
518,35.218,-97.459,0.6,0.47011,3,325,-0.308,3.751,9.246,0
519,35.218,-97.459,0.6,0.47011,3,325,-0.3,3.74,9.26,0
520,35.218,-97.459,0.6,0.47011,3,325,-0.301,3.759,9.235,0
521,35.218,-97.459,0.6,0.47011,3,325,-0.299,3.744,9.24,0
522,35.218,-97.459,0.6,0.47011,3,325,-0.303,3.755,9.246,0
523,35.218,-97.459,0.6,0.47011,3,325,-0.299,3.763,9.228,0
524,35.218,-97.459,0.6,0.47011,3,325,-0.309,3.752,9.237,0
525,35.218,-97.459,0.6,0.47011,3,325,-0.298,3.758,9.244,0
526,35.218,-97.459,0.6,0.47011,3,325,-0.306,3.747,9.25,0
527,35.218,-97.459,0.6,0.47011,3,325,-0.309,3.758,9.237,0
528,35.218,-97.459,0.6,0.47011,3,325,-0.302,3.745,9.257,0
529,35.218,-97.459,0.6,0.47011,3,325,-0.306,3.756,9.254,0
530,35.218,-97.459,0.6,0.47011,3,325,-0.299,3.759,9.24,0
531,35.218,-97.459,0.6,0.47011,3,325,-0.303,3.753,9.243,0
532,35.218,-97.459,0.6,0.47011,3,325,-0.297,3.799,9.221,0
533,35.218,-97.459,0.6,0.47011,3,325,-0.328,4.671,8.894,0
534,35.218,-97.459,1.6,1.4641,3,325,-0.299,5.23,8.906,0
535,35.218,-97.459,359.3,2.99,3,325,-0.285,5.191,8.71,0
536,35.218,-97.459,359,4.5103,3,324,-0.252,5.407,8.711,0
537,35.218,-97.459,359.2,5.8103,3,324,-0.215,5.272,9.286,0
538,35.218,-97.459,358.3,7.35,3,325,-0.299,4.781,9.037,0
539,35.218,-97.459,358.1,8.3301,3,325,0.079,4.599,9.399,0
540,35.218,-97.459,359.1,9.1901,3,325,-0.09,4.743,8.972,0
541,35.219,-97.459,359.1,10.04,3,326,-0.043,4.23,9.047,0
542,35.219,-97.459,359.8,10.53,3,326,-0.417,4.086,9.311,0
543,35.219,-97.459,0.9,10.73,3,326,-0.119,3.728,9.046,0
544,35.219,-97.459,359.7,11.09,3,325,-0.358,3.332,8.982,0
545,35.219,-97.459,359.4,11.01,3,325,-0.351,3.47,7.792,0
546,35.219,-97.459,358.9,11.38,3,325,-0.335,3.44,8.392,0
547,35.219,-97.459,358.7,11.57,3,325,-0.44,3.791,8.827,0
548,35.219,-97.459,358.9,11.9,3,325,-0.15,4.062,9.153,0
549,35.219,-97.459,359.4,12.2,3,325,-0.197,4.04,8.908,0
550,35.22,-97.459,359.6,12.42,3,325,0.022,3.692,10.243,0
551,35.22,-97.459,0.1,12.42,3,325,-0.408,3.565,9.09,0
552,35.22,-97.459,0.4,12.16,3,325,-0.336,3.621,9.375,0
553,35.22,-97.459,0.5,11.97,3,326,-0.397,4.319,8.841,0
554,35.22,-97.459,0.3,12.21,3,326,-0.154,3.092,9.064,0
556,35.22,-97.459,0.9,12.233,3,327,0.111,3.752,8.821,0
557,35.22,-97.459,0.3,12.06,3,326,-0.406,3.797,8.67,0
558,35.22,-97.459,359.9,12.16,3,326,-0.431,3.775,9.48,0
559,35.22,-97.459,359.3,12.33,3,326,-0.062,3.285,9.415,0
560,35.22,-97.459,0.2,12.031,3,327,-0.398,3.59,9.305,0
561,35.221,-97.459,359.7,12.19,3,327,-0.242,3.915,8.999,0
562,35.221,-97.459,0.3,12.391,3,327,-0.508,3.795,8.702,0
563,35.221,-97.459,359.6,12.582,3,326,-0.669,4.132,9.536,0
564,35.221,-97.459,359.9,13,3,326,-0.193,3.807,9.544,0
565,35.221,-97.459,0.2,13.06,3,327,-0.297,3.55,9.416,0
566,35.221,-97.459,0.6,13.1,3,326,-0.303,3.504,9.287,0
567,35.221,-97.459,0.1,13.07,3,326,-0.542,3.609,8.87,0
568,35.221,-97.459,359.7,12.78,4,325,-0.371,3.886,9.625,0
569,35.222,-97.459,0.5,12.71,4,325,-0.217,4.254,10.476,0
570,35.222,-97.459,0.5,12.67,4,326,-0.472,4.279,8.968,0
571,35.222,-97.459,359.3,12.711,4,326,-0.106,4.256,9.477,0
572,35.222,-97.459,359.5,13.011,4,327,-0.438,3.819,8.773,0
573,35.222,-97.459,0.1,13.3,4,326,-0.353,3.817,9.117,0
574,35.222,-97.459,0.1,13.231,4,327,0.084,3.344,9.878,0
575,35.222,-97.459,0.2,13.07,4,328,-0.196,3.391,10.215,0
576,35.222,-97.459,0.7,12.78,4,328,-0.283,3.666,9.506,0
577,35.222,-97.459,0.5,12.501,4,329,-0.3,3.702,9.21,0
578,35.223,-97.459,0.9,12.62,4,329,-0.176,3.896,8.514,0
579,35.223,-97.459,0.1,12.72,3,328,0.105,3.642,8.964,0
580,35.223,-97.459,1.2,13.09,3,328,-0.182,3.565,8.753,0
581,35.223,-97.459,359.7,12.98,3,328,0.401,3.334,9.093,0
582,35.223,-97.459,359.8,12.99,3,328,0.15,2.915,9.003,0
583,35.223,-97.459,359.8,12.86,3,328,-0.321,3.659,9.055,0
584,35.223,-97.459,0.1,12.79,3,328,0.299,3.429,9.726,0
585,35.223,-97.459,359.8,12.761,3,327,-0.301,3.527,9.611,0
586,35.224,-97.459,0.4,12.75,3,328,-0.541,3.219,9.392,0
587,35.224,-97.459,0.6,12.5,3,328,-0.531,3.692,9.133,0
588,35.224,-97.459,0.7,12.26,3,328,-0.577,4.419,9.359,0
589,35.224,-97.459,0,13.29,3,328,-0.223,4.437,8.931,0
590,35.224,-97.459,359.7,13.87,3,328,-0.132,3.896,9.68,0
591,35.224,-97.459,359.6,13.72,3,330,-0.188,3.398,9.604,0
592,35.224,-97.459,357.3,13.301,9,329,-0.359,3.318,9.932,0
593,35.224,-97.459,359.2,13.18,9,329,-0.311,3.817,9.333,0
594,35.225,-97.459,359.3,13.17,9,329,-0.55,3.862,9.167,0
595,35.225,-97.459,359.6,13.151,9,329,-0.146,3.516,10.335,0
596,35.225,-97.459,359.5,12.94,9,329,0.14,3.163,9.513,0
597,35.225,-97.459,358.9,12.65,9,329,-0.519,3.359,9.938,0
598,35.225,-97.459,359.3,12.54,9,329,-0.404,3.581,9.251,0
599,35.225,-97.459,359.9,12.46,9,329,-0.417,3.874,9.322,0
600,35.225,-97.459,0.4,12.67,9,330,-0.127,3.829,8.565,0
601,35.225,-97.459,0.4,12.81,9,330,-0.173,3.712,9.136,0
602,35.226,-97.459,0.3,12.84,9,330,-0.485,3.664,9.287,0
603,35.226,-97.459,0.2,12.74,9,330,0.253,3.367,9.055,0
604,35.226,-97.459,359.6,12.6,9,331,-0.253,3.588,9.148,0
605,35.226,-97.459,359.6,12.51,9,330,-0.24,3.627,8.743,0
606,35.226,-97.459,359.4,12.33,9,330,-0.463,2.98,9.059,0
607,35.226,-97.459,359.5,12.12,9,329,-0.011,3.503,9.622,0
608,35.226,-97.459,0.1,12.12,9,330,-0.03,3.867,9.186,0
609,35.226,-97.459,0.2,12.41,9,330,-0.291,4.081,8.739,0
610,35.226,-97.459,0.2,12.73,9,330,-0.163,3.942,9.161,0
611,35.227,-97.459,0.5,12.96,9,330,-0.28,4.013,9.271,0
612,35.227,-97.459,0.3,13.11,9,329,-0.311,3.971,8.519,0
613,35.227,-97.459,358.8,13.42,9,330,-0.394,4.134,8.844,0
615,35.227,-97.459,0.2,13.7,9,329,-0.147,3.897,8.89,0
616,35.227,-97.459,0.4,13.92,9,329,-0.244,3.563,9.225,0
617,35.227,-97.459,359.8,13.74,9,328,-0.044,3.634,9.364,0
618,35.227,-97.459,359.8,13.48,9,327,-0.312,3.672,8.855,0
619,35.227,-97.459,0.2,13.49,9,328,-0.323,3.714,9.456,0
620,35.228,-97.459,359.2,13.551,9,329,-0.357,3.58,10.396,0
621,35.228,-97.459,359.4,13.31,9,329,-0.097,3.56,9.568,0
622,35.228,-97.459,0.5,13.19,9,329,-0.238,3.454,9.582,0
623,35.228,-97.459,1.1,13.13,9,329,-0.222,3.767,9.573,0
624,35.228,-97.459,0.5,12.87,9,329,-0.271,3.549,9.399,0
625,35.228,-97.459,0.3,12.59,9,329,0.019,3.842,8.821,0
626,35.228,-97.459,0.2,12.24,9,329,0.421,3.862,9.713,0
627,35.228,-97.459,359.5,12.231,9,330,0.121,3.48,8.757,0
628,35.228,-97.459,359.5,12.08,9,329,-0.15,4.21,9.531,0
629,35.229,-97.459,359.8,12.23,9,328,-0.037,3.798,8.667,0
630,35.229,-97.459,0.2,12.52,9,328,0.133,3.895,9.291,0
631,35.229,-97.459,0,12.74,9,328,-0.039,3.982,9.338,0
632,35.229,-97.459,359.8,12.951,9,328,-0.075,3.758,9.895,0
633,35.229,-97.459,359.4,12.87,9,328,-0.231,3.502,9.007,0
634,35.229,-97.459,359.6,12.69,9,328,-0.148,3.716,8.997,0
635,35.229,-97.459,359.8,12.59,9,327,0.04,3.724,9.24,0
636,35.229,-97.459,359.1,12.71,9,327,0.04,3.728,9.246,0
637,35.229,-97.459,0.4,12.87,9,327,-0.039,3.944,9.585,0
638,35.23,-97.459,0.2,12.86,9,328,0.064,4.218,9.392,0
639,35.23,-97.459,1.1,13,9,327,-0.04,3.854,9.684,0
640,35.23,-97.459,1.5,13.35,9,327,-0.231,3.905,9.019,0
641,35.23,-97.459,0.1,13.86,9,327,0.102,3.82,9.142,0
642,35.23,-97.459,359.7,14.25,9,328,0.336,4.179,8.994,0
643,35.23,-97.459,359.8,14.63,9,329,-0.088,3.966,8.314,0
644,35.23,-97.459,359.8,14.91,9,330,0.127,3.646,8.999,0
645,35.23,-97.459,359.9,14.931,9,329,0.194,3.524,9.038,0
646,35.231,-97.459,0.1,14.81,9,329,-0.346,3.271,9.395,0
647,35.231,-97.459,0.2,14.981,9,328,0.063,3.811,9.965,0
648,35.231,-97.459,0.1,15.01,9,329,0.147,3.344,8.61,0
649,35.231,-97.459,0.3,14.72,9,328,-0.046,3.7,9.487,0
650,35.231,-97.459,0.3,14.46,9,328,-0.26,3.943,9.349,0
651,35.231,-97.459,0.7,14.35,9,328,-0.117,3.702,9.281,0
652,35.231,-97.459,0.1,14.51,9,329,0.104,3.518,9.158,0
