time,lat,lng,bearing,spd,acc,alt,accx,accy,accz,stable,
0,35.287,-97.486,343,34.17,9,324,-2.862,-0.756,9.035,1
1,35.288,-97.486,343.2,34,9,326,-2.882,-0.916,9.162,1
2,35.288,-97.486,343.3,33.84,9,326,-2.873,-0.638,9.093,1
3,35.288,-97.486,343.5,33.79,9,326,-2.881,-0.771,9.199,1
4,35.288,-97.486,343.5,33.72,9,327,-2.729,-0.938,9.102,1
5,35.289,-97.487,343.4,33.91,9,327,-2.549,-1.087,9.212,1
6,35.289,-97.487,343.2,33.6,9,327,-2.655,-0.975,8.965,1
8,35.289,-97.487,343.3,33.62,9,328,-2.77,-1.048,9.062,1
8,35.289,-97.487,343.3,33.62,9,328,-2.77,-1.048,9.062,1
9,35.29,-97.487,343.3,33.46,9,329,-2.705,-0.974,9.03,1
10,35.29,-97.487,343.5,33.37,9,330,-2.706,-1.01,9.147,1
11,35.29,-97.487,343,33.27,9,331,-2.768,-0.957,8.96,1
12,35.29,-97.487,343,33.58,9,331,-2.805,-0.83,8.841,1
13,35.291,-97.487,343,33.35,9,332,-2.845,-0.896,9.153,1
14,35.291,-97.487,343.2,33.19,9,332,-2.542,-0.859,8.7,1
15,35.291,-97.487,344.9,33.62,9,333,-2.685,-0.887,9.078,1
16,35.292,-97.488,343.5,33.64,9,334,-2.795,-0.885,9.254,1
17,35.292,-97.488,343.3,33.33,9,334,-2.807,-0.954,9.255,1
18,35.292,-97.488,343.4,33.27,9,332,-2.484,-1.004,8.691,1
19,35.293,-97.488,343.3,33.46,9,333,-2.524,-1.123,9.207,1
20,35.293,-97.488,343.2,33.45,9,333,-2.646,-1.004,9.259,1
21,35.293,-97.488,342.8,33.59,9,333,-2.631,-0.941,9.147,1
22,35.294,-97.488,342.7,33.88,9,332,-2.733,-0.78,9.041,1
23,35.294,-97.488,343.1,33.57,9,333,-2.61,-1.044,9.181,1
24,35.294,-97.489,343.2,33.67,9,332,-2.572,-0.967,9.064,1
25,35.294,-97.489,343.5,33.64,9,331,-2.53,-0.962,9.027,1
26,35.295,-97.489,343.6,33.73,9,331,-2.657,-0.978,9.014,1
27,35.295,-97.489,344,33.68,9,330,-2.505,-0.954,9.148,1
28,35.295,-97.489,343.9,33.38,9,329,-2.595,-0.849,9.071,1
29,35.296,-97.489,343.7,33.68,9,328,-2.671,-0.929,9.271,1
30,35.296,-97.489,343.6,33.75,9,329,-2.739,-0.9,9.155,1
31,35.296,-97.489,343.5,33.75,9,326,-3.004,-0.707,9.271,1
32,35.296,-97.489,344.3,33.87,9,326,-3.153,-0.391,9.205,1
33,35.297,-97.49,345.8,33.75,9,326,-3.061,-0.386,9.382,1
34,35.297,-97.49,347.3,33.52,9,326,-3.037,-0.512,9.223,1
35,35.297,-97.49,349.5,33.151,9,326,-3.014,-0.772,9.462,0
36,35.298,-97.49,349.7,32.95,9,326,-3.027,-0.574,9.367,0
37,35.298,-97.49,350.5,33.14,9,326,-3.149,-0.577,9.285,0
38,35.298,-97.49,351.6,33.07,9,326,-3.16,-0.684,9.235,0
39,35.299,-97.49,352.9,32.85,3,326,-3.279,-0.862,8.952,0
40,35.299,-97.49,355,32.602,3,325,-3.101,-1.032,9.092,0
41,35.299,-97.49,355.9,32.682,3,324,-3.191,-0.762,9.136,0
42,35.299,-97.49,357,32.762,3,325,-3.225,-0.715,8.811,0
43,35.3,-97.49,358.1,32.803,3,327,-3.104,-0.798,8.749,1
44,35.3,-97.49,359.2,32.881,3,328,-3.04,-0.938,9.055,1
45,35.3,-97.49,359.8,33.05,3,326,-2.958,-1.014,9.029,1
46,35.301,-97.49,0.2,33.1,3,326,-2.833,-1.31,9.067,1
47,35.301,-97.49,359.7,33.25,4,325,-2.774,-1.154,8.817,1
48,35.301,-97.49,0,33.23,4,327,-2.764,-1.047,8.653,1
49,35.302,-97.49,359.2,33.31,4,327,-2.694,-1.13,8.92,1
50,35.302,-97.49,0.1,33.42,4,326,-2.581,-1.248,8.8,1
51,35.302,-97.49,359.8,33.51,4,327,-2.534,-1.098,8.874,1
52,35.302,-97.49,359.7,33.52,4,328,-2.743,-1.021,9.026,1
53,35.303,-97.49,359.8,33.6,4,327,-2.628,-0.804,9.09,1
54,35.303,-97.49,359.8,33.451,4,330,-2.557,-0.616,8.931,1
55,35.303,-97.49,0.2,33.21,4,331,-2.762,-0.43,8.991,1
56,35.304,-97.49,0.4,32.97,5,330,-2.614,-0.708,9.467,1
57,35.304,-97.49,1.8,32.88,6,328,-2.288,-1.031,9.188,1
58,35.304,-97.49,1.4,32.4,6,329,-2.102,-1.166,9.141,1
59,35.305,-97.49,0.7,32.47,6,328,-2.212,-0.98,9.079,1
60,35.305,-97.49,359.5,32.25,7,327,-2.451,-0.814,9.229,1
61,35.305,-97.49,0.1,31.75,7,328,-2.431,-0.845,9.125,1
62,35.305,-97.49,0.2,31.12,6,328,-2.271,-1.025,9.253,1
63,35.306,-97.49,0,31.32,5,324,-2.286,-1.231,9.121,1
64,35.306,-97.49,0,30.81,6,325,-2.525,-1.326,9.282,1
65,35.306,-97.49,358.5,30.64,5,326,-2.938,-1.044,9.068,1
67,35.307,-97.49,358.5,30.77,5,326,-3.017,-0.865,9.1,1
67,35.307,-97.49,358.5,30.77,5,326,-3.017,-0.865,9.1,1
68,35.307,-97.49,358.4,31.12,5,326,-2.991,-0.863,9.121,1
69,35.307,-97.49,358.8,31.4,5,325,-2.798,-1.108,8.861,1
70,35.307,-97.49,359.9,31.42,4,327,-2.743,-1.077,8.808,1
71,35.308,-97.49,359.7,31.54,5,327,-2.796,-1.195,9.012,1
72,35.308,-97.49,358.3,32.03,6,328,-2.643,-0.941,8.978,1
73,35.308,-97.49,358.7,32.25,7,329,-2.819,-0.995,9.019,1
74,35.309,-97.49,358.7,31.98,8,329,-2.744,-1.138,9.027,1
75,35.309,-97.49,358.6,31.9,8,329,-2.922,-1.221,9.212,1
76,35.309,-97.49,358.9,31.981,8,330,-2.923,-1.179,9.157,1
77,35.309,-97.49,1.5,32.13,7,327,-3.047,-1.11,8.947,1
78,35.31,-97.49,0.8,32.431,8,330,-3.014,-1.167,9.09,1
79,35.31,-97.49,1.7,32.78,9,330,-2.612,-0.906,9.349,1
80,35.311,-97.49,0.2,32.68,7,330,-2.485,-0.93,9.257,1
81,35.311,-97.49,0.2,32.33,7,331,-2.778,-1.141,9.043,1
82,35.311,-97.49,359.4,32.66,8,330,-2.707,-1.115,9.083,1
83,35.311,-97.49,358.7,32.86,8,332,-2.719,-1.113,8.83,1
84,35.312,-97.49,359.4,33.01,7,330,-2.825,-1.037,8.931,1
85,35.312,-97.49,359.6,33.26,6,327,-2.895,-1.114,8.977,1
86,35.312,-97.49,359.9,33.29,6,326,-2.734,-1.24,9.006,1
87,35.313,-97.49,0,33.27,6,327,-2.712,-1.252,9.352,1
88,35.313,-97.49,359.8,33.31,6,327,-2.666,-1.18,8.786,1
89,35.313,-97.49,359.7,33.3,6,328,-2.84,-0.986,9.046,1
90,35.314,-97.49,359.2,33.57,7,328,-2.715,-1.052,9.187,1
91,35.314,-97.49,0.4,33.58,7,328,-2.72,-1.004,8.882,1
92,35.314,-97.49,0.8,33.63,8,330,-2.737,-1.158,8.949,1
93,35.314,-97.49,0.2,33.5,6,331,-2.637,-1.099,8.994,1
94,35.315,-97.49,0,33.61,6,330,-2.737,-1.092,9.081,1
95,35.315,-97.49,0.4,33.66,7,328,-2.742,-1.204,9.431,1
96,35.315,-97.49,0,33.421,6,330,-2.615,-1.194,8.824,1
97,35.316,-97.49,359.8,33.35,6,331,-2.711,-1.233,8.907,1
98,35.316,-97.49,0.4,33.07,7,333,-2.73,-1.175,8.924,1
99,35.316,-97.49,0,33.41,6,335,-2.675,-1.21,9.304,1
100,35.317,-97.49,0.1,33.371,6,336,-2.678,-1.225,9.026,1
101,35.317,-97.49,0,33.38,6,338,-2.599,-1.141,9.032,1
102,35.317,-97.49,0.1,33.24,5,338,-2.668,-1.201,9.065,1
103,35.317,-97.49,0,33.36,10,338,-2.748,-1.076,9.028,1
104,35.318,-97.49,359.9,33.39,10,338,-2.829,-1.116,9.128,1
105,35.318,-97.49,0,33.44,11,338,-2.824,-1.195,9.271,1
106,35.318,-97.49,359.9,33.5,11,341,-2.711,-1.125,9.037,1
107,35.319,-97.49,359.9,33.5,11,338,-2.612,-1.098,8.818,1
108,35.319,-97.49,0.1,33.4,10,338,-2.689,-1.085,9.271,1
109,35.319,-97.49,359.8,33.47,10,338,-2.696,-0.966,8.971,1
110,35.32,-97.49,359.6,33.44,10,339,-2.617,-0.788,8.912,1
111,35.32,-97.49,359.4,33.39,10,338,-2.594,-0.907,8.944,1
112,35.32,-97.49,359.4,33.33,11,337,-2.571,-1.051,9.18,1
113,35.32,-97.49,358.9,32.84,10,338,-2.572,-0.866,9.153,1
114,35.321,-97.49,358.6,32.9,11,337,-2.622,-0.808,9.257,1
115,35.321,-97.49,0.3,32.72,11,336,-2.56,-0.974,9.438,1
116,35.321,-97.49,1.3,32.13,11,337,-2.735,-0.805,9.217,1
117,35.322,-97.49,1.4,31.96,12,337,-2.589,-0.998,9.062,1
118,35.322,-97.49,0.9,32.02,12,337,-2.519,-1.028,9.277,1
119,35.322,-97.49,1.1,31.86,11,337,-2.633,-1.07,9.105,1
120,35.322,-97.49,0,32.04,11,336,-2.698,-1.04,8.85,1
121,35.323,-97.49,359.9,32.02,11,335,-2.684,-1.111,9.176,1
122,35.323,-97.49,359,32.33,11,334,-2.623,-1.152,9.282,1
123,35.323,-97.49,0.1,31.94,11,336,-2.719,-0.984,9.18,1
124,35.324,-97.49,0.4,32.02,12,335,-2.7,-0.929,8.897,1
125,35.324,-97.49,357.3,33.12,12,336,-2.732,-0.946,9.048,1
127,35.324,-97.49,359.2,32.17,12,339,-2.592,-1.155,9.074,1
127,35.324,-97.49,359.2,32.17,12,339,-2.592,-1.155,9.074,1
128,35.325,-97.49,359,32.24,12,340,-2.615,-1.241,9.309,1
129,35.325,-97.49,0.4,31.61,11,340,-2.742,-1.167,9.01,1
130,35.325,-97.49,357.3,32.26,12,339,-2.89,-1.143,8.972,1
131,35.325,-97.49,358.7,32.06,12,338,-2.97,-1.275,8.815,1
132,35.326,-97.49,1.1,31.88,12,337,-2.841,-1.323,9.052,1
133,35.326,-97.49,0.9,32.22,12,338,-2.833,-1.268,9.182,1
134,35.326,-97.49,1.2,32.15,12,336,-2.84,-1.07,9.003,1
135,35.327,-97.49,1.1,32.18,11,335,-2.862,-1.27,9.345,1
136,35.327,-97.49,359,33.12,11,336,-2.65,-1.049,8.854,1
137,35.327,-97.49,0.3,32.76,11,336,-2.814,-1.127,8.884,1
138,35.327,-97.49,0.4,32.96,11,335,-2.965,-1.09,8.77,1
139,35.328,-97.49,358.8,33.16,11,336,-2.803,-0.985,9.029,1
140,35.328,-97.49,358.9,33.53,11,337,-2.737,-1.07,8.884,1
141,35.329,-97.49,0.3,33.11,12,337,-2.579,-1.293,8.999,1
142,35.329,-97.49,359.9,33.05,12,336,-2.756,-1.137,9.105,1
143,35.329,-97.49,359.8,33.56,12,336,-2.676,-1.226,9.19,1
144,35.329,-97.49,3.2,32.51,13,336,-2.609,-1.105,8.9,1
145,35.33,-97.49,2.3,32.88,12,335,-2.647,-0.939,8.956,1
146,35.33,-97.49,1.1,33.41,12,333,-2.61,-1.056,8.633,1
147,35.33,-97.49,0.6,33.63,12,334,-2.805,-0.941,8.739,1
148,35.331,-97.49,359,34.17,12,332,-2.816,-1.089,9.027,1
149,35.331,-97.49,358.7,34.54,12,332,-2.774,-0.909,8.636,1
150,35.331,-97.49,1.2,33.65,12,330,-2.835,-1.112,9.179,1
151,35.332,-97.49,1,33.04,12,330,-2.723,-0.954,9.049,1
152,35.332,-97.49,359.6,33.7,12,331,-2.723,-1.098,9.325,1
153,35.332,-97.49,359.7,33.63,12,332,-2.634,-1.116,9.331,1
154,35.333,-97.49,358.9,33.68,12,331,-2.513,-1.246,9.135,1
155,35.333,-97.49,359.8,33.32,12,330,-2.442,-1.173,9.077,1
156,35.333,-97.49,358,33.43,11,331,-2.347,-0.994,9.018,1
157,35.333,-97.49,357.2,33.23,11,331,-2.431,-1.073,8.98,1
158,35.334,-97.49,356.3,33.08,11,333,-2.28,-1.174,9.086,1
159,35.334,-97.49,354.1,32.964,10,334,-2.08,-1.419,9.152,1
160,35.334,-97.49,353.1,32.661,10,335,-2.131,-1.47,9.018,1
161,35.335,-97.49,351.4,32.38,10,336,-2.284,-1.451,9.134,1
162,35.335,-97.49,349.3,32.15,11,336,-2.264,-1.313,9.076,1
163,35.335,-97.49,347.1,32.27,10,336,-2.281,-1.389,9.436,1
164,35.335,-97.49,345.6,32.12,10,337,-2.375,-1.2,8.893,1
165,35.336,-97.491,345,31.92,10,339,-2.552,-1.032,9.033,1
166,35.336,-97.491,344.1,31.73,9,340,-2.516,-1.132,8.94,1
167,35.336,-97.491,342.5,31.681,4,341,-2.713,-1.028,9.038,1
168,35.337,-97.491,341.9,31.533,3,343,-2.933,-1.029,9.24,1
169,35.337,-97.491,341.9,31.324,3,344,-2.878,-1.012,9.191,1
170,35.337,-97.491,341.9,31.135,3,346,-2.836,-1.019,9.117,1
171,35.337,-97.491,342,30.935,3,348,-2.718,-1.249,9.018,1
172,35.338,-97.491,342,30.775,3,349,-2.555,-1.234,8.965,1
173,35.338,-97.491,341.9,30.703,3,349,-2.534,-1.23,8.796,1
174,35.338,-97.491,341.8,30.653,3,350,-2.93,-0.872,8.675,1
175,35.338,-97.492,341.5,30.651,3,350,-2.885,-1.125,9.468,0
176,35.339,-97.492,341.2,30.621,4,352,-2.859,-1.245,8.982,0
177,35.339,-97.492,341.1,30.59,4,353,-2.636,-1.16,8.792,0
178,35.339,-97.492,341.3,30.64,5,354,-2.686,-1.177,8.745,0
179,35.339,-97.492,341.4,30.71,5,354,-2.744,-1.204,8.542,0
180,35.34,-97.492,341.4,30.83,6,355,-2.714,-1.479,9.016,0
181,35.34,-97.492,341.3,31.01,7,357,-2.809,-1.475,9,0
182,35.34,-97.492,341.2,31.28,7,357,-2.855,-1.416,9.004,0
183,35.34,-97.492,341.1,31.62,8,357,-2.855,-1.426,9.123,1
184,35.341,-97.493,341.1,31.9,8,358,-2.953,-1.244,8.849,1
185,35.341,-97.493,341.3,32.2,8,358,-2.797,-1.386,8.997,1
186,35.341,-97.493,341.5,32.75,5,357,-2.583,-1.413,8.995,1
187,35.342,-97.493,341.3,32.91,5,358,-2.717,-1.28,9.037,1
188,35.342,-97.493,341.3,32.96,6,358,-2.633,-1.36,9.197,1
189,35.342,-97.493,341.2,33.16,6,358,-2.924,-1.141,9.591,0
190,35.342,-97.493,341.2,33.16,5,359,-2.891,-0.973,9.226,0
191,35.343,-97.493,341.6,33.41,4,360,-2.714,-1.087,9.047,0
192,35.343,-97.493,341.6,33.48,4,359,-3.101,-1.282,9.698,0
194,35.343,-97.494,341.6,33.62,3,361,-2.628,-1.056,9.123,0
194,35.343,-97.494,341.6,33.62,3,361,-2.628,-1.056,9.123,0
195,35.344,-97.494,341.8,33.51,3,361,-2.996,-0.185,8.705,0
196,35.344,-97.494,342.5,33.4,4,362,-3.097,-0.46,9.021,0
197,35.344,-97.494,343.7,33.47,5,360,-2.909,-0.669,9.141,0
198,35.344,-97.494,344.1,33.68,5,359,-2.59,-0.67,9.056,0
199,35.345,-97.494,345.5,34.15,6,356,-2.945,-0.43,9.392,0
200,35.345,-97.494,346.9,34.04,7,356,-2.95,-0.43,9.388,0
201,35.345,-97.494,348.3,34.26,7,354,-3.061,-0.378,9.408,0
202,35.346,-97.494,350.2,32.55,8,353,-2.785,-0.383,9.218,0
203,35.346,-97.494,350.9,32.78,7,353,-2.962,-0.447,9.218,0
204,35.347,-97.494,352.9,32.58,6,353,-2.743,-0.585,8.887,0
205,35.347,-97.495,353.8,32.24,5,354,-2.748,-0.603,9.002,0
206,35.347,-97.495,354.6,31.83,5,354,-2.59,-0.418,9.083,0
207,35.347,-97.495,354.9,31.58,5,355,-2.723,-0.561,9.042,0
208,35.348,-97.495,355.4,31.43,5,355,-2.865,-0.711,9.115,1
209,35.348,-97.495,356.2,31.41,4,355,-2.905,-0.704,9.133,1
210,35.348,-97.495,356.2,31.61,5,354,-2.873,-0.843,9.104,1
211,35.349,-97.495,356.4,31.88,6,355,-2.934,-0.895,9.006,1
212,35.349,-97.495,356.6,31.81,7,352,-2.829,-1.091,8.861,1
213,35.349,-97.495,0.3,30.761,5,351,-2.979,-1.307,8.992,1
214,35.349,-97.495,0.4,30.73,5,350,-2.88,-1.382,9.03,1
215,35.35,-97.495,359.9,30.99,6,349,-2.799,-1.511,9.246,0
216,35.35,-97.495,358.9,31.45,7,349,-2.612,-1.282,9.178,0
217,35.35,-97.495,357.7,31.96,7,348,-2.401,-1.136,8.852,0
218,35.351,-97.495,357.3,31.74,7,349,-2.194,-0.844,8.915,0
219,35.351,-97.495,357.4,31.62,7,348,-2.219,-0.779,8.839,0
220,35.351,-97.495,358.2,30.78,8,348,-2.28,-0.878,9.092,0
221,35.351,-97.495,0.2,29.61,8,350,-2.322,-1.01,9.244,0
222,35.352,-97.495,358.8,29.611,8,352,-2.295,-0.906,9.528,1
223,35.352,-97.495,358.5,29.4,8,353,-2.276,-1.04,9.4,1
224,35.352,-97.495,0.2,28.65,8,354,-2.266,-1.149,9.236,1
225,35.352,-97.495,0.2,28.29,8,354,-2.486,-1.117,9.385,1
226,35.353,-97.495,0.2,27.93,10,355,-2.62,-1.158,9.417,0
227,35.353,-97.495,1.9,27.19,10,356,-2.806,-1.43,9.053,0
228,35.353,-97.495,3.7,26.451,9,357,-2.949,-1.395,9.178,0
229,35.353,-97.495,2,27.311,9,359,-3.007,-1.534,9.155,0
230,35.354,-97.495,4.9,26.981,10,360,-3.137,-1.418,8.431,0
231,35.354,-97.495,358.4,29.52,9,359,-3.074,-1.695,8.968,0
232,35.354,-97.495,358.7,29.38,9,360,-3.004,-1.765,9.003,0
233,35.354,-97.495,358.9,30.34,10,359,-2.87,-1.499,8.582,1
234,35.355,-97.495,359.8,30.6,12,359,-2.856,-1.316,8.237,1
235,35.355,-97.495,1.7,30.32,13,359,-3.072,-1.266,8.593,1
236,35.355,-97.495,359.8,31.81,11,359,-2.701,-1.284,9.043,1
237,35.356,-97.495,0.6,31.94,12,359,-2.393,-1.012,9.022,1
238,35.356,-97.495,359.6,31.76,13,359,-2.554,-1.121,8.732,1
239,35.356,-97.495,359.4,31.75,14,358,-2.542,-1.309,9.001,1
240,35.356,-97.495,359.1,31.76,12,358,-2.627,-1.38,8.963,1
241,35.357,-97.495,359.5,31.78,12,358,-2.76,-1.275,9.188,1
242,35.357,-97.495,359.1,31.96,13,357,-2.464,-1.306,8.981,1
243,35.357,-97.495,358.9,31.95,14,357,-2.511,-1.204,9.222,1
244,35.358,-97.495,358.7,31.97,15,357,-2.614,-1.25,9.363,0
245,35.358,-97.495,358.7,31.75,15,357,-2.408,-1.225,9.267,0
246,35.358,-97.495,358.4,31.8,14,359,-2.556,-1.428,9.275,0
247,35.358,-97.495,358.3,32.01,15,358,-2.315,-1.437,9.028,0
248,35.359,-97.495,358.3,31.88,15,359,-2.606,-1.21,8.76,0
249,35.359,-97.495,358.4,31.76,15,359,-2.76,-1.28,9.072,0
250,35.359,-97.495,358.9,31.69,16,359,-2.712,-1.406,8.889,0
251,35.36,-97.495,359.2,31.64,17,358,-2.626,-1.508,8.536,0
252,35.36,-97.495,358.6,32.17,17,357,-2.787,-1.284,8.835,0
253,35.36,-97.495,359.8,31.95,16,357,-2.698,-1.346,9.114,1
254,35.36,-97.495,0.2,32.03,15,356,-2.575,-1.288,9.246,1
256,35.361,-97.495,0,32.31,16,355,-2.525,-1.272,9.267,0
256,35.361,-97.495,0,32.31,16,355,-2.525,-1.272,9.267,0
257,35.361,-97.495,0,32.1,8,357,-2.836,-1.562,9.415,0
258,35.361,-97.495,0.1,32.08,8,359,-2.756,-1.516,9.18,0
259,35.362,-97.495,0.3,32.21,7,359,-2.614,-1.557,9.182,0
260,35.362,-97.495,359.4,32.25,7,359,-2.932,-1.469,9.144,0
261,35.362,-97.495,359.3,32.15,6,361,-2.937,-1.358,8.967,0
262,35.362,-97.495,359.2,32.28,6,361,-2.69,-1.257,8.93,0
263,35.363,-97.495,359.4,32.19,6,361,-2.318,-1.041,8.798,0
264,35.363,-97.495,359.2,32.46,7,362,-2.548,-1.218,9.188,0
265,35.363,-97.495,359,32.47,7,362,-2.722,-1.371,9.218,0
266,35.364,-97.495,359,32.481,9,363,-2.433,-0.975,8.409,0
267,35.364,-97.495,357.2,33.181,11,363,-2.108,-0.64,7.839,0
268,35.364,-97.495,359.7,32.2,10,364,-2.305,-1.243,8.583,0
269,35.365,-97.495,359.4,31.99,10,364,-2.265,-1.423,8.765,0
270,35.365,-97.495,359.3,31.92,10,365,-2.553,-1.394,9.394,0
271,35.365,-97.495,359,32.02,10,365,-2.484,-1.291,9.299,0
272,35.366,-97.495,359.2,32.3,10,364,-2.472,-1.26,9.201,0
273,35.366,-97.495,359.5,32.42,10,364,-2.616,-1.641,9.527,0
274,35.366,-97.495,359.6,32.771,11,364,-2.574,-1.508,9.522,0
275,35.367,-97.495,359.2,32.731,11,363,-2.588,-1.508,9.2,0
276,35.367,-97.495,359.4,32.54,12,363,-2.523,-1.39,9.386,0
277,35.367,-97.495,359,32.78,12,362,-2.59,-1.612,8.822,0
278,35.367,-97.495,358.7,33.1,13,361,-2.419,-1.474,8.772,0
279,35.368,-97.495,358.1,33.39,13,361,-2.798,-1.661,9.15,0
280,35.368,-97.495,358.6,33.32,13,361,-2.641,-1.56,8.942,0
281,35.368,-97.495,358.8,33.1,13,360,-2.69,-1.567,9.682,0
282,35.369,-97.495,358.2,33.46,14,360,-2.258,-1.242,9.34,0
283,35.369,-97.495,358,32.91,13,360,-2.259,-1.127,9.247,0
284,35.369,-97.495,358.1,32.51,13,359,-2.203,-1.03,8.996,0
285,35.37,-97.495,358.1,32.01,12,359,-2.35,-1.21,8.862,0
286,35.37,-97.495,357.6,31.98,12,359,-2.239,-1.122,8.991,0
287,35.37,-97.495,357.9,31.36,12,360,-2.443,-1.261,9.149,0
288,35.37,-97.495,357.9,31.02,11,360,-2.514,-1.142,9.856,0
289,35.371,-97.495,357.8,31.11,12,359,-2.207,-1.211,9.371,0
290,35.371,-97.495,358.3,30.67,13,358,-2.348,-1.102,9.328,0
291,35.371,-97.495,358.3,30.11,12,357,-2.621,-1.265,9.496,0
292,35.371,-97.495,358,29.91,12,358,-2.307,-1.127,9.072,0
293,35.372,-97.495,357.8,29.54,13,358,-2.302,-1.167,9.103,0
294,35.372,-97.495,357.8,29.31,13,357,-2.445,-0.98,8.928,0
295,35.372,-97.495,357.8,29,12,357,-2.646,-1.427,9.182,0
296,35.373,-97.495,358.4,28.79,10,357,-2.716,-1.518,8.882,1
297,35.373,-97.495,359.3,28.68,11,355,-2.714,-1.687,9.193,1
298,35.373,-97.495,359.4,29.09,10,356,-2.589,-1.763,9.013,1
299,35.373,-97.495,359.9,28.91,10,355,-2.686,-1.521,8.74,1
300,35.374,-97.495,359.3,29.32,10,354,-2.709,-1.733,9.193,1
301,35.374,-97.495,0.2,29.63,9,354,-2.731,-1.622,9.005,1
302,35.374,-97.495,0.5,29.92,9,353,-2.785,-1.683,8.944,1
303,35.374,-97.495,359.9,30.18,9,353,-2.715,-1.789,9.129,1
304,35.375,-97.495,0,30.78,9,354,-2.816,-1.494,8.541,1
305,35.375,-97.495,0,31.12,11,354,-2.837,-1.613,8.864,1
306,35.375,-97.495,0.4,31.45,10,353,-2.8,-1.615,8.914,1
307,35.376,-97.495,0,32.1,10,354,-2.793,-1.571,8.917,1
308,35.376,-97.495,0.3,32.56,11,354,-2.741,-1.703,8.684,1
309,35.376,-97.495,359.6,32.781,9,357,-2.834,-1.742,9.056,1
310,35.376,-97.495,359.6,33.041,11,358,-2.82,-1.621,8.774,1
311,35.377,-97.495,359.7,33.24,10,359,-2.691,-1.637,8.782,1
312,35.377,-97.495,359.8,33.74,11,358,-2.338,-1.144,9.433,1
313,35.377,-97.495,359.8,33.84,11,358,-2.185,-1.055,9.031,1
314,35.378,-97.495,359.5,33.43,12,358,-2.328,-0.952,9.245,1
315,35.378,-97.495,359,33.3,13,358,-2.542,-1.286,9.431,0
316,35.378,-97.495,358.9,33.03,13,357,-2.606,-1.379,8.893,0
317,35.379,-97.495,359,33.02,13,357,-2.634,-1.575,8.965,0
318,35.379,-97.495,359.4,32.72,14,356,-2.453,-1.385,9.3,0
319,35.379,-97.495,359.8,32.57,9,358,-2.435,-1.365,9.53,0
320,35.379,-97.495,359.8,32.61,7,361,-2.339,-1.357,8.786,0
322,35.38,-97.495,359.9,32.62,6,362,-2.412,-1.527,9.38,0
322,35.38,-97.495,359.9,32.62,6,362,-2.412,-1.527,9.38,0
323,35.38,-97.495,359.8,32.34,6,362,-2.314,-1.228,8.952,0
324,35.38,-97.495,0,32.77,6,362,-2.327,-1.352,9.199,0
325,35.38,-97.495,359.9,33.04,7,363,-2.445,-1.398,9.367,0
326,35.381,-97.495,359.7,33.11,9,364,-2.495,-1.343,9.259,0
327,35.381,-97.495,359.9,33.13,10,364,-2.192,-1.272,9.533,0
328,35.381,-97.495,359.7,33.08,10,364,-2.39,-1.372,9.085,0
329,35.382,-97.495,359.3,33.24,8,366,-2.542,-1.016,9.008,0
330,35.382,-97.495,359.8,33.05,7,366,-2.476,-1.059,8.932,0
331,35.382,-97.495,0.1,32.93,6,367,-2.496,-1.067,8.819,0
332,35.383,-97.495,0.2,32.93,6,366,-2.337,-1.276,9.041,0
333,35.383,-97.495,0.2,33.02,6,367,-2.319,-1.283,9.121,0
334,35.383,-97.495,0,33.23,6,367,-2.23,-0.991,9.101,0
335,35.384,-97.495,0.2,33.08,5,367,-2.178,-0.976,9.168,1
336,35.384,-97.495,359.9,33.47,5,367,-2.339,-0.968,9.235,1
337,35.384,-97.495,359.7,33.16,5,367,-2.395,-1.179,9.605,0
338,35.385,-97.495,359.2,32.97,5,367,-2.373,-0.743,9.212,0
339,35.385,-97.495,359.9,32.83,5,367,-2.337,-1.222,9.512,0
340,35.385,-97.495,359.9,32.83,4,367,-2.056,-1.211,9.286,0
341,35.386,-97.495,359.6,32.89,4,367,-2.242,-1.284,9.664,0
342,35.386,-97.495,359.5,32.01,4,367,-2.454,-0.952,8.863,0
343,35.386,-97.495,359.6,31.95,4,367,-2.417,-1.181,9.222,0
344,35.386,-97.495,359.6,31.99,4,367,-2.909,-1.723,8.734,0
345,35.387,-97.495,0,32.29,4,367,-2.744,-1.837,8.542,0
346,35.387,-97.495,0.4,32.68,5,366,-2.633,-1.64,9.047,0
347,35.387,-97.495,0,33.07,5,366,-2.795,-1.376,8.801,0
348,35.388,-97.495,0.2,33.43,6,366,-2.384,-1.264,9.106,0
349,35.388,-97.495,359.6,33.37,7,366,-2.548,-1.136,9.047,1
350,35.388,-97.495,359.6,33.39,8,366,-2.645,-1.441,8.872,1
351,35.389,-97.495,359.8,33.59,8,365,-2.718,-1.309,9.004,1
352,35.389,-97.495,0,33.74,9,365,-2.55,-1.088,8.914,1
353,35.389,-97.495,359.7,33.82,10,365,-2.308,-0.984,9.129,1
354,35.389,-97.495,0.3,33.73,6,365,-2.34,-1.054,9.126,1
355,35.39,-97.495,0,33.54,5,365,-2.278,-1.137,9.507,1
356,35.39,-97.495,0,33.33,5,366,-2.33,-1.022,9.06,1
357,35.39,-97.495,0,33.12,5,366,-2.431,-1.022,9.44,1
358,35.391,-97.495,0,32.88,6,365,-2.405,-1.159,9.248,1
359,35.391,-97.495,0.1,32.63,6,365,-2.308,-1.134,8.933,1
360,35.391,-97.495,0.2,32.43,7,365,-2.252,-1.152,8.668,1
361,35.391,-97.495,0,32.25,7,365,-2.614,-1.351,9.545,1
362,35.392,-97.495,358.3,31.97,7,363,-2.881,-1.585,9.749,0
363,35.392,-97.495,358.2,32.14,6,364,-2.916,-1.446,9.212,0
364,35.392,-97.495,358.4,32.25,7,364,-2.881,-1.61,8.476,0
365,35.393,-97.495,359.7,33.22,6,364,-2.938,-1.821,8.888,0
366,35.393,-97.495,359.8,33.77,7,363,-2.898,-1.732,8.667,0
367,35.393,-97.495,359.7,34.26,7,364,-2.769,-1.59,8.837,0
368,35.394,-97.495,359.7,34.74,7,364,-2.852,-1.637,8.653,0
369,35.394,-97.495,359.8,35.23,7,364,-2.785,-1.705,9.111,0
370,35.394,-97.495,359.9,35.66,7,363,-2.557,-1.405,8.712,1
371,35.395,-97.495,359.9,35.8,7,363,-2.213,-1.255,9.247,1
372,35.395,-97.495,359.8,35.47,6,363,-2.103,-0.89,9.016,1
373,35.395,-97.495,359.6,35.04,6,363,-2.213,-0.935,8.968,1
374,35.396,-97.495,359.7,34.55,6,363,-2.324,-1.03,9.154,1
375,35.396,-97.495,359.8,34.12,6,363,-2.161,-1.064,9.054,1
376,35.396,-97.495,359.8,33.69,6,363,-2.216,-1.167,9.199,1
377,35.396,-97.495,359.9,33.3,7,363,-2.165,-0.998,8.826,1
378,35.397,-97.495,0,32.97,8,363,-2.299,-1.078,9.077,1
379,35.397,-97.495,359.9,32.69,6,367,-2.278,-0.975,8.754,1
380,35.397,-97.495,0.1,32.57,6,370,-2.195,-1.013,8.917,1
381,35.398,-97.495,0,32.56,6,370,-2.362,-1.278,9.426,1
382,35.398,-97.495,0.2,32.43,6,370,-2.266,-1.206,9.192,1
383,35.398,-97.495,0.1,32.08,6,369,-2.232,-1.104,9.633,0
384,35.398,-97.495,0.1,32.15,5,369,-2.239,-1.15,9.263,0
386,35.399,-97.495,0,32.18,6,370,-2.374,-1.195,9.335,0
386,35.399,-97.495,0,32.18,6,370,-2.374,-1.195,9.335,0
387,35.399,-97.495,0.8,30.92,4,370,-2.424,-1.086,9.426,0
388,35.399,-97.495,359.7,31.12,3,370,-2.354,-1.409,9.235,0
389,35.4,-97.495,359.7,31.47,4,370,-2.435,-1.374,9.341,0
390,35.4,-97.495,359.5,31.5,3,370,-2.725,-1.334,8.983,0
391,35.4,-97.495,359.5,31.35,4,370,-2.794,-1.45,8.947,0
392,35.4,-97.495,359.5,31.33,4,369,-2.701,-1.506,8.789,0
393,35.401,-97.495,359.7,31.42,4,369,-2.442,-1.664,9.047,0
394,35.401,-97.495,359.6,31.54,4,369,-2.915,-1.295,8.908,0
395,35.401,-97.495,359.5,31.66,4,369,-3.281,-0.934,8.806,0
396,35.402,-97.495,0.7,31.78,4,368,-3.274,-0.958,8.985,0
397,35.402,-97.495,2.7,32.06,3,370,-3.097,-1.229,8.596,0
398,35.402,-97.495,5,32.72,3,369,-2.955,-1.297,9.191,1
399,35.403,-97.495,5.7,32.8,3,370,-2.774,-1.054,9.035,1
400,35.403,-97.495,6.5,32.76,3,371,-2.927,-0.888,8.766,1
401,35.403,-97.495,7.8,33.041,3,372,-3.022,-1.088,9.304,0
402,35.404,-97.495,9.1,33.051,3,373,-2.83,-0.749,9.239,0
403,35.404,-97.495,10.4,32.83,3,372,-2.609,-0.758,9.18,0
404,35.404,-97.495,11.3,32.86,3,371,-2.413,-1.077,9.37,0
405,35.404,-97.495,12.2,32.34,3,371,-2.359,-0.891,9.021,0
406,35.405,-97.494,13.2,31.93,3,371,-2.562,-0.945,9.639,0
407,35.405,-97.494,13.5,31.63,3,371,-2.844,-0.829,9.582,0
408,35.405,-97.494,15.5,31.46,3,371,-2.493,-0.95,9.197,0
409,35.406,-97.494,16.5,30.89,3,371,-2.498,-0.836,8.82,0
410,35.406,-97.494,17.4,30.41,3,371,-2.045,-1.221,8.856,0
411,35.406,-97.494,17.7,30.19,3,371,-2.395,-1.5,9.297,0
412,35.406,-97.494,17.5,30.22,3,372,-2.693,-1.768,9.472,0
413,35.407,-97.494,17.5,30.29,3,372,-2.59,-1.739,9.516,0
414,35.407,-97.494,17.3,30.49,3,372,-2.847,-1.84,9.555,0
415,35.407,-97.494,17.3,30.71,3,372,-2.709,-1.547,8.675,0
416,35.407,-97.493,17.3,31.03,3,371,-2.604,-1.659,8.72,0
417,35.408,-97.493,17.5,31.28,3,372,-2.632,-1.683,9.083,0
418,35.408,-97.493,17.6,31.55,3,371,-2.761,-1.846,9.465,0
419,35.408,-97.493,17.7,31.86,3,370,-2.42,-1.74,8.974,0
420,35.409,-97.493,17.6,32.09,3,371,-3.612,-1.701,9.595,0
421,35.409,-97.493,17.6,32.28,3,371,-2.612,-1.735,9.439,0
422,35.409,-97.493,17.5,32.15,4,371,-2.195,-1.395,9.285,0
423,35.409,-97.493,17.5,31.9,3,371,-2.454,-1.337,9.209,0
424,35.41,-97.493,17.7,31.82,3,370,-2.633,-1.393,9.066,0
425,35.41,-97.492,17.2,31.67,3,370,-2.281,-1.624,9.015,0
426,35.41,-97.492,17.5,32.31,3,369,-2.603,-1.498,8.878,0
427,35.41,-97.492,17.3,32.671,3,368,-2.392,-1.324,8.801,0
428,35.411,-97.492,17.4,32.871,3,368,-2.416,-1.285,8.797,1
429,35.411,-97.492,17.4,33.082,3,367,-2.445,-1.441,9.485,1
430,35.411,-97.492,17.5,33.241,3,366,-2.4,-1.341,9.22,0
431,35.412,-97.492,17.5,33.223,3,365,-2.352,-1.293,9.29,0
432,35.412,-97.492,17.7,33.193,3,364,-2.448,-1.388,9.77,0
433,35.412,-97.492,17.7,33.142,3,364,-2.237,-1.383,9.616,0
434,35.412,-97.492,17.6,33.112,3,363,-2.237,-1.397,9.351,0
435,35.413,-97.491,17.5,33.082,3,362,-2.217,-1.432,9.167,0
436,35.413,-97.491,17.4,33.052,3,361,-2.266,-1.364,9.049,0
437,35.413,-97.491,17.4,33.052,3,360,-2.298,-1.231,9.128,0
438,35.414,-97.491,17.4,33.041,3,361,-2.243,-1.328,9.491,0
439,35.414,-97.491,17.6,32.93,3,360,-2.145,-1.356,8.771,0
440,35.414,-97.491,18.3,32.64,3,360,-2.536,-1.681,9.436,1
441,35.414,-97.491,17.2,32.55,3,360,-2.656,-1.614,8.754,1
442,35.415,-97.491,17.4,33.28,3,360,-2.555,-1.793,9.108,1
443,35.415,-97.491,17.4,33.54,3,360,-2.44,-1.599,8.539,1
444,35.415,-97.49,17.5,33.514,3,361,-2.498,-1.632,8.578,1
445,35.416,-97.49,17.5,33.631,3,361,-2.447,-1.577,8.901,1
446,35.416,-97.49,17.6,33.791,3,362,-2.482,-1.824,8.798,1
447,35.416,-97.49,17.6,33.941,3,362,-2.614,-1.731,8.836,1
448,35.416,-97.49,17.4,34.16,3,362,-2.404,-1.281,8.536,1
449,35.417,-97.49,17.5,34.31,3,362,-2.384,-1.314,8.6,1
450,35.417,-97.49,17.4,34.26,3,362,-2.314,-1.573,8.339,1
452,35.417,-97.49,17.5,34.35,3,362,-2.358,-1.162,8.964,1
452,35.417,-97.49,17.5,34.35,3,362,-2.358,-1.162,8.964,1
453,35.418,-97.49,17.5,34.28,3,362,-2.308,-1.144,9.047,1
454,35.418,-97.489,17.7,34.061,3,362,-2.309,-1.004,9.233,0
455,35.418,-97.489,17.7,33.86,3,362,-2.261,-1.348,8.908,0
456,35.419,-97.489,17.6,33.65,3,362,-2.231,-1.109,9.26,0
457,35.419,-97.489,17.6,33.34,3,362,-2.467,-1.684,9.432,0
458,35.419,-97.489,17.7,33.23,3,362,-2.788,-1.307,9.017,0
459,35.419,-97.489,17.9,33.2,3,362,-3.122,-1.057,9.202,0
460,35.42,-97.489,19.1,32.942,3,363,-3.069,-1.432,8.887,0
461,35.42,-97.488,21.2,33.361,3,364,-2.851,-1.504,9.182,0
462,35.42,-97.488,21.9,33.66,3,364,-2.958,-1.591,8.444,0
463,35.421,-97.488,22.2,33.93,3,365,-2.947,-1.716,9.812,0
464,35.421,-97.488,22.4,34.09,3,365,-2.798,-1.693,9.297,0
465,35.421,-97.488,22.5,34.33,3,365,-2.161,-1.4,8.313,0
466,35.422,-97.488,22.3,34.84,3,365,-2.758,-1.773,8.969,0
467,35.422,-97.488,22.6,35.371,3,364,-2.502,-1.289,9.172,0
468,35.422,-97.487,23,35.121,3,364,-2.263,-0.89,8.601,0
469,35.422,-97.487,23.5,34.98,3,364,-2.387,-1,9.176,0
470,35.423,-97.487,23.9,34.59,3,364,-2.226,-1.355,9.276,0
471,35.423,-97.487,23.2,34.392,3,364,-2.045,-1.378,9.116,0
472,35.423,-97.487,22.1,33.911,3,364,-1.99,-1.227,9.168,0
473,35.424,-97.487,20.6,33.801,3,363,-1.907,-1.487,9.283,1
474,35.424,-97.487,18.9,33.572,3,363,-1.618,-1.83,9.39,1
475,35.424,-97.487,17,33.64,3,363,-2.132,-1.871,8.679,1
476,35.424,-97.486,15.2,34.09,3,363,-2.161,-1.952,9.174,1
477,35.425,-97.486,13.3,34.732,3,362,-1.706,-1.635,9.123,1
478,35.425,-97.486,11.5,34.732,3,361,-1.807,-1.339,9.334,0
479,35.425,-97.486,10,34.552,3,361,-2.532,-2.192,9.683,0
480,35.426,-97.486,8.6,34.581,3,361,-1.734,-1.723,9.568,0
481,35.426,-97.486,7.1,34.32,3,361,-1.595,-1.517,9.3,0
482,35.426,-97.486,5.7,33.86,3,361,-1.541,-1.26,9.17,0
483,35.427,-97.486,3,33.962,3,359,-1.579,-1.224,9.277,0
484,35.427,-97.486,1.4,33.422,3,359,-1.983,-1.306,9.178,0
485,35.427,-97.486,0.4,33.14,3,358,-1.842,-0.574,9.236,0
486,35.428,-97.486,0.1,32.15,3,358,-1.73,-0.787,9.394,0
487,35.428,-97.486,359.9,31.12,3,358,-2.177,-0.997,9.058,1
488,35.428,-97.486,359.7,30.91,3,358,-1.881,-0.701,8.927,1
489,35.428,-97.486,359.7,30.81,3,358,-2.111,-1.004,9.017,1
490,35.429,-97.486,0.1,29.12,3,358,-2.051,-1.47,9.159,1
491,35.429,-97.486,0.1,28.89,3,358,-2.363,-1.531,9.281,1
492,35.429,-97.486,0,28.71,3,358,-2.205,-1.38,9.312,1
493,35.429,-97.486,359.8,28.46,3,358,-2.243,-1.425,9.142,1
494,35.43,-97.486,359.9,28.27,3,358,-1.903,-1.299,8.78,0
495,35.43,-97.486,0,28.02,3,358,-2.042,-1.207,8.723,0
496,35.43,-97.486,0,27.64,3,358,-1.915,-1.133,9.157,0
497,35.43,-97.486,359.9,27.17,3,358,-1.702,-0.595,9.554,0
498,35.431,-97.486,0.1,26.101,3,359,-1.854,-0.861,9.603,0
499,35.431,-97.486,0.1,24.75,3,359,-1.848,-1.284,9.238,0
500,35.431,-97.486,359.8,24.331,3,359,-2.184,-1.154,9.119,0
501,35.431,-97.486,359.7,24.15,3,359,-2.611,-1.696,9.094,1
502,35.432,-97.486,359.9,24.35,3,359,-3.108,-2.23,8.716,1
503,35.432,-97.486,0.2,25.221,3,359,-3.152,-2.438,8.701,1
504,35.432,-97.486,0.5,26.291,3,359,-3.016,-2.455,8.138,1
505,35.432,-97.486,0.1,27.66,3,360,-3.497,-2.48,8.877,1
506,35.432,-97.486,0.1,28.93,3,360,-3.233,-2.41,8.31,1
507,35.433,-97.486,0.1,30.19,3,360,-2.652,-1.96,8.798,1
509,35.433,-97.486,0,30.93,3,360,-2.442,-1.39,8.88,1
509,35.433,-97.486,0,30.93,3,360,-2.442,-1.39,8.88,1
510,35.433,-97.486,359.9,31.21,3,360,-2.116,-1.39,8.975,1
511,35.434,-97.486,0.1,31.07,3,359,-2.271,-1.153,9.102,1
512,35.434,-97.486,359.8,31.12,3,359,-2.267,-1.188,8.856,1
513,35.434,-97.486,0,31.11,3,359,-2.236,-1.377,9.21,1
514,35.434,-97.486,0.1,31.12,3,359,-2.399,-1.442,9.608,0
515,35.435,-97.486,0.1,31.14,3,358,-2.3,-1.392,9.348,0
516,35.435,-97.486,0,30.98,3,358,-2.212,-1.386,9.176,0
517,35.435,-97.486,0.1,30.17,3,358,-2.418,-1.433,9.439,0
518,35.436,-97.486,358.6,30.341,3,358,-2.675,-1.622,9.17,0
519,35.436,-97.486,359.8,30.6,3,358,-2.627,-1.671,8.648,0
520,35.436,-97.486,0.1,30.91,3,358,-2.308,-1.495,9.017,0
521,35.436,-97.486,359.9,31.22,3,358,-2.289,-1.222,9.153,0
522,35.437,-97.486,0.1,30.77,3,358,-2.192,-1.267,9.268,0
523,35.437,-97.486,0,30.47,3,357,-2.279,-1.36,9.614,0
524,35.438,-97.486,359.9,30.29,3,357,-2.413,-1.439,9.293,0
525,35.438,-97.486,0,30.3,3,357,-2.491,-1.393,8.842,0
526,35.438,-97.486,0.1,30.4,3,357,-2.354,-1.786,8.805,0
527,35.438,-97.486,359.9,30.58,3,358,-2.593,-1.772,9.129,0
528,35.439,-97.486,359.9,30.74,3,357,-2.499,-1.659,9.165,0
529,35.439,-97.486,359.9,30.82,3,358,-2.448,-1.626,9.093,0
530,35.439,-97.486,1.5,30.26,3,359,-2.625,-1.247,8.867,0
531,35.439,-97.486,0,29.611,3,358,-2.377,-1.467,9.182,0
532,35.44,-97.486,0,30.66,3,358,-2.193,-1.458,9.042,1
533,35.44,-97.486,359.8,30.42,3,358,-2.294,-1.332,9.644,0
534,35.44,-97.486,359.9,30.1,3,358,-2.268,-1.326,8.705,0
535,35.441,-97.486,359.9,29.9,3,358,-2.54,-1.81,9.613,0
536,35.441,-97.486,359.8,29.89,3,358,-2.546,-1.316,9.353,0
537,35.441,-97.486,0,29.77,3,358,-2.606,-1.341,9.224,0
538,35.441,-97.486,0.3,29.52,3,358,-2.262,-1.354,8.954,0
539,35.442,-97.486,0.3,29.41,3,358,-2.137,-1.392,8.986,0
540,35.442,-97.486,0.2,29.23,3,358,-2.125,-1.491,9.84,0
541,35.442,-97.486,0.1,29.03,3,358,-2.023,-1.544,9.306,0
542,35.442,-97.486,359.9,28.89,3,358,-2.023,-1.286,9.516,0
543,35.443,-97.486,359.9,28.64,3,358,-2.087,-1.168,9.418,0
544,35.443,-97.486,0.1,28.561,3,357,-2.572,-1.439,8.593,0
545,35.443,-97.486,0.2,28.59,3,357,-2.388,-1.468,8.915,0
546,35.443,-97.486,0.3,28.61,3,356,-2.266,-1.461,9.299,0
547,35.444,-97.486,0.2,28.52,3,356,-2.178,-1.239,9.016,0
548,35.444,-97.486,359.6,28.54,3,357,-2.299,-1.076,9.326,0
549,35.444,-97.486,359.5,28.562,3,356,-2.268,-1.226,9.529,0
550,35.444,-97.486,358.8,28.492,3,355,-2.469,-1.355,9.078,0
551,35.445,-97.486,358,28.38,3,355,-2.699,-1.672,9.678,0
552,35.445,-97.486,358.4,28.3,4,354,-2.447,-1.697,9.251,0
553,35.445,-97.486,356.5,28.49,4,354,-2.495,-1.642,8.985,0
554,35.445,-97.486,355.7,28.59,4,354,-2.343,-1.477,9.067,0
555,35.446,-97.486,354.1,29.34,3,354,-2.529,-1.562,8.834,0
556,35.446,-97.486,353.1,29.55,3,353,-2.505,-1.38,8.762,0
557,35.446,-97.486,352.3,29.65,3,353,-2.462,-1.639,8.992,0
558,35.447,-97.486,351.4,29.71,3,352,-2.017,-1.606,8.979,0
559,35.447,-97.486,350.1,29.73,3,352,-2.413,-1.408,9.085,0
560,35.447,-97.486,349,29.73,3,349,-2.401,-1.546,9.145,1
561,35.447,-97.487,348.2,29.76,3,346,-2.108,-1.469,9.052,1
562,35.448,-97.487,347.2,29.72,3,345,-2.112,-1.586,8.937,1
563,35.448,-97.487,345.9,29.68,3,344,-2.35,-1.719,8.99,1
564,35.448,-97.487,344.4,29.68,3,343,-2.283,-1.909,9.262,1
565,35.448,-97.487,343.4,30.08,3,341,-2.126,-1.52,9.506,1
566,35.449,-97.487,341.7,29.991,3,341,-2.558,-1.35,9.315,1
567,35.449,-97.487,341.1,29.93,3,339,-2.674,-1.398,9.082,1
568,35.449,-97.487,341.1,30.03,3,338,-2.556,-1.742,9.501,0
569,35.449,-97.487,340.9,30.321,3,337,-2.427,-1.764,9.101,0
570,35.45,-97.487,339.5,30.3,3,336,-2.615,-1.505,8.793,0
571,35.45,-97.487,339.6,30.79,4,336,-2.749,-1.773,9.584,0
573,35.45,-97.488,339.3,30.82,5,335,-2.702,-1.597,9.266,0
573,35.45,-97.488,339.3,30.82,5,335,-2.702,-1.597,9.266,0
574,35.45,-97.488,339.1,31.04,4,336,-2.244,-1.444,8.983,0
575,35.451,-97.488,339.3,30.821,4,336,-2.138,-1.454,9.43,0
576,35.451,-97.488,339.2,30.352,3,337,-1.915,-1.049,9.38,0
577,35.451,-97.488,339.4,29.801,3,337,-1.941,-0.653,9.666,0
578,35.452,-97.488,339.8,28.881,3,337,-1.982,-1.263,8.371,0
579,35.452,-97.488,340,28.081,3,337,-2.224,-1.219,8.486,0
580,35.452,-97.488,340.1,27.671,3,337,-2.221,-0.629,9.394,1
581,35.452,-97.489,340.3,27.161,3,337,-2.462,-1.05,9.269,1
582,35.452,-97.489,341.4,25.981,3,338,-2.908,-1.448,8.91,1
583,35.453,-97.489,341.8,25.651,3,339,-3.252,-1.54,8.309,1
584,35.453,-97.489,342.4,26.32,3,338,-3.344,-1.668,8.714,1
585,35.453,-97.489,342.3,26.73,3,339,-2.846,-1.519,8.965,1
586,35.454,-97.489,342.7,26.91,3,340,-2.491,-1.319,9.137,1
587,35.454,-97.489,342.7,26.91,3,340,-2.39,-1.372,8.894,1
588,35.454,-97.489,342.4,26.57,3,342,-2.026,-1.762,9.466,1
589,35.454,-97.489,341.3,26.12,3,341,-1.307,-0.728,9.524,1
590,35.454,-97.489,341,24.9,3,342,-1.211,-0.842,9.148,1
591,35.455,-97.49,340.7,24.1,3,343,-2.159,-1.233,8.992,1
592,35.455,-97.49,340.6,23.97,3,344,-2.436,-1.459,9.08,1
593,35.455,-97.49,340.8,24.161,3,344,-2.521,-1.763,9.134,1
594,35.455,-97.49,340.7,24.811,3,343,-2.649,-1.962,8.857,1
595,35.455,-97.49,340.7,25.581,3,342,-2.685,-2.009,8.873,1
596,35.456,-97.49,340.4,26.41,3,344,-2.717,-1.947,9.056,0
597,35.456,-97.49,340.5,27.1,3,344,-2.571,-2.088,8.881,0
598,35.456,-97.49,340.6,27.941,3,343,-2.589,-1.888,8.332,0
599,35.456,-97.49,340.6,28.681,3,343,-2.59,-2.307,9.389,0
600,35.457,-97.49,340.4,29.541,3,342,-2.657,-2.155,9.159,0
601,35.457,-97.491,340.3,30.3,3,341,-2.617,-1.75,8.482,0
602,35.457,-97.491,340.3,30.84,3,341,-2.669,-1.881,8.777,0
603,35.457,-97.491,340.1,31.1,3,341,-2.916,-1.902,8.657,0
604,35.458,-97.491,340.4,31.52,3,341,-3.483,-2.194,9.981,0
605,35.458,-97.491,341.1,32.18,4,341,-2.909,-2.012,8.243,0
606,35.458,-97.491,341.1,32.88,4,340,-2.766,-0.752,7.037,0
607,35.459,-97.491,341.2,33.27,4,340,-3.205,-1.782,8.853,0
608,35.459,-97.491,341.4,33.63,4,341,-2.626,-1.091,9.129,0
609,35.459,-97.491,341.7,33.61,4,340,-3.569,-1.183,8.516,0
610,35.459,-97.492,341.5,32.841,4,340,-1.757,-1.058,9.064,0
611,35.46,-97.492,342,32.58,4,340,-2.1,-1.089,9.08,0
612,35.46,-97.492,342.1,32.13,4,340,-1.957,-1.264,8.993,1
613,35.46,-97.492,341.5,31.52,4,339,-1.929,-1.504,9.555,1
614,35.46,-97.492,341.5,31.09,4,340,-2.343,-1.135,9.114,1
615,35.461,-97.492,341.5,30.7,4,340,-2.563,-0.931,8.728,1
616,35.461,-97.492,340.4,29.713,3,342,-1.688,-0.586,8.735,1
617,35.461,-97.492,340.1,28.84,3,341,-1.535,-1,9.085,1
618,35.461,-97.492,338.8,28.17,3,340,-0.727,-1.756,9.098,1
619,35.462,-97.493,335.2,27.581,3,340,-1.096,-2.058,9.19,1
620,35.462,-97.493,330.5,27.22,3,341,-1.424,-2.287,9.345,1
621,35.462,-97.493,326.5,27.12,3,340,-1.387,-2.171,8.473,1
622,35.462,-97.493,326.2,26.8,3,341,-1.319,-2.262,9.028,1
623,35.462,-97.493,319,26.67,3,341,-1.302,-2.396,8.798,1
624,35.463,-97.493,318.1,26.99,3,341,-1.23,-2.365,9.456,1
625,35.463,-97.494,311.3,26.75,3,341,-1.562,-2.044,9.213,1
626,35.463,-97.494,307.7,26.41,3,344,-1.626,-2.395,8.886,1
627,35.463,-97.494,303.5,26.67,3,343,-2.103,-2.582,8.722,1
628,35.463,-97.494,302.1,26.76,3,343,-2.028,-2.686,9.096,1
629,35.463,-97.495,296.7,27.85,3,344,-2.918,-2.042,8.832,1
630,35.463,-97.495,295.2,28.68,3,344,-2.992,-1.742,8.615,1
631,35.464,-97.495,295.5,29.62,3,344,-3.047,-2.006,8.946,1
632,35.464,-97.496,295.5,30.52,3,343,-2.798,-1.874,8.887,1
633,35.464,-97.496,295.5,31.1,3,343,-2.836,-1.992,9.261,1
634,35.464,-97.496,295.8,31.47,3,344,-2.454,-1.665,9.324,0
636,35.464,-97.497,296.2,31.61,3,344,-2.197,-1.504,8.726,0
636,35.464,-97.497,296.2,31.61,3,344,-2.197,-1.504,8.726,0
637,35.464,-97.497,296.3,31.35,3,344,-2.253,-1.292,8.762,0
638,35.464,-97.497,296.5,31.14,3,344,-2.631,-1.161,8.556,0
639,35.464,-97.497,297.2,31.001,3,344,-3.44,-1.054,8.841,0
640,35.465,-97.498,299.3,31.231,3,344,-3.708,-0.986,9.276,0
641,35.465,-97.498,300.3,31.4,3,344,-3.661,-1.069,8.932,0
642,35.465,-97.498,302,31.63,3,345,-3.672,-1.237,9.231,0
643,35.465,-97.499,307.2,32.36,3,344,-3.605,-1.29,9.095,0
644,35.465,-97.499,309.4,32.85,3,344,-3.817,-1.205,9.351,0
645,35.465,-97.499,310.8,33,3,344,-3.188,-0.576,9.343,0
646,35.466,-97.499,314.5,33.571,3,345,-3.083,-0.423,9.206,0
647,35.466,-97.5,318.9,32.7,3,346,-2.43,-0.302,8.453,0
648,35.466,-97.5,321.2,32.34,3,346,-3.09,-0.513,10.207,0
649,35.467,-97.5,323.3,31.99,3,346,-2.709,-1.554,10.849,0
650,35.467,-97.501,324.5,31.6,3,347,-2.221,-1.538,9.42,0
651,35.467,-97.501,324.6,31.471,3,348,-2.318,-1.448,8.919,0
652,35.467,-97.501,324.5,31.29,3,347,-2.178,-1.471,9.548,0
653,35.467,-97.501,324.5,31.06,3,348,-2.852,-1.864,9.456,0
654,35.468,-97.501,324.6,30.578,3,348,-2.542,-1.296,8.366,0
655,35.468,-97.502,324.8,30.402,3,349,-2.064,-1.596,9.753,0
656,35.468,-97.502,324.7,29.861,3,350,-2.328,-1.263,9.11,0
657,35.468,-97.502,324.8,29.251,3,349,-1.935,-1.574,9.391,0
658,35.469,-97.502,324.9,29.071,3,349,-2.814,-1.912,9.419,0
659,35.469,-97.502,324.7,29.22,3,350,-2.418,-2.12,9.188,0
660,35.469,-97.503,323.8,29.4,3,351,-2.277,-2.316,8.715,0
661,35.469,-97.503,322.8,29.71,3,350,-2.451,-2.281,8.634,0
662,35.469,-97.503,322.1,29.911,3,353,-2.369,-1.866,8.996,0
663,35.47,-97.503,321.9,30.091,3,355,-2.378,-1.827,9.224,0
664,35.47,-97.503,321.6,30.021,3,355,-1.959,-0.914,7.332,0
665,35.47,-97.504,321.5,29.701,3,356,-1.771,-1.619,8.567,0
666,35.47,-97.504,321,29.561,3,356,-2.184,-1.797,8.789,0
667,35.47,-97.504,320.6,29.75,3,355,-2.251,-1.815,9.165,0
668,35.471,-97.504,320.4,30.01,3,355,-2.54,-1.833,8.772,0
669,35.471,-97.504,320.4,30.18,3,356,-2.483,-1.542,9.111,0
670,35.471,-97.505,320.5,30.4,3,356,-2.039,-1.473,9.092,0
671,35.471,-97.505,320.4,30.29,3,356,-2.135,-1.44,8.788,0
672,35.472,-97.505,320.4,30.26,3,355,-2.222,-1.304,8.75,0
673,35.472,-97.505,320.5,30.09,3,356,-1.456,-1.623,9.995,0
674,35.472,-97.505,320.4,29.81,3,356,-2.443,-1.64,9.7,0
675,35.472,-97.506,320.2,29.57,3,356,-2.269,-1.56,9.652,0
676,35.472,-97.506,320.2,29.53,3,356,-2.406,-1.596,8.942,0
677,35.473,-97.506,320.3,29.781,3,356,-2.595,-1.771,8.323,0
678,35.473,-97.506,320.6,30.11,3,355,-2.294,-1.737,8.861,0
679,35.473,-97.506,320.3,30.54,3,356,-2.299,-1.513,8.601,0
680,35.473,-97.507,320.3,30.75,3,356,-2.237,-1.411,8.82,0
681,35.473,-97.507,320.4,31.01,3,357,-2.246,-1.399,9.111,0
682,35.474,-97.507,320.4,31.07,3,358,-2.167,-1.368,9.031,0
683,35.474,-97.507,320.6,31.24,3,358,-2.75,-1.115,9.401,1
684,35.474,-97.508,320.9,31.26,3,358,-3.029,-0.913,9.652,0
685,35.474,-97.508,323.3,31.451,3,356,-2.898,-0.72,9.09,0
686,35.474,-97.508,324.3,31.51,4,354,-3.051,-0.738,9.216,0
687,35.475,-97.508,327.4,30.612,4,354,-3.217,-0.793,9.15,0
688,35.475,-97.508,330,30.551,4,352,-2.848,-0.96,8.811,0
689,35.475,-97.508,332,30.46,4,352,-2.953,-0.946,8.916,0
690,35.475,-97.509,333.8,30.26,3,351,-2.788,-0.849,9.152,0
691,35.476,-97.509,335.6,29.99,3,351,-2.599,-0.841,8.643,0
692,35.476,-97.509,337.2,29.71,3,350,-2.674,-0.777,8.93,1
693,35.476,-97.509,339.1,29.481,3,349,-3.018,-0.792,9.432,1
694,35.476,-97.509,341.2,29.29,3,350,-3.084,-0.935,9.123,1
695,35.477,-97.509,343.7,29.461,3,349,-3.043,-1.075,8.925,1
696,35.477,-97.509,345.4,29.46,3,349,-3.1,-1.197,9.006,1
697,35.477,-97.509,347.7,29.801,3,348,-3.282,-1.292,9.103,1
699,35.478,-97.509,349.5,30.17,3,348,-3.327,-1.459,9.518,0
699,35.478,-97.509,349.5,30.17,3,348,-3.327,-1.459,9.518,0
700,35.478,-97.509,351.7,30.63,3,347,-3.126,-1.488,9.236,0
701,35.478,-97.509,353.4,31.48,3,347,-3.378,-1.272,8.888,0
702,35.478,-97.509,355.3,31.26,3,346,-2.955,-1.609,9.052,0
703,35.479,-97.51,356.3,31.17,4,346,-2.841,-2.059,9.21,0
704,35.479,-97.51,357,32.021,3,347,-2.681,-2.057,8.783,0
705,35.479,-97.51,356.9,32.591,3,347,-2.737,-2.134,8.764,0
706,35.48,-97.51,357,32.91,3,347,-2.677,-1.699,8.454,0
707,35.48,-97.51,356.5,33.68,3,347,-2.267,-1.696,8.715,1
708,35.48,-97.51,356.4,33.75,3,347,-2.236,-1.634,9.249,1
709,35.48,-97.51,356.1,33.7,3,347,-1.814,-1.593,9.188,1
710,35.481,-97.51,355,33.71,3,346,-1.905,-1.551,9.354,1
711,35.481,-97.51,352.4,33.2,3,346,-2.287,-1.329,9.194,1
712,35.482,-97.51,351.9,32.93,3,346,-2.067,-1.376,9.216,1
713,35.482,-97.51,351.1,32.79,3,345,-2.051,-1.557,9.105,1
714,35.482,-97.51,350.3,32.53,3,344,-1.995,-1.55,9.296,1
715,35.483,-97.51,350.2,32.83,3,344,-2.023,-1.745,9.112,1
716,35.483,-97.51,349.5,32.89,3,344,-2.447,-1.731,9.188,1
717,35.483,-97.51,347.9,32.002,3,345,-2.384,-1.504,9.157,1
718,35.483,-97.51,347.2,31.646,3,347,-2.478,-1.6,9.122,0
719,35.484,-97.51,346.9,31.654,3,347,-2.504,-1.657,9.115,0
720,35.484,-97.51,346.6,31.494,3,349,-2.414,-1.649,9.529,0
721,35.484,-97.51,347,31.334,3,350,-3.044,-1.508,9.036,0
722,35.484,-97.511,348,31.134,3,351,-2.851,-1.17,8.956,0
723,35.485,-97.511,349.2,30.594,3,351,-2.962,-1.035,8.584,0
724,35.485,-97.511,350.4,30.353,3,351,-2.76,-1.423,9.006,0
725,35.485,-97.511,351,30.034,3,352,-2.562,-1.269,8.803,1
726,35.486,-97.511,351.8,29.941,3,352,-3.055,-0.998,8.79,0
727,35.486,-97.511,353,29.346,3,354,-3.077,-1.205,9.538,0
728,35.486,-97.511,353.9,28.955,3,355,-2.377,-1.227,9.078,0
729,35.486,-97.511,354.6,28.336,3,356,-2.219,-1.092,9.04,0
730,35.487,-97.511,354.8,28.192,3,357,-2.518,-0.918,9.07,0
731,35.487,-97.511,355.7,28.021,3,357,-2.527,-1.153,8.672,0
732,35.487,-97.511,357.8,27.172,3,357,-2.585,-1.386,8.914,0
733,35.487,-97.511,358.5,26.901,3,358,-2.741,-1.545,8.523,0
734,35.488,-97.511,359.1,26.93,3,359,-2.563,-1.55,8.562,0
735,35.488,-97.511,359.5,27.22,3,359,-2.657,-1.66,8.733,0
736,35.488,-97.511,359.9,27.61,3,359,-2.777,-1.834,9.065,0
737,35.488,-97.511,359.9,28,3,360,-2.919,-1.737,8.926,0
738,35.489,-97.511,0.1,28.5,3,360,-3.188,-1.592,8.897,0
739,35.489,-97.511,0.2,28.94,3,360,-3.037,-1.665,9.006,0
740,35.489,-97.511,0,29.43,3,360,-2.577,-2.546,9.838,0
741,35.489,-97.511,358.6,29.86,3,360,-2.08,-2.124,8.527,0
742,35.49,-97.511,356.3,30.29,3,360,-1.982,-2.09,8.337,0
743,35.49,-97.511,355.5,30.4,3,360,-1.885,-2.126,8.062,0
744,35.49,-97.511,352.3,31.11,3,360,-2.238,-1.89,8.677,0
745,35.49,-97.511,350.8,31.24,3,359,-2.206,-2.16,9.571,0
746,35.491,-97.511,349,31.41,3,359,-1.638,-1.801,8.463,0
747,35.491,-97.511,348,31.48,3,358,-2.125,-2.213,9.297,0
748,35.491,-97.511,345.5,30.7,4,360,-2.124,-1.947,9.411,0
749,35.492,-97.511,343.4,31.49,3,361,-2.124,-1.526,8.617,0
750,35.492,-97.512,342,31.46,4,360,-1.93,-1.915,8.743,0
751,35.492,-97.512,340.1,31.38,4,358,-2.152,-1.933,8.852,0
752,35.492,-97.512,337.9,31.38,3,357,-1.586,-2.182,9.325,0
753,35.493,-97.512,335.7,31.26,3,357,-2.629,-1.503,9.029,0
754,35.493,-97.512,334.7,31.06,3,358,-2.177,-1.059,8.481,0
755,35.493,-97.512,334.4,30.84,3,356,-1.339,-0.311,9.041,0
756,35.493,-97.512,334.2,29.971,3,355,-1.573,-0.769,9.823,0
757,35.494,-97.513,334.5,28.591,3,354,-2.293,-1.154,9.204,0
758,35.494,-97.513,334.9,28.182,3,353,-2.552,-1.35,9.042,0
760,35.494,-97.513,335.4,28.123,3,351,-2.364,-1.064,8.974,0
760,35.494,-97.513,335.4,28.123,3,351,-2.364,-1.064,8.974,0
761,35.494,-97.513,336,28.063,3,350,-2.78,-0.839,8.934,1
762,35.494,-97.513,336.6,28,3,350,-2.634,-1.175,9.11,1
763,35.495,-97.513,337.6,27.92,4,350,-2.579,-1.176,9.284,1
764,35.495,-97.513,339.4,28.01,5,350,-2.768,-1.259,9.728,0
765,35.495,-97.513,342.7,28.366,4,349,-2.743,-0.944,9.271,0
766,35.495,-97.513,344.5,28.416,3,348,-2.61,-0.911,9.452,0
767,35.496,-97.513,345.8,28.241,3,347,-2.485,-0.962,9.497,0
768,35.496,-97.514,347.4,28.201,3,348,-2.47,-0.675,8.851,0
769,35.496,-97.514,348.9,28.121,3,347,-2.884,-1.273,10.467,0
770,35.496,-97.514,351.3,28.084,3,346,-2.514,-0.739,8.794,0
771,35.497,-97.514,355,27.892,3,344,-2.866,-0.602,8.992,0
772,35.497,-97.514,357,27.961,3,344,-3.143,-0.695,9.406,0
773,35.497,-97.514,359.1,28.124,3,343,-2.957,-1.015,8.788,0
774,35.498,-97.514,359.7,28.054,3,343,-2.276,-1.614,9.352,0
775,35.498,-97.514,359.3,27.984,3,342,-1.732,-1.696,9.851,0
776,35.498,-97.514,358.9,27.861,3,342,-1.841,-1.508,9.386,0
777,35.498,-97.514,358.6,27.76,3,342,-2.048,-1.393,9.488,0
778,35.499,-97.514,358.6,27.63,4,342,-2.255,-1.437,9.567,0
779,35.499,-97.514,358.2,27.44,3,342,-2.181,-1.337,9.609,0
780,35.499,-97.514,358.3,27.18,3,342,-1.971,-1.126,9.472,0
781,35.499,-97.514,358.3,26.56,3,341,-2.066,-1.329,9.421,0
782,35.5,-97.514,358.3,26.18,4,342,-2.159,-1.367,9.448,0
783,35.5,-97.514,358.2,25.86,3,342,-2.04,-1.38,9.1,1
784,35.5,-97.514,358.2,25.57,3,343,-2.147,-1.58,9.234,1
785,35.5,-97.514,358.2,25.25,3,343,-1.715,-1.009,9.57,1
786,35.501,-97.514,358.1,24.34,3,343,-1.452,-0.499,9.571,1
787,35.501,-97.514,358.1,22.83,3,343,-0.998,-0.144,9.736,1
788,35.501,-97.514,357.9,20.63,3,343,-0.688,0.48,9.778,1
789,35.501,-97.514,358.7,19.74,3,343,-0.493,0.664,9.948,0
790,35.501,-97.514,359.3,17.61,4,342,-1.953,-1.251,9.307,0
791,35.501,-97.514,0.5,15.26,6,343,-2.065,-1.459,9.118,1
792,35.502,-97.514,358.2,12.71,4,342,-2.595,-1.911,8.858,0
793,35.502,-97.514,358.2,12.81,4,342,-1.553,-0.602,9.555,1
794,35.502,-97.514,358.3,12.74,4,342,0.066,1.043,10.56,0
795,35.502,-97.514,356.8,11.53,4,342,-0.316,0.872,10.319,0
796,35.502,-97.514,358,7.1701,4,342,-1.474,-0.661,9.612,1
797,35.502,-97.514,358.2,4.7701,4,343,-1.094,-0.248,9.497,1
798,35.502,-97.514,358.1,3.82,4,343,-1.549,-0.687,9.559,1
799,35.502,-97.514,357.7,2.43,4,343,-1.616,-0.749,9.407,1
800,35.502,-97.514,357.7,2.43,4,343,-2.779,-2.067,8.821,1
801,35.502,-97.514,357.7,2.43,4,343,-3.052,-2.391,8.583,1
802,35.502,-97.514,358.2,1.0508,5,343,-2.639,-1.963,8.945,1
803,35.502,-97.514,357.9,1.78,4,344,-1.455,-0.684,9.336,1
804,35.502,-97.514,357.9,1.9,4,344,-2.36,-1.624,9.424,1
805,35.502,-97.514,357.9,1.67,5,344,-2.493,-1.8,8.886,1
806,35.502,-97.514,357.9,1.84,4,343,-2.381,-1.609,9.215,1
807,35.502,-97.514,357.8,2.0601,4,343,-2.341,-1.786,9.345,1
808,35.502,-97.514,357.8,2,5,343,-2.507,-1.71,8.754,1
809,35.502,-97.514,357.8,2.0801,4,344,-2.407,-1.787,9.149,1
810,35.502,-97.514,357.8,2.23,5,344,-2.224,-1.511,9.122,1
811,35.502,-97.514,357.8,2.28,5,344,-2.68,-2.038,8.47,1
812,35.502,-97.514,357.8,2.38,5,344,-2.461,-1.81,8.946,1
813,35.502,-97.514,357.9,2.81,5,345,-2.563,-1.92,8.994,1
814,35.502,-97.514,358.1,3.35,4,345,-2.94,-2.284,8.513,1
815,35.502,-97.514,358.5,4.0003,4,345,-2.621,-1.82,8.727,1
816,35.502,-97.514,358.9,4.9401,4,346,-2.62,-2.264,8.727,1
817,35.502,-97.514,359.2,5.6601,4,346,-2.326,-1.619,8.968,1
818,35.502,-97.514,359.2,6.15,4,346,-2.251,-1.558,9.368,1
819,35.502,-97.514,358.9,6.1,4,347,-2.226,-1.483,9.114,1
820,35.503,-97.514,358.7,5.97,4,347,-1.756,-0.916,9.253,1
821,35.503,-97.514,358.4,5.7,3,347,-2.196,-1.461,8.97,1
823,35.503,-97.514,358.3,5.04,4,347,-2.246,-1.444,9.043,1
823,35.503,-97.514,358.3,5.04,4,347,-2.246,-1.444,9.043,1
824,35.503,-97.514,358.2,4.83,4,348,-2.207,-1.519,8.957,1
825,35.503,-97.514,358.6,4.61,4,347,-2.445,-1.803,9.023,1
826,35.503,-97.514,358.9,4.45,3,347,-2.425,-1.557,9.108,1
827,35.503,-97.514,359.1,4.44,3,347,-2.254,-1.581,9.065,1
828,35.503,-97.514,359.1,4.4,3,347,-2.824,-2.334,8.88,1
829,35.503,-97.514,359.1,4.3,3,347,-1.998,-1.26,9.231,1
830,35.503,-97.514,359,4.64,3,347,-1.776,-1.028,9.482,1
831,35.503,-97.514,359,4.1917,3,348,-2.072,-1.497,9.145,1
832,35.503,-97.514,359,2.5712,3,349,-2.372,-1.706,9.119,1
833,35.503,-97.514,358.9,2.5324,3,349,-2.269,-1.776,8.606,0
834,35.503,-97.514,358.7,2.6007,3,349,-2.369,-1.693,8.977,1
835,35.503,-97.514,358.4,2.6101,3,349,-2.123,-1.448,9.179,1
836,35.503,-97.514,358.4,2.471,3,349,-2.397,-1.679,8.756,1
837,35.503,-97.514,358.1,2.43,3,349,-2.441,-1.665,8.91,1
838,35.503,-97.514,357.8,2.49,3,348,-2.39,-1.729,9.219,1
839,35.503,-97.514,357.7,2.5401,3,348,-2.366,-1.742,9.025,1
840,35.503,-97.514,357.6,2.61,3,348,-2.318,-1.609,8.932,1
841,35.503,-97.514,357.6,2.61,3,348,-2.373,-1.65,9.128,1
842,35.503,-97.514,357.5,2.66,3,348,-2.681,-1.946,8.864,1
843,35.503,-97.514,357.6,2.9101,3,348,-3.19,-2.708,8.553,1
844,35.503,-97.514,357.6,2.9101,3,348,-3.039,-2.417,8.777,1
845,35.503,-97.514,358,4.63,3,349,-2.86,-2.19,8.699,1
846,35.503,-97.514,358.3,5.1505,3,349,-2.365,-1.685,9.124,1
847,35.503,-97.514,358.7,5.1602,4,349,-2.532,-1.718,8.878,1
848,35.503,-97.514,357.6,5.3927,3,349,-2.36,-1.679,8.897,1
849,35.504,-97.514,358,5.6913,3,348,-2.395,-1.659,9.095,1
850,35.504,-97.514,358.3,5.6702,4,348,-2.296,-1.544,8.974,1
851,35.504,-97.514,358.4,5.6701,3,348,-1.825,-1.103,9.377,1
852,35.504,-97.514,358.4,5.32,3,348,-2.045,-1.339,9.381,1
853,35.504,-97.514,358.5,4.4902,3,348,-1.671,-0.894,9.373,0
854,35.504,-97.514,358.3,3.5001,4,348,-1.848,-1.24,9.222,1
855,35.504,-97.514,358.2,2.7303,4,348,-2.046,-1.457,9.05,1
856,35.504,-97.514,358.2,2.1802,4,348,-2.499,-1.887,8.994,1
857,35.504,-97.514,358,2.16,4,348,-2.386,-1.817,9.003,1
858,35.504,-97.514,357.9,2.2901,4,348,-2.34,-1.784,8.867,1
859,35.504,-97.514,357.9,2.36,5,349,-2.376,-1.687,9.298,1
860,35.504,-97.514,357.8,2.4101,5,349,-2.427,-1.75,8.955,1
861,35.504,-97.514,357.7,2.32,5,349,-2.305,-1.785,9.258,1
862,35.504,-97.514,357.7,2.37,4,348,-2.374,-1.807,9.128,1
863,35.504,-97.514,357.6,2.41,5,349,-2.409,-1.654,9.048,1
864,35.504,-97.514,357.6,2.4701,4,349,-2.011,-1.177,9.141,1
865,35.504,-97.514,357.6,2.22,5,350,-2.465,-1.738,8.479,1
866,35.504,-97.514,357.5,2.04,4,349,-2.561,-1.861,8.76,1
867,35.504,-97.514,357.5,2.33,4,350,-2.784,-2.211,8.81,0
868,35.504,-97.514,357.7,3.47,3,350,-2.497,-1.793,8.641,1
869,35.504,-97.514,357.7,4.5607,3,350,-2.402,-1.628,9.363,1
870,35.504,-97.514,357.6,4.8702,3,350,-2.606,-1.74,9.552,0
871,35.504,-97.514,357.8,4.8904,3,350,-2.624,-1.672,8.767,1
872,35.504,-97.514,357.9,5.2402,3,350,-2.554,-1.546,8.974,0
873,35.504,-97.514,358.2,5.3,3,351,-2.324,-1.415,9.15,1
874,35.504,-97.514,358.1,5.1402,3,351,-2.201,-1.235,8.97,1
875,35.504,-97.514,358.1,4.92,3,351,-2.32,-1.362,8.752,1
876,35.504,-97.514,358.1,4.57,3,352,-2.492,-1.371,9.313,1
877,35.504,-97.514,358,4.3803,3,352,-2.469,-1.266,9.153,1
878,35.504,-97.514,358.1,4.25,3,351,-2.541,-1.262,9.196,1
879,35.505,-97.514,358.2,4.07,3,352,-2.57,-1.254,9.034,1
880,35.505,-97.514,358.1,3.91,3,351,-2.903,-1.628,8.909,1
881,35.505,-97.514,358,3.9506,3,351,-2.652,-1.375,9.088,1
883,35.505,-97.514,358,4.3,3,352,-2.646,-1.242,9.126,1
883,35.505,-97.514,358,4.3,3,352,-2.646,-1.242,9.126,1
884,35.505,-97.514,357.9,4.3,3,352,-2.507,-1.254,9.055,1
885,35.505,-97.514,357.8,4.18,3,352,-3.038,-1.844,8.658,1
886,35.505,-97.514,357.6,4.01,3,351,-2.635,-1.395,9.11,1
887,35.505,-97.514,357.4,4.39,3,351,-2.64,-1.237,9.229,1
888,35.505,-97.514,357.2,4.52,3,352,-2.669,-1.138,9.059,1
889,35.505,-97.514,357.1,4.45,3,351,-2.521,-1.235,9.178,1
890,35.505,-97.514,357,4.33,3,352,-2.639,-1.108,9.188,1
891,35.505,-97.514,356.9,4.2,3,351,-2.795,-1.074,9.006,1
892,35.505,-97.514,357,4.07,3,351,-2.886,-1.39,8.893,1
893,35.505,-97.514,357.2,3.9001,3,350,-2.809,-1.189,8.972,0
894,35.505,-97.514,357.4,4.06,3,349,-2.714,-1.142,9.326,1
895,35.505,-97.514,357.4,3.78,3,349,-2.217,-0.415,9.465,0
896,35.505,-97.514,357.4,3.0903,3,349,-2.618,-0.78,9.021,1
897,35.505,-97.514,357.4,2.4601,3,349,-2.534,-0.779,9.213,1
898,35.505,-97.514,357.3,2.06,3,349,-2.656,-1.044,9.065,0
899,35.505,-97.514,357.1,1.7904,3,349,-2.889,-1.188,8.603,0
900,35.505,-97.514,356.8,1.66,3,349,-2.726,-1.16,8.83,0
901,35.505,-97.514,356.4,1.7,3,348,-2.868,-1.274,8.746,1
902,35.505,-97.514,356.2,1.83,3,348,-2.958,-1.398,9.099,1
903,35.505,-97.514,356.2,2.03,3,347,-2.941,-1.334,9.02,1
904,35.505,-97.514,356.1,2.31,3,347,-2.852,-1.232,8.808,1
905,35.505,-97.514,355.9,2.53,3,347,-2.815,-1.259,9.024,1
906,35.505,-97.514,355.6,2.59,3,346,-2.715,-0.918,9.198,1
907,35.505,-97.514,355.4,2.36,3,346,-2.707,-1.127,9.349,1
908,35.505,-97.514,355.2,2.1804,3,346,-2.841,-1.224,9.118,0
909,35.505,-97.514,355,2.12,3,346,-2.866,-1.136,8.877,1
910,35.505,-97.514,354.8,2.2301,3,346,-2.692,-1.1,9.349,1
911,35.505,-97.514,354.7,2.1904,3,346,-2.784,-1.199,8.939,0
912,35.505,-97.514,354.5,2.2102,3,345,-2.842,-1.142,9.132,0
913,35.505,-97.514,354.3,2.1704,3,345,-2.833,-1.226,8.778,0
914,35.505,-97.514,354,2.2404,3,344,-2.879,-1.274,8.836,1
915,35.506,-97.514,353.6,2.4201,3,343,-2.899,-1.236,9.093,0
916,35.506,-97.514,353.4,2.6001,3,342,-2.828,-1.176,9.052,1
917,35.506,-97.514,353.2,2.71,3,342,-2.8,-1.193,8.972,1
918,35.506,-97.514,353,2.8203,3,341,-2.877,-1.215,8.997,0
919,35.506,-97.514,352.8,2.8701,3,341,-2.798,-1.186,8.909,1
920,35.506,-97.514,352.7,2.9201,3,340,-2.81,-1.191,8.693,1
921,35.506,-97.514,352.6,2.94,3,340,-2.826,-1.147,9.077,1
922,35.506,-97.514,352.5,2.99,3,340,-2.783,-1.153,8.853,1
923,35.506,-97.514,352.3,3.0401,3,339,-2.512,-0.633,9.25,1
924,35.506,-97.514,352.1,2.6907,3,337,-2.749,-1.117,9.056,1
925,35.506,-97.514,351.9,2.2208,3,336,-2.736,-1.108,8.746,1
926,35.506,-97.514,351.8,2.0802,3,336,-2.82,-1.257,8.996,0
927,35.506,-97.514,351.9,2.08,3,337,-2.886,-1.274,9.189,1
928,35.506,-97.514,351.9,2.24,3,336,-2.764,-1.266,8.882,1
929,35.506,-97.514,351.9,2.39,3,335,-2.525,-0.978,9.19,1
930,35.506,-97.514,351.8,2.38,3,334,-2.663,-1.247,9.124,0
931,35.506,-97.514,351.8,2.2004,3,334,-2.395,-0.847,9.246,1
932,35.506,-97.514,351.7,2.0502,3,333,-2.743,-1.389,9.155,0
933,35.506,-97.514,351.7,1.8702,3,333,-2.879,-1.363,8.661,1
934,35.506,-97.514,351.7,2.0101,3,332,-2.807,-1.357,8.844,1
935,35.506,-97.514,351.6,2.3002,3,330,-2.068,-0.519,9.694,0
936,35.506,-97.514,351.8,2.21,3,329,-2.908,-1.456,9.025,0
937,35.506,-97.514,351.5,1.7203,3,329,-2.824,-1.483,9.005,0
938,35.506,-97.514,351.5,1.8,3,328,-2.891,-1.464,9.067,1
939,35.506,-97.514,351.4,1.98,3,329,-2.719,-1.424,9.105,1
940,35.506,-97.514,351.4,2.01,3,328,-2.703,-1.408,8.741,1
941,35.506,-97.514,351.1,2.42,3,328,-2.648,-1.304,9.216,1
942,35.506,-97.514,351.1,2.5103,3,328,-2.537,-1.17,9.295,1
943,35.506,-97.514,351.2,2.72,3,327,-2.694,-1.487,9.105,1
945,35.506,-97.514,351.1,2.6601,3,328,-2.659,-1.502,8.818,1
945,35.506,-97.514,351.1,2.6601,3,328,-2.659,-1.502,8.818,1
946,35.506,-97.514,351,2.4503,3,328,-2.671,-1.364,8.844,1
947,35.506,-97.514,351.3,2.5703,3,328,-2.613,-1.387,8.985,0
948,35.506,-97.514,351.6,2.65,3,327,-2.614,-1.427,9.045,0
949,35.506,-97.514,351.7,2.8702,3,327,-2.53,-1.335,8.954,1
950,35.506,-97.514,351.8,2.92,3,327,-2.464,-1.302,9.114,1
951,35.506,-97.514,352.1,2.98,3,327,-2.062,-0.897,9.069,1
952,35.506,-97.514,352,2.83,3,327,-2.142,-1.068,9.424,1
953,35.506,-97.514,351.9,2.3005,3,328,-2.075,-0.856,8.942,0
954,35.506,-97.514,351.7,1.751,3,328,-1.958,-0.868,9.053,0
955,35.506,-97.514,351.5,1.1311,3,329,-2.433,-1.364,9.282,1
956,35.506,-97.514,351.5,1.1311,3,329,-2.824,-1.848,8.614,1
957,35.506,-97.514,351.9,0.74007,3,326,-2.794,-1.816,9.342,1
958,35.506,-97.514,352,1.28,3,326,-2.738,-1.67,8.653,1
959,35.506,-97.514,351.7,1.72,3,327,-2.567,-1.742,9.098,1
960,35.506,-97.514,351.6,2.06,3,327,-2.666,-1.64,8.92,1
961,35.506,-97.514,351.5,2.36,3,326,-2.952,-2.12,8.988,1
962,35.507,-97.514,351.5,3.1423,3,326,-3.077,-2.226,8.765,1
963,35.507,-97.514,351.8,3.9932,3,327,-2.655,-1.703,8.927,1
964,35.507,-97.514,352,4.4414,3,327,-2.757,-1.835,8.737,1
965,35.507,-97.514,352.3,5.0008,3,326,-2.805,-1.989,8.894,1
966,35.507,-97.514,352.5,5.3402,3,326,-2.389,-1.652,8.912,1
967,35.507,-97.514,352.7,5.46,3,326,-2.324,-1.475,9.153,1
968,35.507,-97.514,352.4,5.73,3,326,-2.237,-1.467,8.786,1
969,35.507,-97.514,352.4,5.75,4,326,-2.226,-1.569,9.33,1
970,35.507,-97.514,352,5.6301,3,326,-2.266,-1.464,9.182,1
971,35.507,-97.514,351.9,5.49,3,326,-2.125,-1.451,9.322,1
972,35.507,-97.514,351.9,5.26,3,324,-1.933,-0.998,9.305,1
973,35.507,-97.514,351.9,4.59,3,325,-2.108,-1.393,9.181,1
974,35.507,-97.514,352,3.92,3,325,-2.235,-1.512,9.374,0
975,35.507,-97.514,352.1,3.68,3,325,-2.241,-1.512,9.158,1
976,35.507,-97.514,351.9,3.5201,3,324,-2.219,-1.472,8.998,1
977,35.507,-97.514,352,3.2801,3,324,-2.61,-1.951,8.786,1
978,35.507,-97.514,352.2,3.18,3,324,-2.852,-2.287,8.839,1
979,35.507,-97.514,352.3,3.59,3,324,-2.22,-1.618,8.962,1
980,35.507,-97.514,352.3,4.1704,3,324,-2.266,-1.541,9.199,1
981,35.507,-97.514,352.3,4.15,3,325,-2.35,-1.681,8.877,1
982,35.507,-97.514,352.4,4.03,3,325,-2.177,-1.727,8.971,1
983,35.507,-97.514,352.5,4.0201,3,325,-2.273,-1.478,9.041,1
984,35.507,-97.514,352.5,3.9201,3,325,-1.848,-1.146,9.283,1
985,35.507,-97.514,352.3,3.71,3,325,-1.714,-0.918,9.466,1
986,35.507,-97.514,352.1,2.9703,3,326,-1.785,-0.868,9.476,1
987,35.507,-97.514,352,1.9704,3,327,-2.226,-1.356,8.675,1
988,35.507,-97.514,352,1.9704,3,327,-1.884,-1.03,9.4,1
989,35.507,-97.514,351.8,0.59304,3,327,-2.413,-1.635,9.115,1
990,35.507,-97.514,351.8,0.59304,3,327,-2.333,-1.611,9.065,1
991,35.507,-97.514,351.8,0.59304,3,327,-2.356,-1.57,9.07,1
992,35.507,-97.514,351.8,0.59304,3,327,-2.647,-1.853,8.906,1
993,35.507,-97.514,351.8,0.59304,3,327,-2.586,-1.932,9.063,1
994,35.507,-97.514,351.8,0.59304,3,327,-2.587,-1.93,9.144,1
995,35.507,-97.514,351.7,0.81394,3,326,-2.611,-1.912,9.265,1
996,35.508,-97.514,351.6,1.1942,3,326,-2.519,-1.918,9.082,1
997,35.508,-97.514,351.6,1.6008,3,326,-3.182,-2.609,8.714,1
998,35.508,-97.514,351.4,1.9701,3,326,-2.48,-1.675,8.976,1
999,35.508,-97.514,351.1,2.8204,3,326,-2.682,-1.905,8.842,1
1000,35.508,-97.514,351,3.0311,3,326,-2.849,-2.036,8.503,1
1001,35.508,-97.514,350.7,3.56,3,324,-2.84,-1.955,8.89,1
1002,35.508,-97.514,350.6,4.1702,3,324,-2.756,-1.966,8.815,1
1003,35.508,-97.514,351.1,4.7707,3,325,-2.323,-1.623,8.994,1
1005,35.508,-97.514,351.7,5.3102,3,325,-2.319,-1.552,9.334,0
1005,35.508,-97.514,351.7,5.3102,3,325,-2.319,-1.552,9.334,0
1006,35.508,-97.514,351.8,5.49,3,324,-2.145,-1.604,9.155,1
1007,35.508,-97.514,351.8,5.42,3,324,-1.859,-1.132,9.525,1
1008,35.508,-97.514,351.6,5.25,3,324,-1.572,-0.732,9.437,1
1009,35.508,-97.514,351.7,4.62,3,325,-1.933,-1.204,9.29,0
1010,35.508,-97.514,351.9,3.7703,3,324,-2.272,-1.545,8.262,1
1011,35.508,-97.514,352,3.2402,3,325,-2.56,-1.563,9.395,0
1012,35.508,-97.514,352.1,3.0603,3,324,-2.302,-1.464,9.054,1
1013,35.508,-97.514,352.3,2.87,3,324,-2.554,-1.902,9.004,1
1014,35.508,-97.514,352.4,2.8,3,325,-2.402,-1.555,9.08,1
1015,35.508,-97.514,352.4,3.09,3,325,-2.359,-1.535,9.289,1
1016,35.508,-97.514,352.5,3.0601,3,325,-1.792,-1.074,9.425,1
1017,35.508,-97.514,352.6,2.68,3,325,-1.793,-0.896,9.207,1
1018,35.508,-97.514,352.7,1.86,3,326,-1.562,-0.641,9.182,1
1019,35.508,-97.514,352.7,1.86,3,326,-2.191,-1.561,9.584,1
1020,35.508,-97.514,352.7,1.86,3,326,-2.299,-1.529,9.03,1
1021,35.508,-97.514,352.7,1.86,3,326,-2.341,-1.51,8.972,1
1022,35.508,-97.514,352.7,1.86,3,326,-2.254,-1.58,9.152,1
1023,35.508,-97.514,352.7,1.86,3,326,-2.274,-1.638,9.204,1
1024,35.508,-97.514,352.7,1.86,3,326,-2.638,-1.978,8.865,1
1025,35.508,-97.514,352.7,1.86,3,326,-2.594,-1.946,8.943,1
1026,35.508,-97.514,352.7,1.86,3,326,-2.493,-2.014,9.151,1
1027,35.508,-97.514,352.8,1.3124,3,327,-2.557,-1.895,8.703,1
1028,35.508,-97.514,352.7,1.9901,3,326,-2.779,-1.944,8.819,1
1029,35.508,-97.514,352.7,2.491,3,326,-2.289,-1.602,9.035,1
1030,35.508,-97.514,352.6,2.77,3,326,-2.346,-1.655,9.024,1
1031,35.508,-97.514,352.4,2.85,3,326,-2.141,-1.667,9.214,1
1032,35.508,-97.514,352.2,2.8802,3,327,-2.118,-1.569,9.152,1
1033,35.508,-97.514,351.9,2.8602,3,327,-2.091,-1.502,9.496,1
1034,35.508,-97.514,351.9,2.8401,3,327,-2.368,-1.432,8.974,0
1035,35.508,-97.514,351.9,2.77,3,326,-2.355,-1.56,8.963,1
1036,35.508,-97.515,351.8,2.8,3,326,-2.218,-1.586,9.196,1
1037,35.508,-97.515,351.7,2.7802,3,327,-2.233,-1.57,9.112,1
1038,35.508,-97.515,351.7,2.8201,3,326,-2.117,-1.615,9.077,1
1039,35.509,-97.515,351.6,2.86,3,327,-2.216,-1.57,9.128,1
1040,35.509,-97.515,351.6,2.91,3,328,-2.191,-1.536,9.028,1
1041,35.509,-97.515,351.8,2.93,3,328,-2.454,-1.86,8.804,0
1042,35.509,-97.515,352.2,2.9701,3,328,-2.926,-2.427,9.036,1
1043,35.509,-97.515,352.4,3.4501,3,328,-2.257,-1.497,9.059,0
1044,35.509,-97.515,352.5,3.7901,3,328,-2.297,-1.615,9.11,1
1045,35.509,-97.515,352.6,3.9708,3,328,-2.154,-1.479,8.694,1
1046,35.509,-97.515,352.7,4.11,3,328,-1.782,-1.407,9.362,0
1047,35.509,-97.515,352.6,4,3,329,-1.503,-0.493,9.419,0
1048,35.509,-97.515,352.4,3.2004,3,328,-2.179,-1.421,9.06,1
1049,35.509,-97.515,352.3,2.4007,3,329,-2.168,-1.557,9.069,1
