time,lat,lng,bearing,spd,acc,alt,accx,accy,accz,stable,
0,35.211,-97.439,93.2,2.0729,9,319,-2.421,0.271,8.695,0
1,35.211,-97.439,92.5,1.8339,3,320,-3.091,-0.136,9.189,0
2,35.211,-97.439,91.7,1.9916,3,319,-2.817,-1.085,9.127,0
3,35.211,-97.439,84.6,2.8914,3,320,-2.374,-2.203,9.602,0
4,35.211,-97.439,67.6,3.8043,3,320,-2.676,-1.847,8.705,0
5,35.211,-97.439,44.4,4.4037,3,320,-2.778,-1.752,9.202,1
6,35.211,-97.439,21.8,5.0601,3,320,-3.097,-1.693,9.387,0
7,35.211,-97.439,7.4,5.8609,3,320,-3.004,-0.089,7.861,0
8,35.211,-97.439,1.8,6.63,4,319,-2.724,-0.429,8.792,0
9,35.211,-97.439,1.3,6.5601,4,319,-2.285,0.288,8.694,0
10,35.211,-97.439,1.1,6.1602,4,319,-1.41,0.152,9.716,0
12,35.211,-97.439,0.9,4.9501,4,319,-0.94,0.492,9.966,0
12,35.211,-97.439,0.9,4.9501,4,319,-0.94,0.492,9.966,0
13,35.211,-97.439,0.9,3.1801,4,319,-2.585,-0.34,9.422,1
14,35.211,-97.439,0.8,2.4202,4,319,-2.273,0.091,9.093,0
15,35.211,-97.439,0.8,1.9007,3,319,-2.263,-0.048,9.263,0
16,35.211,-97.439,1.2,1.24,3,319,-2.572,0.047,9.2,0
17,35.211,-97.439,1.2,1.24,3,319,-2.74,0.095,8.961,0
18,35.211,-97.439,1.4,0.59,3,319,-2.518,0.182,9.623,1
19,35.211,-97.439,1.4,0.59,3,319,-2.815,0.057,9.057,1
20,35.211,-97.439,1.4,0.59,3,319,-2.809,0,9.184,1
21,35.211,-97.439,1.4,0.59,3,319,-2.861,0.028,9.353,1
22,35.211,-97.439,1.4,0.59,3,319,-2.804,0.014,9.087,1
23,35.211,-97.439,1.4,0.59,3,319,-2.836,0.028,9.112,1
24,35.211,-97.439,1.4,0.59,3,319,-2.84,0.024,9.31,1
25,35.211,-97.439,1.4,0.59,3,319,-3.63,-0.396,8.992,1
26,35.211,-97.439,1.3,1.6715,3,319,-4.688,-1.288,8.593,0
27,35.211,-97.439,356.5,3.7501,3,319,-3.774,-1.917,9.202,0
28,35.211,-97.439,341.6,4.803,3,319,-2.749,-2.692,8.02,0
29,35.211,-97.439,314.5,5.69,3,319,-2.371,-3.497,8.769,0
30,35.211,-97.439,287.8,6.6103,4,319,-3.691,-1.331,8.746,1
31,35.211,-97.439,276.1,7.7203,3,320,-4.053,-1.567,8.663,0
32,35.211,-97.439,272.1,9.6301,4,320,-4.174,-0.724,8.752,0
33,35.211,-97.439,271.8,11.13,5,320,-4.227,-0.482,8.489,0
34,35.211,-97.439,272.7,12.5,5,319,-4.058,-0.417,8.659,0
35,35.211,-97.44,271.6,13.74,5,319,-3.567,-0.736,8.711,0
36,35.211,-97.44,271,14.64,5,319,-3.416,-0.092,8.001,0
37,35.211,-97.44,271.6,15.12,4,320,-2.83,-0.032,9.609,0
38,35.211,-97.44,272.1,15.22,4,320,-2.691,-0.191,10.37,0
39,35.211,-97.44,272.3,15.13,4,320,-2.704,-0.154,9.952,0
40,35.211,-97.44,271.8,14.77,4,320,-2.456,-0.261,9.175,0
41,35.211,-97.441,271.1,14.36,4,320,-2.913,-0.578,9.069,0
42,35.211,-97.441,270.2,14.34,3,321,-2.836,-0.101,8.996,0
43,35.211,-97.441,269.6,14.38,4,321,-2.851,-0.273,8.728,0
44,35.211,-97.441,269.7,14.43,4,321,-2.935,-0.064,9.099,0
45,35.211,-97.441,269.7,14.55,4,321,-3.141,-0.19,9.093,0
46,35.211,-97.441,269.7,14.65,4,321,-3.146,-0.493,9.934,0
47,35.211,-97.441,269.4,14.79,4,321,-2.827,-0.31,9.016,0
48,35.211,-97.442,268.9,14.82,4,321,-3.145,-0.42,8.314,0
49,35.211,-97.442,268.6,14.95,4,321,-2.758,-0.457,9.4,0
50,35.211,-97.442,268.3,15.19,4,321,-2.669,-0.314,8.695,0
51,35.211,-97.442,267.9,15.02,4,321,-3.262,0.105,8.941,0
53,35.211,-97.442,268.3,15.06,4,321,-3.044,-0.043,8.798,0
53,35.211,-97.442,268.3,15.06,4,321,-3.044,-0.043,8.798,0
54,35.211,-97.442,269.1,15.2,5,321,-3.171,-0.36,9.88,0
55,35.211,-97.443,269.8,15.3,5,321,-2.733,-0.295,8.912,0
56,35.211,-97.443,270,15.09,6,321,-2.881,-0.32,8.828,0
57,35.211,-97.443,269.7,15.21,6,320,-2.534,0.177,8.445,0
58,35.211,-97.443,270.2,14.952,5,321,-3.018,-0.153,8.801,0
59,35.211,-97.443,270.5,15.08,5,321,-2.852,-0.299,9.579,0
60,35.211,-97.443,270.2,15.09,5,322,-2.63,0.599,8.839,0
61,35.211,-97.444,274.2,14.96,5,321,-2.089,-0.806,10.699,0
62,35.211,-97.444,274,14.62,4,321,-3.003,-0.71,8.875,1
63,35.211,-97.444,272.9,14.6,4,321,-2.859,-0.629,9.032,0
64,35.211,-97.444,272.6,14.76,4,321,-2.825,-0.309,8.919,0
65,35.211,-97.444,272.7,14.7,4,321,-2.92,-0.293,9.049,0
66,35.211,-97.445,272.7,14.59,4,321,-2.398,-0.671,9.85,0
67,35.211,-97.445,272.5,14.46,4,321,-2.506,-0.399,9.334,0
68,35.211,-97.445,272.2,14.25,4,322,-2.704,-0.305,9.292,0
69,35.211,-97.445,272.2,13.82,4,322,-2.548,-0.286,9.318,0
70,35.211,-97.445,272.2,13.44,3,322,-2.382,-0.53,9.526,0
71,35.211,-97.445,271.8,13.23,3,321,-2.617,-0.678,8.05,0
72,35.211,-97.446,271.6,13.29,3,321,-2.874,-0.685,9.597,0
73,35.211,-97.446,271.4,13.49,4,321,-2.956,-0.81,9.432,1
74,35.211,-97.446,271.1,13.63,4,322,-2.887,-0.618,9.179,0
75,35.211,-97.446,270.9,13.62,4,321,-2.17,-0.397,8.956,0
76,35.211,-97.446,270.7,13.5,4,322,-2.725,-0.458,9.052,0
77,35.211,-97.446,270.3,13.6,4,321,-2.575,-0.328,9.382,0
78,35.211,-97.446,269.8,13.36,4,322,-2.797,-0.346,8.764,0
79,35.211,-97.447,269.7,13.34,3,321,-3.014,-0.615,8.836,0
80,35.211,-97.447,269.6,13.54,4,321,-3.203,-0.71,8.987,0
81,35.211,-97.447,269.6,14.04,4,321,-3.453,-0.836,8.803,0
82,35.211,-97.447,269.6,14.61,4,320,-3.411,-0.505,7.944,0
83,35.211,-97.447,269.6,15.14,4,321,-0.73,0.784,10.717,0
84,35.211,-97.447,269.6,12.79,5,320,-0.516,0.981,9.755,0
85,35.211,-97.447,269.4,10.17,4,320,-0.582,0.787,9.934,0
86,35.211,-97.448,269.5,7.571,4,318,-0.392,1.017,9.948,0
87,35.211,-97.448,269.6,4.7715,4,318,-0.856,0.864,9.597,0
88,35.211,-97.448,269.4,2.4659,4,317,-1.48,0.446,10.324,0
89,35.211,-97.448,269.2,0.59481,4,316,-2.959,-0.539,9.255,1
90,35.211,-97.448,269.2,0.59481,4,316,-2.832,-0.409,9.228,1
91,35.211,-97.448,269.2,0.59481,4,316,-2.866,-0.425,9.235,1
92,35.211,-97.448,269.2,0.59481,4,316,-2.842,-0.411,9.256,1
93,35.211,-97.448,269.2,0.59481,4,316,-2.818,-0.424,9.28,1
94,35.211,-97.448,268.7,0.88566,10,314,-2.823,-0.419,9.131,1
95,35.211,-97.448,268.7,0.88566,10,314,-2.82,-0.428,9.166,1
96,35.211,-97.448,268.7,0.88566,10,314,-2.845,-0.413,9.122,1
97,35.211,-97.448,268.7,0.88566,10,314,-2.824,-0.425,9.252,1
99,35.211,-97.448,268.7,0.88566,10,314,-2.849,-0.431,9.248,1
99,35.211,-97.448,268.7,0.88566,10,314,-2.849,-0.431,9.248,1
100,35.211,-97.448,268.7,0.88566,10,314,-2.885,-0.42,9.174,1
101,35.211,-97.448,268.7,0.88566,10,314,-2.854,-0.424,9.112,1
102,35.211,-97.448,268.7,0.88566,10,314,-2.836,-0.422,9.098,1
103,35.211,-97.448,268.7,0.88566,10,314,-2.855,-0.414,9.16,1
104,35.211,-97.448,268.7,0.88566,10,314,-2.844,-0.424,9.222,1
105,35.211,-97.448,268.7,0.88566,10,314,-2.872,-0.416,9.155,1
106,35.211,-97.448,268.7,0.88566,10,314,-5.319,-1.958,8.027,0
107,35.211,-97.448,267.8,2.8609,10,316,-5.162,-2.092,8.983,0
108,35.211,-97.448,267.7,2.9904,10,316,-4.723,-1.893,8.551,0
109,35.211,-97.448,267.5,8.2209,9,316,-4.784,-1.589,7.644,0
110,35.211,-97.448,267.2,10.141,9,317,-3.998,-1.216,9.06,0
111,35.211,-97.448,268,11.561,9,315,-4.037,-1.328,9.005,0
112,35.211,-97.448,267.6,12.761,9,316,-3.823,-1.186,8.56,0
113,35.211,-97.448,267.6,13.891,9,316,-3.6,-0.967,8.55,0
114,35.211,-97.448,267.9,14.89,9,316,-3.275,-0.671,9.274,0
115,35.211,-97.449,268.6,15.281,9,316,-3.16,-0.622,9.396,0
116,35.211,-97.449,269.2,15.591,9,316,-4.453,0.038,10.069,0
117,35.211,-97.449,269.3,15.681,9,316,-3.414,-0.209,8.825,0
118,35.211,-97.449,269.6,15.98,9,315,-2.884,-0.569,8.816,1
119,35.211,-97.449,269.8,16.24,9,316,-2.959,-0.623,9.698,0
120,35.211,-97.45,269.8,16.54,9,316,-3.057,-0.136,8.748,0
121,35.211,-97.45,269.7,16.591,9,317,-2.916,-0.431,9.029,0
122,35.211,-97.45,269.6,16.621,9,317,-2.873,-0.205,8.247,0
123,35.211,-97.45,269.6,16.681,9,318,-3.011,-0.327,8.802,0
124,35.211,-97.45,269.7,16.57,9,317,-3.063,-0.426,9.346,0
125,35.211,-97.45,269.9,16.71,9,317,-2.881,-0.463,9.235,0
126,35.211,-97.451,270.1,16.79,9,317,-2.523,-0.617,9.581,0
127,35.211,-97.451,269.9,16.56,9,316,-2.25,-1.155,10.038,0
128,35.211,-97.451,269.8,16.2,9,316,-2.881,-0.873,9.555,0
129,35.211,-97.451,269.6,16.36,9,316,-2.82,-0.573,9.673,0
130,35.211,-97.451,269.3,16.46,9,317,-2.807,-0.43,9.395,0
131,35.211,-97.452,269.5,16.36,9,317,-1.936,-0.822,10.214,0
132,35.211,-97.452,270.5,16.18,9,318,-2.638,-0.863,9.17,0
133,35.211,-97.452,270.6,16.26,9,318,-2.711,-0.499,9.187,0
134,35.211,-97.452,270.5,16.22,9,318,-2.464,-0.443,9.417,1
135,35.211,-97.452,270.4,16.041,9,318,-2.129,0.509,7.888,0
136,35.211,-97.452,270.7,16.052,9,318,-2.616,-0.625,8.924,0
137,35.211,-97.453,270.9,16.221,9,319,-2.572,-0.817,9.45,1
138,35.211,-97.453,270.7,16.392,9,318,-2.559,-0.415,9.389,0
139,35.211,-97.453,270.4,16.301,10,319,-1.94,-0.474,8.505,1
140,35.211,-97.453,270.3,16.082,10,319,-2.781,-1.076,10.758,0
141,35.211,-97.453,270.4,16.096,10,318,-2.605,-0.61,9.141,0
142,35.211,-97.453,270.4,16.324,10,318,-2.865,-0.667,9.416,0
143,35.211,-97.454,270.1,16.471,10,318,-2.29,-0.29,7.959,0
145,35.211,-97.454,270,16.362,10,317,-2.886,-0.711,9.716,0
145,35.211,-97.454,270,16.362,10,317,-2.886,-0.711,9.716,0
146,35.211,-97.454,270.2,16.532,10,317,-2.722,-0.863,9.139,0
147,35.211,-97.454,270.3,16.751,9,317,-2.603,-0.745,9.538,0
148,35.211,-97.454,270.1,16.751,9,317,-2.468,-0.681,8.377,0
149,35.211,-97.455,269.9,16.85,9,316,-1.932,-0.909,8.151,0
150,35.211,-97.455,269.8,16.801,9,316,-2.771,-0.637,9.124,0
151,35.211,-97.455,269.6,16.761,9,316,-2.449,-0.396,9.118,0
152,35.211,-97.455,269.6,16.394,9,317,-2.971,-0.62,9.144,0
153,35.211,-97.455,269.8,15.858,9,318,-2.679,-0.439,9.246,0
154,35.211,-97.456,270.2,14.95,9,318,-2.808,-0.53,8.856,0
155,35.211,-97.456,270.2,14.518,9,319,-2.811,-0.832,9.463,0
156,35.211,-97.456,270,14.209,9,320,-2.557,-0.844,9.213,0
157,35.211,-97.456,269.8,13.723,9,320,-2.875,-0.657,9.086,0
158,35.211,-97.456,269.8,13.492,9,321,-2.696,-0.66,8.844,0
159,35.211,-97.456,269.7,13.16,9,320,-2.652,-0.462,9.092,0
160,35.211,-97.457,269.6,12.78,10,320,-2.923,-0.623,9.053,0
161,35.211,-97.457,269.8,12.83,10,319,-2.439,-0.479,8.84,0
162,35.211,-97.457,269.8,12.31,10,318,-1.549,0.324,9.639,0
163,35.211,-97.457,270,11.13,10,318,-2.532,-0.195,9.347,0
164,35.211,-97.457,269.9,10.8,10,319,-2.546,-0.169,9.029,0
165,35.211,-97.457,270.3,10.31,9,319,-2.969,-0.483,9.129,1
166,35.211,-97.457,270.7,10.25,9,318,-2.895,-0.824,9.065,0
167,35.211,-97.457,270.6,10.4,9,319,-2.631,-0.686,8.692,1
168,35.211,-97.458,270.3,10.34,9,319,-2.939,-0.681,9.413,0
169,35.211,-97.458,270,10.461,9,320,-2.944,-0.835,9.394,1
170,35.211,-97.458,269.8,10.68,9,320,-2.923,-0.854,8.951,1
171,35.211,-97.458,269.3,10.84,9,320,-2.745,-0.386,9.194,1
172,35.211,-97.458,268,10.47,9,320,-1.57,0.488,9.205,0
173,35.211,-97.458,268.9,9.8401,9,320,-2.238,-0.553,9.243,1
174,35.211,-97.458,269.5,9.3302,9,320,-3.16,-1.203,8.642,1
175,35.211,-97.458,268.3,9.8502,9,320,-3.176,-0.771,9.349,0
176,35.211,-97.458,268.4,10.35,9,319,-2.534,-0.196,9.109,0
177,35.211,-97.459,269.1,9.9003,9,319,-2.474,0.053,9.317,0
178,35.211,-97.459,270.3,9.4901,10,320,-2.324,0.047,9.575,0
179,35.211,-97.459,271.7,8.6003,10,320,-1.471,-1.591,8.986,0
180,35.211,-97.459,267.3,7.2516,10,319,-0.937,-2.673,9.721,0
181,35.211,-97.459,248.6,6.6073,10,320,-0.816,-3.175,9.089,0
182,35.211,-97.459,225.8,6.1929,4,319,-0.962,-3.997,9.155,0
183,35.211,-97.459,199.5,6.4949,4,318,-3.51,-1.823,8.973,1
184,35.211,-97.459,182.4,7.3869,4,318,-4.049,-1.108,9.003,0
185,35.211,-97.459,179.8,8.7055,4,317,-3.495,-1.216,8.484,0
186,35.211,-97.459,178.9,9.9646,4,317,-3.469,-1.052,8.125,0
187,35.211,-97.459,177.9,11.549,5,316,-4.002,-0.708,9.093,0
188,35.211,-97.459,177.6,12.859,5,316,-3.874,-0.518,8.713,0
189,35.211,-97.459,180.1,14.068,6,316,-3.563,-0.886,8.634,0
190,35.21,-97.459,181.4,15.222,5,315,-3.446,-1.246,9.124,0
192,35.21,-97.459,181.9,16.187,5,314,-3.176,-1.057,8.808,0
192,35.21,-97.459,181.9,16.187,5,314,-3.176,-1.057,8.808,0
193,35.21,-97.459,181.9,17.226,4,314,-2.581,-0.439,9.747,0
194,35.21,-97.459,181.1,17.084,4,314,-2.734,-0.252,8.985,0
195,35.21,-97.459,180.7,16.543,4,314,-2.628,-0.603,9.645,0
196,35.21,-97.459,180.4,16.002,4,315,-2.296,-0.456,8.288,0
197,35.21,-97.459,179.3,15.502,4,314,-2.794,-0.704,9.862,0
198,35.209,-97.459,179.4,15.242,4,314,-2.94,-1.043,9.009,0
199,35.209,-97.459,179.6,15.311,4,315,-3.067,-0.601,8.203,0
200,35.209,-97.459,179.8,15.77,4,316,-2.937,-0.696,9.104,1
201,35.209,-97.459,180.2,16.06,4,316,-2.876,-0.341,8.486,0
202,35.209,-97.459,180.6,15.86,4,316,-2.62,-0.386,9.711,0
203,35.208,-97.459,180.4,15.71,4,317,-3.033,-0.585,9.305,0
204,35.208,-97.459,180.4,15.84,4,317,-2.739,-0.785,9.042,0
205,35.208,-97.459,180.3,15.95,4,318,-2.779,-0.748,8.53,0
206,35.208,-97.459,180.3,16.02,4,317,-2.64,-0.656,9.407,1
207,35.208,-97.459,180,15.79,5,317,-2.647,-0.664,8.848,0
208,35.208,-97.459,179.8,15.66,5,317,-2.742,-0.662,9.167,0
209,35.208,-97.459,180.1,15.73,6,317,-2.821,-0.323,8.999,0
210,35.207,-97.459,180.1,15.5,6,317,-3.177,-0.621,9.221,0
211,35.207,-97.459,180.2,15.56,6,317,-3.081,-0.442,9.108,0
212,35.207,-97.459,180.3,15.85,5,317,-2.799,-0.665,8.548,0
213,35.207,-97.459,180.2,16.02,6,317,-3.067,-0.677,9.254,0
214,35.207,-97.459,180.1,16.19,6,317,-2.839,-0.463,8.899,0
215,35.207,-97.459,180.1,16.26,6,317,-2.306,-0.499,8.909,0
216,35.207,-97.459,180,15.83,6,318,-3.095,-0.759,8.816,0
217,35.206,-97.459,179.7,15.66,6,317,-2.807,-0.555,9.732,0
218,35.206,-97.459,179.7,15.55,6,317,-2.594,-0.21,9.256,0
219,35.206,-97.459,179.9,15.251,5,317,-3.131,-0.472,8.972,0
220,35.206,-97.459,180.1,15.111,5,317,-2.886,-0.403,9.932,0
221,35.206,-97.459,180.2,14.842,5,316,-2.294,-0.775,9.65,0
222,35.206,-97.459,179.6,14.639,5,316,-3.124,-0.445,8.341,0
223,35.206,-97.459,178.9,14.792,5,314,-2.867,-0.122,9.557,0
224,35.206,-97.459,178.6,14.746,6,313,-2.74,-0.259,9.119,0
225,35.205,-97.459,179.1,14.728,7,313,-2.634,-0.267,9.716,0
226,35.205,-97.459,179.7,14.645,7,312,-2.502,0.019,9.168,0
227,35.205,-97.459,180.2,14.615,7,312,-2.647,0.323,8.868,0
228,35.205,-97.459,181.4,14.589,7,312,-3.129,-0.049,9.775,0
229,35.205,-97.459,183.5,14.562,7,311,-2.643,-0.761,9.305,0
230,35.205,-97.459,184.1,14.729,6,311,-2.173,-0.763,9.475,0
231,35.205,-97.459,183.3,14.454,5,312,-2.117,-0.931,9.332,0
232,35.204,-97.459,181.3,14.113,5,313,-0.959,0.635,9.773,0
233,35.204,-97.459,180.4,12.321,5,313,-0.496,0.54,9.769,0
234,35.204,-97.459,180.4,10.04,5,313,-1.666,1.186,9.563,0
235,35.204,-97.459,181.9,8.2412,5,312,-4.723,3.604,9.708,0
236,35.204,-97.459,197.8,7.89,4,313,-5.79,3.27,8.965,0
237,35.204,-97.459,232.4,7.7602,4,311,-5.502,0.116,8.622,0
238,35.204,-97.459,262.4,9.2,4,311,-4.166,-1.923,8.43,0
240,35.204,-97.459,272.9,10.891,4,310,-3.829,-1.955,8.666,0
240,35.204,-97.459,272.9,10.891,4,310,-3.829,-1.955,8.666,0
241,35.204,-97.459,272.8,12.04,4,307,-3.671,-1.974,8.87,0
242,35.204,-97.46,271.9,13.447,4,309,-3.613,-1.367,9.367,0
243,35.204,-97.46,271.5,14.594,4,308,-3.361,-1.088,10.059,0
244,35.204,-97.46,271.6,14.722,4,309,-3.246,-0.84,8.715,0
245,35.204,-97.46,271.8,14.501,9,309,-2.952,-0.933,8.859,1
246,35.204,-97.46,271.9,15.581,9,306,-3.04,-1.005,9.111,1
247,35.204,-97.46,272.2,15.951,9,306,-3.033,-1.439,9.233,1
248,35.204,-97.461,272,16.432,9,305,-2.905,-1.212,8.752,0
249,35.204,-97.461,271.6,17.257,10,305,-2.856,-1.052,8.728,0
250,35.204,-97.461,271.5,17.841,10,305,-2.913,-1.032,9.408,0
251,35.204,-97.461,271.6,18.119,9,304,-2.687,-1.115,8.778,0
252,35.204,-97.462,270.9,18.815,9,305,-2.874,-1.198,9.119,0
253,35.204,-97.462,270.7,19.272,9,305,-2.881,-0.992,9.357,0
254,35.204,-97.462,270.6,19.641,9,305,-2.77,-1.205,8.966,0
255,35.204,-97.462,270.5,19.63,9,305,-2.266,-0.802,9.315,1
256,35.204,-97.462,270.1,19.35,9,305,-2.394,-0.683,9.199,0
257,35.204,-97.463,270,19.071,9,305,-2.337,-0.321,9.17,0
258,35.204,-97.463,270,18.761,9,305,-2.187,-0.813,9.339,0
259,35.204,-97.463,269.9,18.63,9,305,-2.732,-0.897,9.259,1
260,35.204,-97.463,269.6,18.7,9,306,-2.554,-0.855,9.062,0
261,35.204,-97.463,269.8,18.61,9,306,-2.113,-0.841,9.252,0
262,35.204,-97.464,270,18.3,9,306,-2.308,-0.757,9.572,0
263,35.204,-97.464,270.1,17.79,9,306,-2.308,-0.793,9.454,0
264,35.204,-97.464,270.3,17.37,10,306,-2.45,-0.805,9.661,1
265,35.204,-97.464,270.2,16.96,10,306,-2.436,-0.48,8.99,0
266,35.204,-97.464,270.2,16.63,10,307,-2.55,-0.837,8.863,0
267,35.204,-97.465,270.2,16.59,10,306,-2.23,-0.707,8.999,0
268,35.204,-97.465,270,16.23,10,307,-2.306,-0.729,9.468,1
269,35.204,-97.465,269.8,15.92,10,308,-2.379,-0.762,9.299,0
270,35.204,-97.465,269.6,15.57,10,307,-2.413,-0.74,9.401,0
271,35.204,-97.465,269.6,15.17,9,310,-2.364,-0.605,9.27,0
272,35.204,-97.465,269.5,14.82,9,310,-2.358,-0.701,9.014,0
273,35.204,-97.466,269.5,14.42,9,310,-2.392,-0.625,8.792,0
274,35.204,-97.466,269.6,14.01,9,310,-2.556,-0.801,9.098,0
275,35.204,-97.466,269.6,13.57,9,310,-2.248,-0.563,8.975,0
276,35.204,-97.466,269.7,13.14,9,309,-2.274,-0.538,8.996,0
277,35.204,-97.466,269.7,12.72,9,310,-2.442,-0.484,9.326,0
278,35.204,-97.466,269.9,12.22,9,310,-2.206,-0.823,9.173,0
279,35.204,-97.467,270,11.84,9,310,-1.979,-0.433,9.674,0
280,35.204,-97.467,270.1,11.21,9,310,-1.53,-0.064,9.704,0
281,35.204,-97.467,270.3,9.9502,10,312,-1.765,-0.089,9.364,1
282,35.204,-97.467,270.3,8.53,10,311,-1.617,-0.179,9.586,1
283,35.204,-97.467,270.3,7.1,9,311,-1.529,-0.063,9.409,1
284,35.204,-97.467,270.2,5.6401,9,311,-2.197,-0.46,9.121,1
285,35.204,-97.467,270,4.6301,9,312,-2.169,-0.488,9.424,1
286,35.204,-97.467,269.9,3.98,9,312,-2.256,-0.488,9.372,1
287,35.204,-97.467,269.9,3.35,9,312,-2.309,-0.662,9.275,1
288,35.204,-97.467,269.9,2.93,9,312,-2.371,-0.594,9.202,1
289,35.204,-97.467,269.9,2.4902,9,312,-2.431,-0.661,9.171,1
290,35.204,-97.467,269.9,2.1602,10,312,-1.915,-0.315,9.738,1
291,35.204,-97.467,270,1.3801,10,312,-2.006,-0.423,9.516,1
292,35.204,-97.467,270,1.3801,10,312,-2.567,-0.74,8.9,1
293,35.204,-97.467,0,0.01,10,312,-2.7,-0.873,9.254,1
295,35.204,-97.467,0,0.01,10,312,-2.693,-0.854,9.146,1
295,35.204,-97.467,0,0.01,10,312,-2.693,-0.854,9.146,1
296,35.204,-97.467,0,0.01,10,312,-2.705,-0.848,8.975,1
297,35.204,-97.467,0,0.01,10,312,-2.675,-0.899,9.295,1
298,35.204,-97.467,0,0.01,10,312,-2.702,-0.873,9.053,1
299,35.204,-97.467,0,0.01,10,312,-2.694,-0.888,9.248,1
300,35.204,-97.467,0,0.01,10,312,-2.685,-0.872,9.091,1
301,35.204,-97.467,0,0.01,10,312,-2.675,-0.875,9.032,1
302,35.204,-97.467,0,0.01,10,312,-2.679,-0.881,9,1
303,35.204,-97.467,0,0.01,10,312,-2.695,-0.866,8.974,1
304,35.204,-97.467,0,0.01,10,312,-2.656,-0.889,9.123,1
305,35.204,-97.467,0,0.01,10,312,-2.674,-0.884,9.071,1
306,35.204,-97.467,0,0.01,10,312,-2.692,-0.864,9.054,1
307,35.204,-97.467,0,0.01,10,312,-2.656,-0.881,8.99,1
308,35.204,-97.467,0,0.01,10,312,-2.697,-0.879,9.227,1
309,35.204,-97.467,0,0.01,10,312,-2.673,-0.884,9.142,1
310,35.204,-97.467,0,0.01,10,312,-2.688,-0.884,9.172,1
311,35.204,-97.467,0,0.01,10,312,-2.673,-0.905,9.261,1
312,35.204,-97.467,0,0.01,10,312,-2.685,-0.882,9.119,1
313,35.204,-97.467,0,0.01,10,312,-2.671,-0.896,9.256,1
314,35.204,-97.467,0,0.01,10,312,-2.706,-0.869,9.005,1
315,35.204,-97.467,0,0.04,10,313,-2.668,-0.872,8.987,1
316,35.204,-97.467,0,0.04,10,313,-2.693,-0.88,9.224,1
317,35.204,-97.467,0,0.04,10,313,-2.684,-0.864,8.959,1
318,35.204,-97.467,0,0.04,10,313,-2.706,-0.865,9.099,1
319,35.204,-97.467,0,0.04,10,313,-2.654,-0.883,8.985,1
320,35.204,-97.467,0,0.04,10,313,-3.304,-1.367,8.908,1
321,35.204,-97.467,270.3,1.4109,10,314,-3.001,-1.102,8.965,1
322,35.204,-97.467,270.2,1.81,10,315,-2.428,-0.694,9.403,1
323,35.204,-97.467,270.3,1.4401,10,315,-2.164,-0.503,9.408,1
324,35.204,-97.467,270.5,0.76007,10,315,-2.098,-0.369,9.277,1
325,35.204,-97.467,270.5,0.76007,10,315,-2.705,-0.906,9.043,1
326,35.204,-97.467,270.8,0.27295,10,315,-2.983,-1.2,9.025,1
327,35.204,-97.467,270.8,0.27295,10,315,-4.385,-2.159,8.356,1
328,35.204,-97.467,271,2.32,10,315,-4.01,-1.884,8.503,1
329,35.204,-97.467,271.4,3.8,10,315,-3.801,-1.793,8.682,1
330,35.204,-97.467,271.8,5,10,315,-3.318,-1.572,8.837,1
331,35.204,-97.467,272,6.1,10,315,-3.573,-1.554,8.714,1
332,35.204,-97.468,272.3,7.23,10,314,-3.483,-1.152,8.535,0
333,35.204,-97.468,272.6,8.5102,10,315,-3.622,-1.362,8.584,0
334,35.204,-97.468,271.6,9.83,10,315,-3.523,-1.453,8.422,0
335,35.204,-97.468,270.8,10.77,10,316,-3.315,-1.454,9.132,0
336,35.204,-97.468,270.1,11.82,9,316,-3.307,-1.396,8.713,1
337,35.204,-97.468,270.1,12.73,9,317,-2.989,-1.31,8.914,0
338,35.204,-97.468,270,13.38,9,317,-3.011,-1.33,8.858,0
339,35.204,-97.468,269.8,13.98,9,317,-2.585,-1.058,9.088,1
340,35.204,-97.469,269.6,14.29,9,317,-2.078,-0.11,9.087,1
341,35.204,-97.469,270.2,13.781,9,317,-2.297,-0.69,9.184,0
342,35.204,-97.469,270.6,13.361,9,316,-1.983,-0.44,9.021,0
343,35.204,-97.469,270.6,12.98,9,316,-1.683,-0.328,9.591,1
344,35.204,-97.469,270.7,12.091,9,316,-2.235,-0.571,9.389,0
345,35.204,-97.469,270.7,11.07,9,316,-1.999,-0.614,8.366,0
346,35.204,-97.469,270.6,10.601,9,315,-2.838,-1.177,9.617,0
347,35.204,-97.47,270.4,10.341,9,316,-2.747,-1.139,9.055,1
348,35.204,-97.47,270.4,10.57,9,316,-2.96,-1.273,9.099,1
349,35.204,-97.47,270.5,10.92,9,316,-2.801,-1.274,8.767,0
350,35.204,-97.47,270.5,11.43,9,316,-3.319,-1.213,8.184,0
351,35.204,-97.47,270.3,12.13,9,316,-3.341,-1.458,8.871,1
352,35.204,-97.47,270.3,13,9,316,-3.181,-1.317,8.541,1
353,35.204,-97.47,270.6,13.69,9,317,-3.15,-1.423,8.866,1
355,35.204,-97.47,270.5,14.4,9,317,-2.8,-0.861,8.929,1
355,35.204,-97.47,270.5,14.4,9,317,-2.8,-0.861,8.929,1
356,35.204,-97.471,270.5,15.03,9,316,-2.125,-0.84,9.928,0
357,35.204,-97.471,270.4,14.861,9,315,-2.264,-0.792,9.447,1
358,35.204,-97.471,270.1,14.51,9,315,-2.39,-0.759,9.539,1
359,35.204,-97.471,269.8,14.18,9,315,-2.328,-0.76,9.319,1
360,35.204,-97.471,269.8,13.84,9,315,-2.734,-1.079,9.117,0
361,35.204,-97.471,269.8,13.6,9,315,-2.729,-1.04,9.153,1
362,35.204,-97.472,269.9,13.55,9,316,-2.81,-0.891,9.042,1
363,35.204,-97.472,270.1,13.69,9,316,-2.773,-1.068,9.09,1
364,35.204,-97.472,270.2,13.68,9,316,-2.823,-0.945,9.16,1
365,35.204,-97.472,270.3,13.75,9,317,-2.59,-0.922,9.116,1
366,35.204,-97.472,270.2,13.66,9,317,-2.674,-0.993,9.245,1
367,35.204,-97.472,270.1,13.72,9,317,-2.693,-1.044,9.03,1
368,35.204,-97.473,269.9,13.84,9,317,-2.669,-1.03,8.709,0
369,35.204,-97.473,269.8,13.98,9,317,-2.618,-1.118,8.738,1
370,35.204,-97.473,269.6,14.11,9,317,-2.474,-0.904,9.533,1
371,35.204,-97.473,269.7,13.9,9,317,-2.227,-0.537,8.856,0
372,35.204,-97.473,269.8,13.59,9,317,-2.364,-0.66,9.452,0
373,35.204,-97.473,269.8,13.21,9,317,-2.319,-0.679,9.359,1
374,35.204,-97.474,269.9,12.84,9,317,-2.382,-0.724,9.234,1
375,35.204,-97.474,269.9,12.61,9,317,-3.038,-1.091,9.309,1
376,35.204,-97.474,270.1,12.7,9,317,-2.746,-1.282,9.421,0
377,35.204,-97.474,270.1,12.9,9,317,-2.988,-1.037,8.976,0
378,35.204,-97.474,270,13.14,9,317,-2.658,-0.982,9.103,1
379,35.204,-97.474,269.9,13.09,9,317,-2.389,-0.682,9.496,1
380,35.204,-97.474,270,12.81,9,317,-2.5,-0.754,9.175,1
381,35.204,-97.475,270,12.63,9,317,-2.807,-1.093,8.839,0
382,35.204,-97.475,270,12.64,9,317,-1.833,-0.354,9.355,1
383,35.204,-97.475,270,11.87,9,317,-1.97,-0.444,9.427,0
384,35.204,-97.475,270.1,11.011,9,317,-2.087,-0.393,9.489,0
385,35.204,-97.475,270.1,10.18,9,317,-1.773,-0.228,9.435,0
386,35.204,-97.475,270.3,9.1509,9,316,-1.668,-0.355,9.23,0
387,35.204,-97.475,270.4,8.0514,9,317,-2.05,-0.422,9.426,0
388,35.204,-97.475,270.1,6.9918,9,317,-2.374,-0.953,9.29,0
389,35.204,-97.475,270,6.7309,9,316,-2.645,-0.806,9.27,0
390,35.204,-97.475,270,6.6701,9,316,-2.872,-1.239,9.015,1
391,35.204,-97.476,270.2,7.0803,9,316,-3.526,-1.314,8.531,1
392,35.204,-97.476,270.7,7.7806,9,316,-3.19,-0.995,8.185,0
393,35.204,-97.476,271,8.7113,9,315,-3.216,-1.402,8.769,1
394,35.204,-97.476,271.1,9.4714,9,315,-3.184,-1.457,9.122,1
395,35.204,-97.476,272.4,10.43,9,316,-2.212,-0.437,8.677,0
396,35.204,-97.476,272.5,9.5,9,316,-2.723,-0.687,8.767,0
397,35.204,-97.476,272.9,9.3306,9,315,-2.521,-1.007,9.337,0
398,35.204,-97.476,273,9.5,9,316,-2.607,-1.277,9.172,0
399,35.204,-97.476,272.7,9.61,9,316,-2.982,-1.415,9.36,0
400,35.204,-97.476,271.8,9.79,9,316,-3.005,-1.209,9.557,0
401,35.204,-97.477,271.4,9.98,9,316,-2.875,-1.187,8.625,0
402,35.204,-97.477,271,10.37,9,316,-3.186,-0.591,8.639,0
403,35.204,-97.477,270.9,10.41,9,317,-3.431,-1.065,9.187,0
404,35.204,-97.477,270.9,10.71,9,316,-3.23,-1.471,9.136,0
405,35.204,-97.477,270.8,11.27,9,317,-3.196,-1.588,9.656,0
406,35.204,-97.477,270.7,11.95,9,317,-3.288,-1.521,9.641,0
407,35.204,-97.477,270.6,12.541,9,317,-2.813,-1.177,9.173,0
408,35.204,-97.477,270.6,12.621,9,317,-2.936,-1.087,8.899,1
409,35.204,-97.478,270.6,12.791,9,316,-2.776,-1.168,8.719,0
410,35.204,-97.478,270.7,13.041,10,317,-2.994,-1.176,9.129,0
411,35.204,-97.478,270.8,13.361,9,317,-2.712,-1.338,9.091,0
412,35.204,-97.478,270.5,13.681,9,318,-2.744,-1.113,9.133,0
413,35.204,-97.478,270.1,13.651,9,318,-2.459,-0.752,9.153,0
415,35.204,-97.478,269.8,13.451,9,318,-2.536,-0.278,9.373,0
415,35.204,-97.478,269.8,13.451,9,318,-2.536,-0.278,9.373,0
416,35.204,-97.478,270.2,12.981,9,319,-3.135,0.18,8.971,1
417,35.204,-97.479,273.3,12.55,9,318,-3.26,0.669,9.142,0
418,35.204,-97.479,279.7,12.45,9,318,-3.507,1.07,8.907,0
419,35.204,-97.479,288.4,12.5,9,318,-3.999,1.56,9.218,0
420,35.204,-97.479,300.5,12.6,9,318,-3.734,1.159,9.265,0
421,35.204,-97.479,313,12.52,10,318,-4.057,0.829,9.218,0
422,35.204,-97.479,324.8,12.791,5,318,-3.467,-0.366,9.13,1
423,35.205,-97.479,339.6,12.973,5,318,-3.512,-0.646,8.781,1
424,35.205,-97.479,342.9,13.307,10,318,-3.409,-0.655,9.016,1
425,35.205,-97.479,343.5,13.933,9,317,-2.595,-1.651,8.504,1
426,35.205,-97.479,341.5,13.792,8,317,-2.778,-1.183,8.915,0
427,35.205,-97.479,341.6,13.793,3,316,-2.892,-1.151,9.287,0
428,35.205,-97.479,341,14.073,4,316,-2.729,-1.504,9.062,1
429,35.205,-97.48,340.3,14.402,4,316,-2.901,-1.295,9.013,0
430,35.205,-97.48,340.3,14.991,4,315,-3.06,-1.313,9.2,1
431,35.205,-97.48,340.3,14.991,4,315,-3.102,-1.293,9.007,0
432,35.206,-97.48,340.4,16.384,5,314,-3.019,-1.254,9.362,0
433,35.206,-97.48,340.4,17.252,5,313,-3.361,-1.409,8.743,0
434,35.206,-97.48,340.4,18.45,5,313,-3.659,-1.282,8.304,0
435,35.206,-97.48,340.2,19.65,6,314,-4.035,-1.701,9.17,0
436,35.206,-97.48,340.1,20.622,5,314,-3.849,-1.684,8.835,0
437,35.206,-97.48,339.7,21.744,4,315,-3.396,-2.146,9.443,0
438,35.207,-97.48,338.8,22.664,4,316,-3.175,-1.165,7.987,0
439,35.207,-97.48,338.3,23.417,4,317,-3.207,-0.773,9.177,0
440,35.207,-97.48,337.8,23.897,4,317,-2.93,-1.198,9.624,0
441,35.207,-97.481,335.9,25.014,4,318,-3.112,-0.606,9.092,0
442,35.208,-97.481,335.4,25.595,4,318,-3.113,-0.773,8.91,0
443,35.208,-97.481,334.9,25.986,3,319,-2.949,-1.008,8.355,0
444,35.208,-97.481,333.8,26.268,3,320,-2.755,-1.605,8.862,0
445,35.208,-97.481,331.8,26.808,3,321,-3.015,-1.442,9.084,0
446,35.208,-97.481,330.5,27.497,3,321,-3.328,-0.801,8.762,1
447,35.209,-97.481,330.1,28.356,3,321,-3.478,-0.673,8.67,0
448,35.209,-97.481,330.8,29.065,3,322,-3.94,-1.144,8.914,0
449,35.209,-97.482,331.5,30.134,3,322,-3.651,-1.402,8.742,0
450,35.209,-97.482,331.8,31.272,3,322,-2.692,-2.289,8.831,1
451,35.21,-97.482,330.3,31.882,4,322,-3.084,-2.017,9.084,0
452,35.21,-97.482,329.5,32.761,4,322,-4.037,-0.784,8.85,0
453,35.21,-97.482,331,33.831,4,322,-3.249,-1.708,8.592,0
454,35.21,-97.482,331.4,34.771,4,321,-3.074,-2.038,8.819,0
455,35.211,-97.483,331,35.5,4,321,-2.306,-2.702,9.289,0
456,35.211,-97.483,329.4,35.841,4,321,-3.992,-0.153,8.634,0
457,35.211,-97.483,331,36.88,4,321,-3.585,-0.904,8.827,0
458,35.212,-97.483,332.1,37.94,4,321,-2.399,-1.821,8.317,0
459,35.212,-97.483,331.1,38.42,5,321,-2.456,-1.996,8.34,0
460,35.212,-97.484,329.8,38.76,4,321,-3.908,-0.116,8.452,0
461,35.212,-97.484,331.5,39.51,5,321,-2.8,0.09,9.307,0
462,35.213,-97.484,332.7,39.18,5,321,-3.314,0.428,9.853,0
463,35.213,-97.484,334.9,39.151,5,322,-3.32,0.527,9.6,0
464,35.213,-97.484,336.8,38.452,4,326,-2.914,0.266,9.266,0
465,35.214,-97.485,339.1,38.133,4,327,-2.994,0.045,9.748,0
466,35.214,-97.485,340.8,37.291,3,326,-2.892,-0.083,8.887,0
467,35.214,-97.485,342.3,36.621,4,324,-3.35,0.246,8.96,0
468,35.215,-97.485,344.4,36.13,4,323,-2.663,-0.168,9.261,0
469,35.215,-97.485,345.6,35.43,4,323,-2.701,-0.032,8.995,0
470,35.215,-97.485,347.1,34.811,4,324,-3.251,-0.166,10.035,0
471,35.216,-97.485,349.2,34.37,4,323,-3.324,-0.345,9.108,0
473,35.216,-97.485,350.8,34.2,3,324,-3.339,-0.353,8.881,1
473,35.216,-97.485,350.8,34.2,3,324,-3.339,-0.353,8.881,1
474,35.216,-97.485,352.5,34.22,4,324,-3.262,-0.343,9.151,0
475,35.216,-97.485,354.1,34.24,4,324,-3.072,-0.502,8.99,0
476,35.217,-97.485,355.5,34.672,3,324,-3.49,-0.097,8.328,0
477,35.217,-97.485,357.5,34.971,3,324,-3.455,-0.559,9.616,0
478,35.217,-97.485,359.6,35.331,3,324,-2.664,-0.715,9.425,0
479,35.218,-97.485,0.4,35.441,3,324,-2.269,-0.324,8.61,0
480,35.218,-97.485,0.2,34.811,3,325,-2.792,-0.854,9.315,0
481,35.218,-97.485,0.2,34.151,3,324,-2.723,-0.562,8.381,0
482,35.219,-97.485,359.8,33.282,5,325,-2.596,-0.822,8.823,0
483,35.219,-97.485,359.6,32.862,6,325,-3.015,-0.734,9.231,0
484,35.22,-97.485,359.6,32.61,4,324,-3.283,-0.638,9.729,0
485,35.22,-97.485,359.9,32.46,4,323,-3.4,-0.595,10.008,0
486,35.22,-97.485,0.2,32.39,4,323,-2.972,-0.534,9.374,0
487,35.22,-97.485,0.3,32.271,5,324,-2.945,-0.591,9.268,0
488,35.221,-97.485,0.2,32.25,9,323,-2.986,-0.637,9.948,0
489,35.221,-97.485,0,32.39,10,323,-3.015,-0.668,8.893,1
490,35.221,-97.485,0,32.74,4,322,-2.998,-0.713,8.765,0
491,35.222,-97.485,0,32.94,9,323,-2.81,-0.626,8.827,0
492,35.222,-97.485,0,33.13,9,323,-2.946,-0.561,9.016,0
493,35.222,-97.485,0.2,34.08,4,323,-2.75,-0.676,8.839,0
494,35.223,-97.485,0.1,34.33,4,322,-2.992,-0.578,9.027,1
495,35.223,-97.485,0,34.27,4,322,-2.793,-0.398,8.994,0
496,35.223,-97.485,0,34.21,5,321,-2.7,-0.475,9.163,0
497,35.224,-97.485,0,34.25,5,322,-2.559,-0.501,9.181,1
498,35.224,-97.485,359.9,33.41,4,317,-2.744,-0.417,8.96,1
499,35.224,-97.485,0,33.17,4,319,-2.873,-0.535,9.26,1
500,35.225,-97.485,0,33.12,4,319,-2.728,-0.647,9.911,0
501,35.225,-97.485,359.8,33.09,4,319,-2.905,-0.654,9.232,0
502,35.225,-97.485,359.8,33.03,4,318,-3.082,-0.54,9.04,0
503,35.225,-97.485,359.7,33.051,4,319,-3.148,-0.666,8.932,0
504,35.226,-97.485,0.1,33.17,4,319,-3.054,-0.907,9.305,0
505,35.226,-97.485,0,33.36,5,319,-3.079,-0.882,9.12,0
506,35.226,-97.485,359.9,33.51,4,319,-2.827,-0.581,9.102,0
507,35.227,-97.485,359.8,33.3,4,320,-2.936,-0.743,9.003,0
508,35.227,-97.485,359.6,33.3,4,320,-3.05,-0.566,9.176,1
509,35.227,-97.485,359.7,33.42,3,321,-3.137,-0.509,8.93,1
510,35.228,-97.485,359.9,33.491,3,322,-2.899,-0.731,8.764,1
511,35.228,-97.485,359.7,33.531,3,322,-2.887,-0.72,8.842,1
512,35.228,-97.485,359.5,33.56,4,322,-3.114,-0.525,9.129,1
513,35.228,-97.485,0,33.66,3,321,-2.995,-0.6,9.354,1
514,35.229,-97.485,359.9,33.68,4,321,-2.954,-0.688,9.035,1
515,35.229,-97.485,359.7,33.651,3,320,-3.036,-0.622,9.15,1
516,35.229,-97.485,0,33.72,3,320,-3.011,-0.601,8.924,1
517,35.23,-97.485,359.9,33.68,3,321,-3.105,-0.584,9.051,1
518,35.23,-97.485,0.1,33.7,3,320,-2.931,-0.664,8.897,1
519,35.23,-97.485,0.2,33.69,3,320,-3.002,-0.702,9.104,1
520,35.231,-97.485,0,33.68,4,320,-2.92,-0.689,8.906,1
521,35.231,-97.485,359.8,33.65,4,321,-3.021,-0.53,8.937,1
522,35.231,-97.485,359.9,33.67,4,322,-2.969,-0.581,8.901,1
523,35.231,-97.485,359.9,33.75,3,320,-2.995,-0.463,9.179,1
524,35.232,-97.485,359.9,33.76,4,319,-2.97,-0.594,9.151,1
525,35.232,-97.485,359.9,33.73,9,320,-3.019,-0.479,8.867,1
526,35.232,-97.485,0,33.72,9,320,-3.013,-0.559,8.879,1
527,35.233,-97.485,0.1,33.73,9,320,-3.037,-0.683,8.976,1
528,35.233,-97.485,359.5,33.51,9,320,-2.891,-0.718,9.24,1
529,35.233,-97.485,358.9,33.77,10,320,-2.892,-0.699,9.184,1
531,35.234,-97.485,359.7,33.72,10,319,-3.045,-0.627,8.693,1
531,35.234,-97.485,359.7,33.72,10,319,-3.045,-0.627,8.693,1
532,35.234,-97.485,359.8,33.7,10,319,-3.082,-0.532,8.742,1
533,35.234,-97.485,0,33.76,10,319,-2.974,-0.788,9.192,1
534,35.235,-97.485,359.9,33.69,9,319,-2.95,-0.663,8.976,1
535,35.235,-97.485,359.9,33.69,9,318,-2.896,-0.631,8.913,1
536,35.235,-97.485,0,33.72,9,317,-2.911,-0.532,9.187,1
537,35.235,-97.485,359.8,33.72,9,317,-2.97,-0.553,9.042,1
538,35.236,-97.485,359.8,33.69,9,318,-3.081,-0.386,9.018,1
539,35.236,-97.485,359.9,33.75,9,318,-2.872,-0.804,9.219,1
540,35.236,-97.485,0.3,33.81,10,320,-2.896,-0.638,8.673,1
541,35.237,-97.485,359.9,33.73,9,319,-3.04,-0.668,9.33,1
542,35.237,-97.485,0.1,33.71,9,319,-2.848,-0.749,9.203,1
543,35.238,-97.485,359.8,33.73,9,321,-2.854,-0.84,9.345,1
544,35.238,-97.485,359.6,33.74,9,322,-2.927,-0.597,9.124,1
545,35.238,-97.485,359.9,33.77,9,322,-2.937,-0.537,8.897,1
546,35.238,-97.485,359.9,33.76,9,322,-2.952,-0.613,9.257,1
547,35.239,-97.485,359.7,33.77,9,324,-3.01,-0.618,9.057,1
548,35.239,-97.485,359.9,33.82,9,322,-2.895,-0.66,9.321,1
549,35.239,-97.485,359.9,33.79,9,322,-2.974,-0.486,8.911,1
550,35.24,-97.485,0,33.76,9,322,-2.941,-0.74,9.333,1
551,35.24,-97.485,0,33.71,9,321,-2.929,-0.45,9.063,1
552,35.24,-97.485,359.9,33.71,9,321,-3.02,-0.704,9.239,1
553,35.241,-97.485,359.9,33.72,9,320,-2.841,-0.595,9.168,1
554,35.241,-97.485,359.9,33.66,9,320,-2.804,-0.574,9.134,1
555,35.241,-97.485,359.8,33.48,9,319,-2.691,-0.54,9.096,1
556,35.242,-97.485,359.8,33.24,9,318,-2.665,-0.337,9.015,1
557,35.242,-97.485,359.8,32.88,9,318,-2.748,-0.201,9.161,1
558,35.242,-97.485,0,32.57,9,316,-2.741,-0.367,9.337,1
559,35.242,-97.485,0.1,32.18,9,316,-2.723,-0.343,8.958,1
560,35.243,-97.485,0.1,31.81,9,316,-2.586,-0.491,9.429,1
561,35.243,-97.485,0,31.45,9,316,-2.489,-0.521,9.492,1
562,35.243,-97.485,359.7,31.12,9,318,-2.789,-0.508,9.259,1
563,35.244,-97.485,359.7,30.97,9,318,-2.799,-0.552,8.824,1
564,35.244,-97.485,359.9,30.88,9,316,-2.8,-0.582,9.255,1
565,35.244,-97.485,359.7,30.76,9,316,-2.939,-0.6,8.948,1
566,35.244,-97.485,359.9,30.72,9,316,-3.09,-0.665,9.303,1
567,35.245,-97.485,0,30.87,9,318,-3.187,-1.007,9.228,1
568,35.245,-97.485,0,31.19,9,318,-3.186,-0.929,8.976,1
569,35.245,-97.485,0.1,31.6,9,318,-3.272,-0.952,9.058,1
570,35.245,-97.485,0,32.06,9,317,-3.15,-0.965,8.878,1
571,35.246,-97.485,359.8,32.35,9,318,-2.94,-0.843,8.987,1
572,35.246,-97.485,359.7,32.58,9,318,-3.049,-0.715,8.852,1
573,35.246,-97.485,359.7,32.76,9,318,-3.211,-0.779,9.224,1
574,35.247,-97.485,359.9,32.93,9,318,-3.113,-0.742,9.246,1
575,35.247,-97.485,0,33.12,9,319,-2.836,-0.794,9.034,1
576,35.247,-97.485,359.9,33.181,9,320,-2.949,-0.712,9.027,1
577,35.248,-97.485,0,33.24,9,320,-3.004,-0.753,9.087,1
578,35.248,-97.485,0,33.33,9,319,-2.931,-0.602,9.055,1
579,35.248,-97.485,0.5,33.682,9,319,-2.918,-0.737,9.056,1
580,35.248,-97.485,0.4,33.361,9,319,-2.881,-0.859,9.2,1
581,35.249,-97.485,359.9,33.33,9,320,-2.997,-0.752,9.1,1
582,35.249,-97.485,359.7,33.37,9,319,-3.076,-0.691,8.961,1
583,35.249,-97.485,359.7,33.37,9,319,-3.021,-0.651,8.745,1
584,35.25,-97.485,359.7,33.38,9,319,-2.998,-0.586,9.098,1
585,35.25,-97.486,359.8,33.38,9,320,-2.884,-0.67,8.779,1
586,35.25,-97.485,0,33.43,9,318,-2.946,-0.656,8.863,1
587,35.251,-97.485,359.9,33.41,9,315,-2.91,-0.609,9.249,1
588,35.251,-97.485,359.9,33.37,9,316,-3.024,-0.627,8.899,1
589,35.251,-97.485,0,33.34,9,315,-2.996,-0.685,9.147,1
591,35.251,-97.485,0.2,33.34,9,315,-2.942,-0.703,9.31,1
591,35.251,-97.485,0.2,33.34,9,315,-2.942,-0.703,9.31,1
592,35.252,-97.485,0.1,33.34,9,315,-2.757,-0.788,9.211,1
593,35.252,-97.485,0,33.31,9,316,-2.902,-0.747,9.058,1
594,35.252,-97.485,359.8,33.29,9,316,-2.966,-0.701,9.212,1
595,35.253,-97.486,359.6,33.26,9,318,-2.983,-0.659,8.978,1
596,35.253,-97.486,359.9,33.26,9,319,-3.143,-0.542,9.225,1
597,35.253,-97.486,359.9,33.23,9,319,-2.989,-0.689,8.815,1
598,35.254,-97.485,0.1,33.29,9,315,-2.996,-0.59,8.673,1
599,35.254,-97.485,0.1,33.25,9,315,-3.014,-0.853,8.829,1
600,35.254,-97.485,0.1,33.31,9,313,-3.027,-0.882,9.097,1
601,35.255,-97.486,359.9,33.45,9,312,-3.232,-0.752,8.904,1
602,35.255,-97.486,0,33.66,9,311,-3.299,-0.971,8.766,1
603,35.255,-97.485,0.4,33.74,10,311,-3.306,-1.112,8.592,1
604,35.255,-97.485,0.4,34.07,10,313,-3.272,-0.858,8.908,1
605,35.256,-97.485,1,34.89,11,314,-3.166,-0.831,9.041,1
606,35.256,-97.486,359,35.18,11,313,-3.051,-0.799,8.73,1
607,35.257,-97.486,358.1,35.63,11,314,-2.921,-0.718,8.981,1
608,35.257,-97.485,0.6,35.5,11,315,-3.081,-0.708,8.724,1
609,35.257,-97.485,0,35.89,10,312,-3.023,-0.661,9.064,1
610,35.258,-97.485,0,35.89,10,312,-2.907,-0.522,9.194,1
611,35.258,-97.485,359.9,35.9,10,314,-3.048,-0.755,9.052,1
612,35.258,-97.485,359.9,35.9,10,315,-2.942,-0.598,9.057,1
613,35.259,-97.485,0,35.89,9,314,-2.832,-0.625,8.951,1
614,35.259,-97.485,0,35.89,9,315,-2.874,-0.766,9.053,1
615,35.259,-97.485,359.9,35.9,9,314,-2.775,-0.639,8.975,1
616,35.26,-97.485,359.8,35.81,9,316,-2.837,-0.638,9.074,1
617,35.26,-97.485,359.8,35.78,9,316,-2.941,-0.795,9.214,1
618,35.26,-97.485,359.9,35.74,9,315,-2.898,-0.671,9.361,1
619,35.261,-97.485,359.8,35.65,9,316,-3.023,-0.632,9.001,1
620,35.261,-97.485,359.9,35.63,9,316,-2.872,-0.535,9.101,1
621,35.261,-97.485,0,35.6,9,316,-2.962,-0.671,8.771,1
622,35.262,-97.485,0,35.59,9,317,-2.868,-0.555,8.999,1
623,35.262,-97.485,359.7,35.58,9,319,-3.01,-0.724,9.133,1
624,35.262,-97.485,359.4,35.52,9,319,-2.888,-0.467,8.998,1
625,35.263,-97.486,358.3,36.47,10,318,-2.943,-0.873,9.024,1
626,35.263,-97.486,359,35.62,10,319,-2.794,-0.556,9.026,1
627,35.263,-97.486,358.8,35.91,10,318,-3.001,-0.734,8.997,1
628,35.263,-97.485,0,35.53,10,318,-2.871,-0.48,9.056,1
629,35.264,-97.485,359.9,35.52,10,319,-2.934,-0.755,9.121,1
630,35.264,-97.485,359.8,35.48,9,319,-2.808,-0.542,9.121,1
631,35.264,-97.486,359.7,35.48,9,319,-2.884,-0.615,8.742,1
632,35.265,-97.486,359.6,35.45,10,319,-2.844,-0.527,8.869,1
633,35.265,-97.486,359.1,35.49,10,319,-2.904,-0.605,8.938,1
634,35.265,-97.486,0,35.39,10,319,-2.86,-0.736,9.108,1
635,35.266,-97.485,359.9,35.38,10,318,-2.856,-0.563,9.108,1
636,35.266,-97.485,359.8,35.34,9,320,-2.904,-0.74,8.982,1
637,35.266,-97.486,359.8,35.33,9,322,-2.956,-0.628,8.902,1
638,35.267,-97.486,0,35.4,9,321,-2.889,-0.833,9.226,1
639,35.267,-97.486,0,35.341,9,323,-2.889,-0.835,9.071,1
640,35.267,-97.486,359.8,35.44,9,324,-2.74,-0.715,8.995,1
641,35.268,-97.486,359.9,35.43,9,325,-2.888,-0.825,8.719,1
642,35.268,-97.486,359.8,35.47,9,324,-2.758,-0.577,8.841,1
643,35.268,-97.486,0.1,35.47,10,324,-2.986,-0.867,9.201,1
644,35.269,-97.486,0.1,35.58,10,323,-2.943,-0.704,9.412,1
645,35.269,-97.485,359.9,35.55,10,320,-3.043,-0.717,9.286,1
646,35.269,-97.485,359.7,35.5,10,320,-2.909,-0.72,9.193,1
647,35.27,-97.485,0.1,35.06,10,321,-2.912,-0.579,9.229,1
648,35.27,-97.486,358.2,35.79,11,321,-2.938,-0.499,8.914,1
649,35.27,-97.486,359.3,35.591,10,325,-2.871,-0.673,8.967,1
650,35.27,-97.486,359.4,35.7,10,325,-2.689,-0.575,9.033,1
651,35.271,-97.486,359,35.82,10,325,-2.946,-0.782,9.059,1
652,35.271,-97.486,359.6,35.76,10,323,-2.756,-0.507,9.276,1
653,35.271,-97.486,359.6,35.76,10,323,-3.007,-0.608,9.084,1
655,35.272,-97.486,359.8,35.69,11,323,-2.69,-0.597,8.817,1
655,35.272,-97.486,359.8,35.69,11,323,-2.69,-0.597,8.817,1
656,35.272,-97.486,359,35.52,11,324,-2.878,-0.25,9.265,1
657,35.272,-97.486,359.6,35.48,12,325,-3.067,-0.563,8.974,1
658,35.273,-97.486,0.2,35.72,11,326,-2.788,-0.72,9.064,1
659,35.273,-97.486,0.5,35.87,12,326,-2.699,-0.554,8.987,1
660,35.273,-97.486,359.4,35.99,12,326,-2.893,-0.702,8.96,1
661,35.274,-97.486,358.1,36.44,12,326,-2.805,-0.676,8.942,1
662,35.274,-97.486,359.5,35.48,12,328,-2.887,-0.346,8.858,1
663,35.274,-97.486,359.3,35.86,13,328,-3.003,-0.743,9.083,1
664,35.275,-97.486,359.4,36.09,11,316,-2.763,-0.54,9.287,1
665,35.275,-97.486,359.4,36,12,316,-2.737,-0.925,9.16,1
666,35.275,-97.486,359.6,35.77,13,316,-2.864,-0.724,9.418,1
667,35.276,-97.486,0.1,35.76,12,315,-2.946,-0.303,9.194,1
668,35.276,-97.486,0.8,35.76,11,315,-2.921,-0.695,9.527,1
669,35.277,-97.486,359.5,35.68,11,313,-3.341,-0.035,9.203,0
670,35.277,-97.486,2.1,35.47,10,313,-3.449,-0.262,9.232,0
671,35.277,-97.486,2.7,35.51,10,314,-3.576,0.195,9.013,0
672,35.278,-97.485,7.1,35.28,10,313,-4.249,0.951,9.208,0
673,35.278,-97.485,11,34.9,10,312,-4.426,0.948,9.027,0
674,35.278,-97.485,16,34.601,10,314,-3.732,0.306,8.955,0
675,35.278,-97.485,18.5,34.58,9,313,-2.805,-0.746,8.904,0
676,35.279,-97.485,18.8,34.55,9,313,-2.743,-0.757,8.914,0
677,35.279,-97.485,18.9,34.5,9,314,-2.67,-0.969,8.99,0
678,35.279,-97.485,18.7,34.481,9,316,-2.813,-1.155,9.173,0
679,35.28,-97.485,18.2,34.78,9,317,-2.999,-0.905,8.784,0
680,35.28,-97.484,18.1,34.92,9,317,-2.375,-1.765,9.077,0
681,35.28,-97.484,15.3,35.07,9,318,-1.745,-2.411,9.082,1
682,35.281,-97.484,11.8,35.351,9,319,-1.884,-2.066,9.155,1
683,35.281,-97.484,9,35.5,9,319,-1.951,-2.216,9.299,1
684,35.281,-97.484,5.8,35.72,9,319,-1.919,-1.951,9.441,1
685,35.282,-97.484,4.5,35.27,10,319,-1.815,-1.981,9.156,1
686,35.282,-97.484,2.9,35.33,10,319,-1.663,-2.077,9.335,1
687,35.282,-97.484,356,35.2,10,320,-1.485,-1.941,9.027,1
688,35.282,-97.484,352.4,34.98,10,320,-1.483,-2.092,8.989,1
689,35.283,-97.484,348.8,34.83,9,320,-1.963,-1.771,9.152,1
690,35.283,-97.485,346.2,35.111,9,322,-2.178,-1.58,9.053,1
691,35.283,-97.485,344,34.961,9,322,-2.906,-0.601,8.927,1
692,35.284,-97.485,343.4,34.68,10,323,-3.173,-0.204,8.886,1
693,35.284,-97.485,343.5,34.5,9,323,-2.695,-0.911,9.056,1
694,35.284,-97.485,343.3,34.34,10,323,-2.813,-0.704,8.783,1
695,35.285,-97.485,343.4,34.15,10,323,-2.833,-0.804,9.106,1
696,35.285,-97.485,343.4,34.15,10,323,-2.786,-0.931,9.154,1
697,35.285,-97.485,343.4,34,10,324,-2.896,-0.771,8.836,1
698,35.285,-97.485,343.3,34.37,9,323,-2.891,-0.807,9.031,1
699,35.286,-97.485,343.2,34.33,9,324,-2.822,-0.833,9.013,1
700,35.286,-97.486,343.1,34.25,10,324,-2.88,-0.844,9.171,1
701,35.286,-97.486,343.3,34.4,9,325,-2.72,-0.968,8.977,1
702,35.287,-97.486,342.9,34.39,9,324,-2.85,-0.868,9.232,1
703,35.287,-97.486,343.1,34.14,9,324,-2.783,-0.703,8.819,1
704,35.287,-97.486,343,34.17,9,324,-2.862,-0.756,9.035,1
705,35.288,-97.486,343.2,34,9,326,-2.882,-0.916,9.162,1
706,35.288,-97.486,343.3,33.84,9,326,-2.873,-0.638,9.093,1
707,35.288,-97.486,343.5,33.79,9,326,-2.881,-0.771,9.199,1
708,35.288,-97.486,343.5,33.72,9,327,-2.729,-0.938,9.102,1
709,35.289,-97.487,343.4,33.91,9,327,-2.549,-1.087,9.212,1
710,35.289,-97.487,343.2,33.6,9,327,-2.655,-0.975,8.965,1
712,35.289,-97.487,343.3,33.62,9,328,-2.77,-1.048,9.062,1
712,35.289,-97.487,343.3,33.62,9,328,-2.77,-1.048,9.062,1
713,35.29,-97.487,343.3,33.46,9,329,-2.705,-0.974,9.03,1
714,35.29,-97.487,343.5,33.37,9,330,-2.706,-1.01,9.147,1
715,35.29,-97.487,343,33.27,9,331,-2.768,-0.957,8.96,1
716,35.29,-97.487,343,33.58,9,331,-2.805,-0.83,8.841,1
717,35.291,-97.487,343,33.35,9,332,-2.845,-0.896,9.153,1
718,35.291,-97.487,343.2,33.19,9,332,-2.542,-0.859,8.7,1
719,35.291,-97.487,344.9,33.62,9,333,-2.685,-0.887,9.078,1
720,35.292,-97.488,343.5,33.64,9,334,-2.795,-0.885,9.254,1
721,35.292,-97.488,343.3,33.33,9,334,-2.807,-0.954,9.255,1
722,35.292,-97.488,343.4,33.27,9,332,-2.484,-1.004,8.691,1
723,35.293,-97.488,343.3,33.46,9,333,-2.524,-1.123,9.207,1
724,35.293,-97.488,343.2,33.45,9,333,-2.646,-1.004,9.259,1
725,35.293,-97.488,342.8,33.59,9,333,-2.631,-0.941,9.147,1
726,35.294,-97.488,342.7,33.88,9,332,-2.733,-0.78,9.041,1
727,35.294,-97.488,343.1,33.57,9,333,-2.61,-1.044,9.181,1
728,35.294,-97.489,343.2,33.67,9,332,-2.572,-0.967,9.064,1
729,35.294,-97.489,343.5,33.64,9,331,-2.53,-0.962,9.027,1
730,35.295,-97.489,343.6,33.73,9,331,-2.657,-0.978,9.014,1
731,35.295,-97.489,344,33.68,9,330,-2.505,-0.954,9.148,1
732,35.295,-97.489,343.9,33.38,9,329,-2.595,-0.849,9.071,1
733,35.296,-97.489,343.7,33.68,9,328,-2.671,-0.929,9.271,1
734,35.296,-97.489,343.6,33.75,9,329,-2.739,-0.9,9.155,1
735,35.296,-97.489,343.5,33.75,9,326,-3.004,-0.707,9.271,1
736,35.296,-97.489,344.3,33.87,9,326,-3.153,-0.391,9.205,1
737,35.297,-97.49,345.8,33.75,9,326,-3.061,-0.386,9.382,1
738,35.297,-97.49,347.3,33.52,9,326,-3.037,-0.512,9.223,1
739,35.297,-97.49,349.5,33.151,9,326,-3.014,-0.772,9.462,0
740,35.298,-97.49,349.7,32.95,9,326,-3.027,-0.574,9.367,0
741,35.298,-97.49,350.5,33.14,9,326,-3.149,-0.577,9.285,0
742,35.298,-97.49,351.6,33.07,9,326,-3.16,-0.684,9.235,0
743,35.299,-97.49,352.9,32.85,3,326,-3.279,-0.862,8.952,0
744,35.299,-97.49,355,32.602,3,325,-3.101,-1.032,9.092,0
745,35.299,-97.49,355.9,32.682,3,324,-3.191,-0.762,9.136,0
746,35.299,-97.49,357,32.762,3,325,-3.225,-0.715,8.811,0
747,35.3,-97.49,358.1,32.803,3,327,-3.104,-0.798,8.749,1
748,35.3,-97.49,359.2,32.881,3,328,-3.04,-0.938,9.055,1
749,35.3,-97.49,359.8,33.05,3,326,-2.958,-1.014,9.029,1
750,35.301,-97.49,0.2,33.1,3,326,-2.833,-1.31,9.067,1
751,35.301,-97.49,359.7,33.25,4,325,-2.774,-1.154,8.817,1
752,35.301,-97.49,0,33.23,4,327,-2.764,-1.047,8.653,1
753,35.302,-97.49,359.2,33.31,4,327,-2.694,-1.13,8.92,1
754,35.302,-97.49,0.1,33.42,4,326,-2.581,-1.248,8.8,1
755,35.302,-97.49,359.8,33.51,4,327,-2.534,-1.098,8.874,1
756,35.302,-97.49,359.7,33.52,4,328,-2.743,-1.021,9.026,1
757,35.303,-97.49,359.8,33.6,4,327,-2.628,-0.804,9.09,1
758,35.303,-97.49,359.8,33.451,4,330,-2.557,-0.616,8.931,1
759,35.303,-97.49,0.2,33.21,4,331,-2.762,-0.43,8.991,1
760,35.304,-97.49,0.4,32.97,5,330,-2.614,-0.708,9.467,1
761,35.304,-97.49,1.8,32.88,6,328,-2.288,-1.031,9.188,1
762,35.304,-97.49,1.4,32.4,6,329,-2.102,-1.166,9.141,1
763,35.305,-97.49,0.7,32.47,6,328,-2.212,-0.98,9.079,1
764,35.305,-97.49,359.5,32.25,7,327,-2.451,-0.814,9.229,1
765,35.305,-97.49,0.1,31.75,7,328,-2.431,-0.845,9.125,1
766,35.305,-97.49,0.2,31.12,6,328,-2.271,-1.025,9.253,1
767,35.306,-97.49,0,31.32,5,324,-2.286,-1.231,9.121,1
768,35.306,-97.49,0,30.81,6,325,-2.525,-1.326,9.282,1
769,35.306,-97.49,358.5,30.64,5,326,-2.938,-1.044,9.068,1
771,35.307,-97.49,358.5,30.77,5,326,-3.017,-0.865,9.1,1
771,35.307,-97.49,358.5,30.77,5,326,-3.017,-0.865,9.1,1
772,35.307,-97.49,358.4,31.12,5,326,-2.991,-0.863,9.121,1
773,35.307,-97.49,358.8,31.4,5,325,-2.798,-1.108,8.861,1
774,35.307,-97.49,359.9,31.42,4,327,-2.743,-1.077,8.808,1
775,35.308,-97.49,359.7,31.54,5,327,-2.796,-1.195,9.012,1
776,35.308,-97.49,358.3,32.03,6,328,-2.643,-0.941,8.978,1
777,35.308,-97.49,358.7,32.25,7,329,-2.819,-0.995,9.019,1
778,35.309,-97.49,358.7,31.98,8,329,-2.744,-1.138,9.027,1
779,35.309,-97.49,358.6,31.9,8,329,-2.922,-1.221,9.212,1
780,35.309,-97.49,358.9,31.981,8,330,-2.923,-1.179,9.157,1
781,35.309,-97.49,1.5,32.13,7,327,-3.047,-1.11,8.947,1
782,35.31,-97.49,0.8,32.431,8,330,-3.014,-1.167,9.09,1
783,35.31,-97.49,1.7,32.78,9,330,-2.612,-0.906,9.349,1
784,35.311,-97.49,0.2,32.68,7,330,-2.485,-0.93,9.257,1
785,35.311,-97.49,0.2,32.33,7,331,-2.778,-1.141,9.043,1
786,35.311,-97.49,359.4,32.66,8,330,-2.707,-1.115,9.083,1
787,35.311,-97.49,358.7,32.86,8,332,-2.719,-1.113,8.83,1
788,35.312,-97.49,359.4,33.01,7,330,-2.825,-1.037,8.931,1
789,35.312,-97.49,359.6,33.26,6,327,-2.895,-1.114,8.977,1
790,35.312,-97.49,359.9,33.29,6,326,-2.734,-1.24,9.006,1
791,35.313,-97.49,0,33.27,6,327,-2.712,-1.252,9.352,1
792,35.313,-97.49,359.8,33.31,6,327,-2.666,-1.18,8.786,1
793,35.313,-97.49,359.7,33.3,6,328,-2.84,-0.986,9.046,1
794,35.314,-97.49,359.2,33.57,7,328,-2.715,-1.052,9.187,1
795,35.314,-97.49,0.4,33.58,7,328,-2.72,-1.004,8.882,1
796,35.314,-97.49,0.8,33.63,8,330,-2.737,-1.158,8.949,1
797,35.314,-97.49,0.2,33.5,6,331,-2.637,-1.099,8.994,1
798,35.315,-97.49,0,33.61,6,330,-2.737,-1.092,9.081,1
799,35.315,-97.49,0.4,33.66,7,328,-2.742,-1.204,9.431,1
800,35.315,-97.49,0,33.421,6,330,-2.615,-1.194,8.824,1
801,35.316,-97.49,359.8,33.35,6,331,-2.711,-1.233,8.907,1
802,35.316,-97.49,0.4,33.07,7,333,-2.73,-1.175,8.924,1
803,35.316,-97.49,0,33.41,6,335,-2.675,-1.21,9.304,1
804,35.317,-97.49,0.1,33.371,6,336,-2.678,-1.225,9.026,1
805,35.317,-97.49,0,33.38,6,338,-2.599,-1.141,9.032,1
806,35.317,-97.49,0.1,33.24,5,338,-2.668,-1.201,9.065,1
807,35.317,-97.49,0,33.36,10,338,-2.748,-1.076,9.028,1
808,35.318,-97.49,359.9,33.39,10,338,-2.829,-1.116,9.128,1
809,35.318,-97.49,0,33.44,11,338,-2.824,-1.195,9.271,1
810,35.318,-97.49,359.9,33.5,11,341,-2.711,-1.125,9.037,1
811,35.319,-97.49,359.9,33.5,11,338,-2.612,-1.098,8.818,1
812,35.319,-97.49,0.1,33.4,10,338,-2.689,-1.085,9.271,1
813,35.319,-97.49,359.8,33.47,10,338,-2.696,-0.966,8.971,1
814,35.32,-97.49,359.6,33.44,10,339,-2.617,-0.788,8.912,1
815,35.32,-97.49,359.4,33.39,10,338,-2.594,-0.907,8.944,1
816,35.32,-97.49,359.4,33.33,11,337,-2.571,-1.051,9.18,1
817,35.32,-97.49,358.9,32.84,10,338,-2.572,-0.866,9.153,1
818,35.321,-97.49,358.6,32.9,11,337,-2.622,-0.808,9.257,1
819,35.321,-97.49,0.3,32.72,11,336,-2.56,-0.974,9.438,1
820,35.321,-97.49,1.3,32.13,11,337,-2.735,-0.805,9.217,1
821,35.322,-97.49,1.4,31.96,12,337,-2.589,-0.998,9.062,1
822,35.322,-97.49,0.9,32.02,12,337,-2.519,-1.028,9.277,1
823,35.322,-97.49,1.1,31.86,11,337,-2.633,-1.07,9.105,1
824,35.322,-97.49,0,32.04,11,336,-2.698,-1.04,8.85,1
825,35.323,-97.49,359.9,32.02,11,335,-2.684,-1.111,9.176,1
826,35.323,-97.49,359,32.33,11,334,-2.623,-1.152,9.282,1
827,35.323,-97.49,0.1,31.94,11,336,-2.719,-0.984,9.18,1
828,35.324,-97.49,0.4,32.02,12,335,-2.7,-0.929,8.897,1
829,35.324,-97.49,357.3,33.12,12,336,-2.732,-0.946,9.048,1
831,35.324,-97.49,359.2,32.17,12,339,-2.592,-1.155,9.074,1
831,35.324,-97.49,359.2,32.17,12,339,-2.592,-1.155,9.074,1
832,35.325,-97.49,359,32.24,12,340,-2.615,-1.241,9.309,1
833,35.325,-97.49,0.4,31.61,11,340,-2.742,-1.167,9.01,1
834,35.325,-97.49,357.3,32.26,12,339,-2.89,-1.143,8.972,1
835,35.325,-97.49,358.7,32.06,12,338,-2.97,-1.275,8.815,1
836,35.326,-97.49,1.1,31.88,12,337,-2.841,-1.323,9.052,1
837,35.326,-97.49,0.9,32.22,12,338,-2.833,-1.268,9.182,1
838,35.326,-97.49,1.2,32.15,12,336,-2.84,-1.07,9.003,1
839,35.327,-97.49,1.1,32.18,11,335,-2.862,-1.27,9.345,1
840,35.327,-97.49,359,33.12,11,336,-2.65,-1.049,8.854,1
841,35.327,-97.49,0.3,32.76,11,336,-2.814,-1.127,8.884,1
842,35.327,-97.49,0.4,32.96,11,335,-2.965,-1.09,8.77,1
843,35.328,-97.49,358.8,33.16,11,336,-2.803,-0.985,9.029,1
844,35.328,-97.49,358.9,33.53,11,337,-2.737,-1.07,8.884,1
845,35.329,-97.49,0.3,33.11,12,337,-2.579,-1.293,8.999,1
846,35.329,-97.49,359.9,33.05,12,336,-2.756,-1.137,9.105,1
847,35.329,-97.49,359.8,33.56,12,336,-2.676,-1.226,9.19,1
848,35.329,-97.49,3.2,32.51,13,336,-2.609,-1.105,8.9,1
849,35.33,-97.49,2.3,32.88,12,335,-2.647,-0.939,8.956,1
850,35.33,-97.49,1.1,33.41,12,333,-2.61,-1.056,8.633,1
851,35.33,-97.49,0.6,33.63,12,334,-2.805,-0.941,8.739,1
852,35.331,-97.49,359,34.17,12,332,-2.816,-1.089,9.027,1
853,35.331,-97.49,358.7,34.54,12,332,-2.774,-0.909,8.636,1
854,35.331,-97.49,1.2,33.65,12,330,-2.835,-1.112,9.179,1
855,35.332,-97.49,1,33.04,12,330,-2.723,-0.954,9.049,1
856,35.332,-97.49,359.6,33.7,12,331,-2.723,-1.098,9.325,1
857,35.332,-97.49,359.7,33.63,12,332,-2.634,-1.116,9.331,1
858,35.333,-97.49,358.9,33.68,12,331,-2.513,-1.246,9.135,1
859,35.333,-97.49,359.8,33.32,12,330,-2.442,-1.173,9.077,1
860,35.333,-97.49,358,33.43,11,331,-2.347,-0.994,9.018,1
861,35.333,-97.49,357.2,33.23,11,331,-2.431,-1.073,8.98,1
862,35.334,-97.49,356.3,33.08,11,333,-2.28,-1.174,9.086,1
863,35.334,-97.49,354.1,32.964,10,334,-2.08,-1.419,9.152,1
864,35.334,-97.49,353.1,32.661,10,335,-2.131,-1.47,9.018,1
865,35.335,-97.49,351.4,32.38,10,336,-2.284,-1.451,9.134,1
866,35.335,-97.49,349.3,32.15,11,336,-2.264,-1.313,9.076,1
867,35.335,-97.49,347.1,32.27,10,336,-2.281,-1.389,9.436,1
868,35.335,-97.49,345.6,32.12,10,337,-2.375,-1.2,8.893,1
869,35.336,-97.491,345,31.92,10,339,-2.552,-1.032,9.033,1
870,35.336,-97.491,344.1,31.73,9,340,-2.516,-1.132,8.94,1
871,35.336,-97.491,342.5,31.681,4,341,-2.713,-1.028,9.038,1
872,35.337,-97.491,341.9,31.533,3,343,-2.933,-1.029,9.24,1
873,35.337,-97.491,341.9,31.324,3,344,-2.878,-1.012,9.191,1
874,35.337,-97.491,341.9,31.135,3,346,-2.836,-1.019,9.117,1
875,35.337,-97.491,342,30.935,3,348,-2.718,-1.249,9.018,1
876,35.338,-97.491,342,30.775,3,349,-2.555,-1.234,8.965,1
877,35.338,-97.491,341.9,30.703,3,349,-2.534,-1.23,8.796,1
878,35.338,-97.491,341.8,30.653,3,350,-2.93,-0.872,8.675,1
879,35.338,-97.492,341.5,30.651,3,350,-2.885,-1.125,9.468,0
880,35.339,-97.492,341.2,30.621,4,352,-2.859,-1.245,8.982,0
881,35.339,-97.492,341.1,30.59,4,353,-2.636,-1.16,8.792,0
882,35.339,-97.492,341.3,30.64,5,354,-2.686,-1.177,8.745,0
883,35.339,-97.492,341.4,30.71,5,354,-2.744,-1.204,8.542,0
884,35.34,-97.492,341.4,30.83,6,355,-2.714,-1.479,9.016,0
885,35.34,-97.492,341.3,31.01,7,357,-2.809,-1.475,9,0
886,35.34,-97.492,341.2,31.28,7,357,-2.855,-1.416,9.004,0
887,35.34,-97.492,341.1,31.62,8,357,-2.855,-1.426,9.123,1
888,35.341,-97.493,341.1,31.9,8,358,-2.953,-1.244,8.849,1
889,35.341,-97.493,341.3,32.2,8,358,-2.797,-1.386,8.997,1
890,35.341,-97.493,341.5,32.75,5,357,-2.583,-1.413,8.995,1
891,35.342,-97.493,341.3,32.91,5,358,-2.717,-1.28,9.037,1
892,35.342,-97.493,341.3,32.96,6,358,-2.633,-1.36,9.197,1
893,35.342,-97.493,341.2,33.16,6,358,-2.924,-1.141,9.591,0
894,35.342,-97.493,341.2,33.16,5,359,-2.891,-0.973,9.226,0
895,35.343,-97.493,341.6,33.41,4,360,-2.714,-1.087,9.047,0
896,35.343,-97.493,341.6,33.48,4,359,-3.101,-1.282,9.698,0
898,35.343,-97.494,341.6,33.62,3,361,-2.628,-1.056,9.123,0
898,35.343,-97.494,341.6,33.62,3,361,-2.628,-1.056,9.123,0
899,35.344,-97.494,341.8,33.51,3,361,-2.996,-0.185,8.705,0
900,35.344,-97.494,342.5,33.4,4,362,-3.097,-0.46,9.021,0
901,35.344,-97.494,343.7,33.47,5,360,-2.909,-0.669,9.141,0
902,35.344,-97.494,344.1,33.68,5,359,-2.59,-0.67,9.056,0
903,35.345,-97.494,345.5,34.15,6,356,-2.945,-0.43,9.392,0
904,35.345,-97.494,346.9,34.04,7,356,-2.95,-0.43,9.388,0
905,35.345,-97.494,348.3,34.26,7,354,-3.061,-0.378,9.408,0
906,35.346,-97.494,350.2,32.55,8,353,-2.785,-0.383,9.218,0
907,35.346,-97.494,350.9,32.78,7,353,-2.962,-0.447,9.218,0
908,35.347,-97.494,352.9,32.58,6,353,-2.743,-0.585,8.887,0
909,35.347,-97.495,353.8,32.24,5,354,-2.748,-0.603,9.002,0
910,35.347,-97.495,354.6,31.83,5,354,-2.59,-0.418,9.083,0
911,35.347,-97.495,354.9,31.58,5,355,-2.723,-0.561,9.042,0
912,35.348,-97.495,355.4,31.43,5,355,-2.865,-0.711,9.115,1
913,35.348,-97.495,356.2,31.41,4,355,-2.905,-0.704,9.133,1
914,35.348,-97.495,356.2,31.61,5,354,-2.873,-0.843,9.104,1
915,35.349,-97.495,356.4,31.88,6,355,-2.934,-0.895,9.006,1
916,35.349,-97.495,356.6,31.81,7,352,-2.829,-1.091,8.861,1
917,35.349,-97.495,0.3,30.761,5,351,-2.979,-1.307,8.992,1
918,35.349,-97.495,0.4,30.73,5,350,-2.88,-1.382,9.03,1
919,35.35,-97.495,359.9,30.99,6,349,-2.799,-1.511,9.246,0
920,35.35,-97.495,358.9,31.45,7,349,-2.612,-1.282,9.178,0
921,35.35,-97.495,357.7,31.96,7,348,-2.401,-1.136,8.852,0
922,35.351,-97.495,357.3,31.74,7,349,-2.194,-0.844,8.915,0
923,35.351,-97.495,357.4,31.62,7,348,-2.219,-0.779,8.839,0
924,35.351,-97.495,358.2,30.78,8,348,-2.28,-0.878,9.092,0
925,35.351,-97.495,0.2,29.61,8,350,-2.322,-1.01,9.244,0
926,35.352,-97.495,358.8,29.611,8,352,-2.295,-0.906,9.528,1
927,35.352,-97.495,358.5,29.4,8,353,-2.276,-1.04,9.4,1
928,35.352,-97.495,0.2,28.65,8,354,-2.266,-1.149,9.236,1
929,35.352,-97.495,0.2,28.29,8,354,-2.486,-1.117,9.385,1
930,35.353,-97.495,0.2,27.93,10,355,-2.62,-1.158,9.417,0
931,35.353,-97.495,1.9,27.19,10,356,-2.806,-1.43,9.053,0
932,35.353,-97.495,3.7,26.451,9,357,-2.949,-1.395,9.178,0
933,35.353,-97.495,2,27.311,9,359,-3.007,-1.534,9.155,0
934,35.354,-97.495,4.9,26.981,10,360,-3.137,-1.418,8.431,0
935,35.354,-97.495,358.4,29.52,9,359,-3.074,-1.695,8.968,0
936,35.354,-97.495,358.7,29.38,9,360,-3.004,-1.765,9.003,0
937,35.354,-97.495,358.9,30.34,10,359,-2.87,-1.499,8.582,1
938,35.355,-97.495,359.8,30.6,12,359,-2.856,-1.316,8.237,1
939,35.355,-97.495,1.7,30.32,13,359,-3.072,-1.266,8.593,1
940,35.355,-97.495,359.8,31.81,11,359,-2.701,-1.284,9.043,1
941,35.356,-97.495,0.6,31.94,12,359,-2.393,-1.012,9.022,1
942,35.356,-97.495,359.6,31.76,13,359,-2.554,-1.121,8.732,1
943,35.356,-97.495,359.4,31.75,14,358,-2.542,-1.309,9.001,1
944,35.356,-97.495,359.1,31.76,12,358,-2.627,-1.38,8.963,1
945,35.357,-97.495,359.5,31.78,12,358,-2.76,-1.275,9.188,1
946,35.357,-97.495,359.1,31.96,13,357,-2.464,-1.306,8.981,1
947,35.357,-97.495,358.9,31.95,14,357,-2.511,-1.204,9.222,1
948,35.358,-97.495,358.7,31.97,15,357,-2.614,-1.25,9.363,0
949,35.358,-97.495,358.7,31.75,15,357,-2.408,-1.225,9.267,0
950,35.358,-97.495,358.4,31.8,14,359,-2.556,-1.428,9.275,0
951,35.358,-97.495,358.3,32.01,15,358,-2.315,-1.437,9.028,0
952,35.359,-97.495,358.3,31.88,15,359,-2.606,-1.21,8.76,0
953,35.359,-97.495,358.4,31.76,15,359,-2.76,-1.28,9.072,0
954,35.359,-97.495,358.9,31.69,16,359,-2.712,-1.406,8.889,0
955,35.36,-97.495,359.2,31.64,17,358,-2.626,-1.508,8.536,0
956,35.36,-97.495,358.6,32.17,17,357,-2.787,-1.284,8.835,0
957,35.36,-97.495,359.8,31.95,16,357,-2.698,-1.346,9.114,1
958,35.36,-97.495,0.2,32.03,15,356,-2.575,-1.288,9.246,1
960,35.361,-97.495,0,32.31,16,355,-2.525,-1.272,9.267,0
960,35.361,-97.495,0,32.31,16,355,-2.525,-1.272,9.267,0
961,35.361,-97.495,0,32.1,8,357,-2.836,-1.562,9.415,0
962,35.361,-97.495,0.1,32.08,8,359,-2.756,-1.516,9.18,0
963,35.362,-97.495,0.3,32.21,7,359,-2.614,-1.557,9.182,0
964,35.362,-97.495,359.4,32.25,7,359,-2.932,-1.469,9.144,0
965,35.362,-97.495,359.3,32.15,6,361,-2.937,-1.358,8.967,0
966,35.362,-97.495,359.2,32.28,6,361,-2.69,-1.257,8.93,0
967,35.363,-97.495,359.4,32.19,6,361,-2.318,-1.041,8.798,0
968,35.363,-97.495,359.2,32.46,7,362,-2.548,-1.218,9.188,0
969,35.363,-97.495,359,32.47,7,362,-2.722,-1.371,9.218,0
970,35.364,-97.495,359,32.481,9,363,-2.433,-0.975,8.409,0
971,35.364,-97.495,357.2,33.181,11,363,-2.108,-0.64,7.839,0
972,35.364,-97.495,359.7,32.2,10,364,-2.305,-1.243,8.583,0
973,35.365,-97.495,359.4,31.99,10,364,-2.265,-1.423,8.765,0
974,35.365,-97.495,359.3,31.92,10,365,-2.553,-1.394,9.394,0
975,35.365,-97.495,359,32.02,10,365,-2.484,-1.291,9.299,0
976,35.366,-97.495,359.2,32.3,10,364,-2.472,-1.26,9.201,0
977,35.366,-97.495,359.5,32.42,10,364,-2.616,-1.641,9.527,0
978,35.366,-97.495,359.6,32.771,11,364,-2.574,-1.508,9.522,0
979,35.367,-97.495,359.2,32.731,11,363,-2.588,-1.508,9.2,0
980,35.367,-97.495,359.4,32.54,12,363,-2.523,-1.39,9.386,0
981,35.367,-97.495,359,32.78,12,362,-2.59,-1.612,8.822,0
982,35.367,-97.495,358.7,33.1,13,361,-2.419,-1.474,8.772,0
983,35.368,-97.495,358.1,33.39,13,361,-2.798,-1.661,9.15,0
984,35.368,-97.495,358.6,33.32,13,361,-2.641,-1.56,8.942,0
985,35.368,-97.495,358.8,33.1,13,360,-2.69,-1.567,9.682,0
986,35.369,-97.495,358.2,33.46,14,360,-2.258,-1.242,9.34,0
987,35.369,-97.495,358,32.91,13,360,-2.259,-1.127,9.247,0
988,35.369,-97.495,358.1,32.51,13,359,-2.203,-1.03,8.996,0
989,35.37,-97.495,358.1,32.01,12,359,-2.35,-1.21,8.862,0
990,35.37,-97.495,357.6,31.98,12,359,-2.239,-1.122,8.991,0
991,35.37,-97.495,357.9,31.36,12,360,-2.443,-1.261,9.149,0
992,35.37,-97.495,357.9,31.02,11,360,-2.514,-1.142,9.856,0
993,35.371,-97.495,357.8,31.11,12,359,-2.207,-1.211,9.371,0
994,35.371,-97.495,358.3,30.67,13,358,-2.348,-1.102,9.328,0
995,35.371,-97.495,358.3,30.11,12,357,-2.621,-1.265,9.496,0
996,35.371,-97.495,358,29.91,12,358,-2.307,-1.127,9.072,0
997,35.372,-97.495,357.8,29.54,13,358,-2.302,-1.167,9.103,0
998,35.372,-97.495,357.8,29.31,13,357,-2.445,-0.98,8.928,0
999,35.372,-97.495,357.8,29,12,357,-2.646,-1.427,9.182,0
1000,35.373,-97.495,358.4,28.79,10,357,-2.716,-1.518,8.882,1
1001,35.373,-97.495,359.3,28.68,11,355,-2.714,-1.687,9.193,1
1002,35.373,-97.495,359.4,29.09,10,356,-2.589,-1.763,9.013,1
1003,35.373,-97.495,359.9,28.91,10,355,-2.686,-1.521,8.74,1
1004,35.374,-97.495,359.3,29.32,10,354,-2.709,-1.733,9.193,1
1005,35.374,-97.495,0.2,29.63,9,354,-2.731,-1.622,9.005,1
1006,35.374,-97.495,0.5,29.92,9,353,-2.785,-1.683,8.944,1
1007,35.374,-97.495,359.9,30.18,9,353,-2.715,-1.789,9.129,1
1008,35.375,-97.495,0,30.78,9,354,-2.816,-1.494,8.541,1
1009,35.375,-97.495,0,31.12,11,354,-2.837,-1.613,8.864,1
1010,35.375,-97.495,0.4,31.45,10,353,-2.8,-1.615,8.914,1
1011,35.376,-97.495,0,32.1,10,354,-2.793,-1.571,8.917,1
1012,35.376,-97.495,0.3,32.56,11,354,-2.741,-1.703,8.684,1
1013,35.376,-97.495,359.6,32.781,9,357,-2.834,-1.742,9.056,1
1014,35.376,-97.495,359.6,33.041,11,358,-2.82,-1.621,8.774,1
1015,35.377,-97.495,359.7,33.24,10,359,-2.691,-1.637,8.782,1
1016,35.377,-97.495,359.8,33.74,11,358,-2.338,-1.144,9.433,1
1017,35.377,-97.495,359.8,33.84,11,358,-2.185,-1.055,9.031,1
1018,35.378,-97.495,359.5,33.43,12,358,-2.328,-0.952,9.245,1
1019,35.378,-97.495,359,33.3,13,358,-2.542,-1.286,9.431,0
1020,35.378,-97.495,358.9,33.03,13,357,-2.606,-1.379,8.893,0
1021,35.379,-97.495,359,33.02,13,357,-2.634,-1.575,8.965,0
1022,35.379,-97.495,359.4,32.72,14,356,-2.453,-1.385,9.3,0
1023,35.379,-97.495,359.8,32.57,9,358,-2.435,-1.365,9.53,0
1024,35.379,-97.495,359.8,32.61,7,361,-2.339,-1.357,8.786,0
1026,35.38,-97.495,359.9,32.62,6,362,-2.412,-1.527,9.38,0
1026,35.38,-97.495,359.9,32.62,6,362,-2.412,-1.527,9.38,0
1027,35.38,-97.495,359.8,32.34,6,362,-2.314,-1.228,8.952,0
1028,35.38,-97.495,0,32.77,6,362,-2.327,-1.352,9.199,0
1029,35.38,-97.495,359.9,33.04,7,363,-2.445,-1.398,9.367,0
1030,35.381,-97.495,359.7,33.11,9,364,-2.495,-1.343,9.259,0
1031,35.381,-97.495,359.9,33.13,10,364,-2.192,-1.272,9.533,0
1032,35.381,-97.495,359.7,33.08,10,364,-2.39,-1.372,9.085,0
1033,35.382,-97.495,359.3,33.24,8,366,-2.542,-1.016,9.008,0
1034,35.382,-97.495,359.8,33.05,7,366,-2.476,-1.059,8.932,0
1035,35.382,-97.495,0.1,32.93,6,367,-2.496,-1.067,8.819,0
1036,35.383,-97.495,0.2,32.93,6,366,-2.337,-1.276,9.041,0
1037,35.383,-97.495,0.2,33.02,6,367,-2.319,-1.283,9.121,0
1038,35.383,-97.495,0,33.23,6,367,-2.23,-0.991,9.101,0
1039,35.384,-97.495,0.2,33.08,5,367,-2.178,-0.976,9.168,1
1040,35.384,-97.495,359.9,33.47,5,367,-2.339,-0.968,9.235,1
1041,35.384,-97.495,359.7,33.16,5,367,-2.395,-1.179,9.605,0
1042,35.385,-97.495,359.2,32.97,5,367,-2.373,-0.743,9.212,0
1043,35.385,-97.495,359.9,32.83,5,367,-2.337,-1.222,9.512,0
1044,35.385,-97.495,359.9,32.83,4,367,-2.056,-1.211,9.286,0
1045,35.386,-97.495,359.6,32.89,4,367,-2.242,-1.284,9.664,0
1046,35.386,-97.495,359.5,32.01,4,367,-2.454,-0.952,8.863,0
1047,35.386,-97.495,359.6,31.95,4,367,-2.417,-1.181,9.222,0
1048,35.386,-97.495,359.6,31.99,4,367,-2.909,-1.723,8.734,0
1049,35.387,-97.495,0,32.29,4,367,-2.744,-1.837,8.542,0
