time,lat,lng,bearing,spd,acc,alt,accx,accy,accz,stable,
0,35.236,-97.423,359.7,12.77,3,336,-0.01,0.787,10.17,0
1,35.237,-97.423,359.8,11.65,3,336,0.788,0.96,10.115,0
2,35.237,-97.423,359.9,10.43,3,336,-0.291,0.556,9.823,0
3,35.237,-97.423,0.2,8.8701,3,335,0.242,1.048,10.011,0
4,35.237,-97.423,0,7.9401,3,335,-0.057,0.847,9.86,0
5,35.237,-97.423,359.8,6.59,3,335,0.639,1.045,9.828,0
6,35.237,-97.423,0.1,5.7931,3,336,0.08,0.965,9.875,0
7,35.237,-97.423,359.9,4.213,3,336,0.116,0.953,10.057,0
8,35.237,-97.423,0.3,2.9749,3,336,-0.487,0.834,9.872,0
9,35.237,-97.423,0.3,2.9749,3,336,-0.774,0.714,9.77,1
10,35.237,-97.423,0.3,2.9749,3,336,-0.901,0.652,9.834,1
11,35.237,-97.424,0,0,3,335,-1.031,0.608,9.679,1
12,35.237,-97.424,0,0,3,335,-4.568,-0.68,9.192,0
13,35.237,-97.424,359.1,2.6903,3,335,-2.728,-0.285,9.428,0
14,35.237,-97.424,1,4.83,3,335,-2.322,-0.059,9.468,0
15,35.237,-97.424,0.3,6.94,3,335,-1.83,-0.16,9.585,0
16,35.237,-97.424,359.1,8.77,3,335,-1.643,0.047,9.567,0
17,35.237,-97.424,359.5,9.82,3,335,-1.18,0.53,9.647,0
18,35.237,-97.424,359.5,10.7,3,335,-1.581,0.065,9.688,0
19,35.237,-97.424,0.4,11.8,3,335,-1.506,0.085,9.758,0
20,35.238,-97.424,359.8,13.06,3,336,-1.506,0.127,9.859,0
21,35.238,-97.424,359.5,14.02,3,335,-1.463,0.149,9.779,0
22,35.238,-97.424,359.3,14.95,3,335,-1.575,0.245,9.548,0
23,35.238,-97.424,359.2,15.78,3,335,-1.64,0.109,9.648,0
24,35.238,-97.424,359.2,16.831,3,336,-1.588,0.235,9.513,0
25,35.238,-97.424,359.3,17.95,3,336,-1.482,0.169,9.497,0
26,35.238,-97.424,359.5,18.801,3,336,-1.078,0.294,9.612,0
27,35.239,-97.424,359.3,19.69,3,336,-0.847,0.673,9.868,0
28,35.239,-97.424,359.6,19.97,3,336,-0.814,0.301,9.793,0
29,35.239,-97.424,359.8,20.19,3,336,-0.338,0.761,9.724,0
30,35.239,-97.424,359.8,20.18,3,337,-0.519,0.46,9.712,0
31,35.239,-97.424,359.6,20.151,3,337,-0.709,0.51,9.778,0
32,35.24,-97.424,359.6,20.121,3,337,-0.673,0.477,9.804,0
33,35.24,-97.424,359.4,20.143,3,337,-0.501,0.313,9.553,0
34,35.24,-97.424,359.7,20.191,3,337,-0.214,0.632,9.746,0
35,35.24,-97.424,359.4,19.981,3,337,-0.7,0.475,9.428,0
36,35.24,-97.424,359.7,19.96,3,337,-0.702,0.532,9.615,0
37,35.24,-97.424,359.6,19.95,3,337,-0.596,0.296,9.965,0
38,35.241,-97.424,359.8,20.04,3,338,-0.729,0.546,9.446,0
39,35.241,-97.424,359.7,20.17,3,337,-0.664,0.572,9.606,0
40,35.241,-97.424,359.7,20.39,3,336,-0.682,0.517,9.577,0
41,35.241,-97.424,359.7,20.62,3,336,-0.736,0.574,9.975,0
42,35.241,-97.424,359.7,20.9,4,334,-0.121,0.541,9.734,1
43,35.242,-97.424,359.6,21.06,4,333,-0.189,0.451,10.14,0
44,35.242,-97.424,359.5,20.88,3,334,-0.172,0.878,9.382,0
45,35.242,-97.424,359.5,20.71,3,335,-0.259,0.569,9.64,0
46,35.242,-97.424,359.8,20.591,3,334,-0.275,0.577,9.928,0
47,35.242,-97.424,359.6,20.552,3,335,-0.342,0.615,9.982,0
48,35.243,-97.424,359.2,20.572,3,334,-0.201,0.907,9.644,0
50,35.243,-97.424,359.4,20.661,3,333,-0.345,0.894,9.826,0
50,35.243,-97.424,359.4,20.661,3,333,-0.345,0.894,9.826,0
51,35.243,-97.424,359.4,20.603,3,333,-0.232,1.018,10.06,0
52,35.243,-97.424,359.8,20.601,3,332,-0.23,0.876,10.005,0
53,35.243,-97.424,0.2,20.341,3,332,-0.215,0.655,10.004,0
54,35.243,-97.424,0.3,20.11,3,332,-0.276,1.133,9.56,0
55,35.244,-97.424,0.6,20.05,3,333,-0.273,0.843,9.686,0
56,35.244,-97.424,0.9,19.65,3,333,-0.334,0.81,9.878,0
57,35.244,-97.424,1.3,19.49,3,333,-0.37,0.577,9.778,0
58,35.244,-97.424,1.5,19.41,3,333,-0.496,0.755,9.799,0
59,35.244,-97.423,1.3,19.38,3,333,-0.384,0.596,9.752,0
60,35.244,-97.423,1.3,19.36,3,333,-0.578,0.365,10.02,0
61,35.245,-97.423,1.5,19.49,3,334,-0.753,0.624,9.977,0
62,35.245,-97.423,1.6,19.48,3,334,-0.647,0.48,10.047,0
63,35.245,-97.423,2,19.592,3,333,-0.365,0.571,10.234,0
64,35.245,-97.423,2.3,19.641,3,333,-0.241,0.635,9.663,0
65,35.245,-97.423,2.2,19.351,3,333,-0.196,0.693,9.703,0
66,35.246,-97.423,2.2,18.771,3,334,-0.235,0.648,9.852,0
67,35.246,-97.423,2.5,18.1,3,334,-0.109,0.637,9.507,0
68,35.246,-97.423,2.2,17.65,4,334,-0.092,0.489,9.778,0
69,35.246,-97.423,2.1,17.31,4,334,-0.354,0.863,10.081,0
70,35.246,-97.423,2.3,16.7,4,334,-0.129,0.571,9.855,0
71,35.246,-97.423,2.4,16.42,4,336,0.032,0.758,9.674,0
72,35.247,-97.423,2.1,15.601,3,335,1.394,0.876,10.223,0
73,35.247,-97.423,1.5,14.061,3,334,1.478,0.948,9.855,0
74,35.247,-97.423,0.4,12.371,3,334,0.839,0.902,10.191,0
75,35.247,-97.423,359.5,10.931,3,333,1.836,1.395,10.001,0
76,35.247,-97.423,359.8,8.8813,3,333,2.11,1.41,10.068,0
77,35.247,-97.423,359.7,6.6306,3,333,1.508,1.238,10.012,0
78,35.247,-97.423,359.7,4.9805,3,333,0.562,0.942,9.887,0
79,35.247,-97.423,358.8,4.22,3,334,0.744,1.049,10.002,0
80,35.247,-97.423,358.4,3.3904,3,334,0.347,0.819,9.845,0
81,35.247,-97.423,358.3,2.6207,3,334,1.149,1.151,9.942,0
82,35.247,-97.423,354.2,1.7307,3,334,0.566,0.949,9.965,0
83,35.247,-97.423,358,0.64,3,335,0.326,0.839,9.882,0
84,35.247,-97.423,358,0.64,3,335,-0.059,0.724,9.846,1
85,35.247,-97.423,0,0,3,334,-0.043,0.731,9.792,1
86,35.247,-97.423,0,0,3,334,-0.058,0.714,9.78,1
87,35.247,-97.423,0,0,3,334,-2.591,-0.182,9.584,1
88,35.247,-97.423,0.2,1.1404,3,333,-2.737,-0.249,9.576,0
89,35.247,-97.423,359.4,4.0815,3,333,-2.249,-0.219,9.606,0
90,35.247,-97.423,358.7,6.5834,3,334,-1.879,0.002,9.7,1
91,35.247,-97.423,358.4,8.5639,3,334,-1.763,0.166,9.748,0
92,35.247,-97.423,358.1,10.523,3,334,-1.467,0.112,9.896,0
93,35.248,-97.423,358,12.094,3,333,-1.295,0.164,9.762,0
94,35.248,-97.423,357.8,13.453,3,333,-1.429,0.424,9.587,0
95,35.248,-97.423,357.8,14.702,3,332,-1.492,0.146,9.815,0
96,35.248,-97.423,357.8,15.591,3,332,-1.352,-0.082,10.069,0
97,35.248,-97.423,357.1,16.74,3,332,-0.775,0.562,9.896,0
98,35.248,-97.423,356.3,17.36,3,332,-1.006,0.498,9.788,0
99,35.248,-97.423,355.9,17.87,3,332,-1.024,0.75,10.154,0
100,35.249,-97.424,356.3,18.44,3,332,-0.996,0.746,10,0
101,35.249,-97.424,357.3,18.821,3,333,-0.736,0.717,9.922,0
102,35.249,-97.424,357.9,18.971,3,334,-0.979,0.433,9.525,0
103,35.249,-97.424,358.1,19.083,3,334,-0.949,0.518,9.855,1
104,35.249,-97.424,358.2,19.312,3,335,-0.88,0.567,9.762,0
105,35.249,-97.424,358.5,19.621,3,335,-1.087,0.332,9.74,0
106,35.25,-97.424,358.4,19.981,3,335,-0.665,0.511,9.906,0
107,35.25,-97.424,358.3,20.31,3,334,-0.515,0.625,9.551,1
109,35.25,-97.424,358.2,20.61,3,334,-0.436,0.777,9.49,0
109,35.25,-97.424,358.2,20.61,3,334,-0.436,0.777,9.49,0
110,35.25,-97.424,358.3,20.62,3,334,-0.473,0.713,9.721,0
111,35.25,-97.424,358.7,20.691,3,335,-0.462,0.765,9.516,0
112,35.251,-97.424,359,20.842,3,335,-0.511,0.765,9.787,0
113,35.251,-97.424,359.3,21.032,3,334,-0.19,0.624,10.018,0
114,35.251,-97.424,359.8,21.131,3,334,-0.149,0.544,10.037,0
115,35.251,-97.424,359.8,20.99,3,334,-0.368,0.574,9.958,0
116,35.251,-97.424,359.8,20.67,3,334,-0.518,0.563,10.096,0
117,35.252,-97.424,0,20.47,3,334,-0.388,0.63,9.849,0
118,35.252,-97.424,0,20.253,3,334,-0.571,0.473,9.917,0
119,35.252,-97.424,0.3,20.054,3,335,-0.508,0.561,9.884,0
120,35.252,-97.424,0.7,19.971,3,335,-0.692,0.583,9.648,0
121,35.252,-97.424,0,19.369,3,336,-1.056,0.701,9.67,0
122,35.252,-97.424,0.2,19.269,3,338,-0.967,0.613,9.781,0
123,35.253,-97.424,0.2,19.3,3,339,-0.979,0.573,9.793,0
124,35.253,-97.424,0.6,19.34,3,339,-0.957,0.412,9.369,0
125,35.253,-97.424,1.1,19.428,3,339,-0.925,0.374,9.361,0
126,35.253,-97.424,1.1,19.536,3,340,-0.952,0.15,9.438,0
127,35.253,-97.424,1,19.764,3,341,-0.948,0.44,9.662,0
128,35.254,-97.424,0.4,20.023,3,341,-0.949,0.347,9.724,0
129,35.254,-97.424,0.2,20.451,3,341,-0.525,0.482,9.799,0
130,35.254,-97.424,359.9,20.753,3,341,-0.433,0.628,9.772,0
131,35.254,-97.424,359.7,20.852,3,341,-0.755,0.651,9.541,0
132,35.254,-97.424,359.5,20.622,3,342,-0.357,0.547,9.27,0
133,35.255,-97.424,359.6,20.73,3,343,-0.4,0.438,9.856,1
134,35.255,-97.424,359.3,20.76,3,343,-0.462,0.567,9.889,0
135,35.255,-97.424,359,20.8,3,343,-0.347,0.559,9.757,0
136,35.255,-97.424,358.8,20.882,3,343,-0.303,0.666,9.375,0
137,35.255,-97.424,358.6,20.943,3,342,-0.74,0.52,9.566,0
138,35.256,-97.424,358.4,21.443,3,342,-0.292,0.701,9.431,0
139,35.256,-97.424,358.5,21.704,3,341,-0.255,0.813,9.602,0
140,35.256,-97.424,358.8,21.734,3,341,-0.249,1.003,9.413,0
141,35.256,-97.424,359.4,21.756,3,340,-0.286,0.707,11.106,0
142,35.256,-97.424,359.4,21.783,3,340,-0.419,0.635,9.626,0
143,35.257,-97.424,359.4,21.874,3,339,-0.634,0.6,11.005,0
144,35.257,-97.424,359.5,22.206,3,339,-0.29,1.048,9.935,0
145,35.257,-97.424,359.7,22.276,3,338,0.028,0.668,10.257,0
146,35.257,-97.424,359.7,22.255,3,337,0.007,0.839,9.726,0
147,35.257,-97.424,359.4,22.275,3,336,-0.185,0.592,10.217,0
148,35.258,-97.424,359.3,22.264,3,335,-0.155,0.603,9.298,0
149,35.258,-97.424,359,22.373,3,335,-0.126,0.72,9.79,0
150,35.258,-97.424,359.2,22.315,3,334,-0.174,0.471,9.908,0
151,35.258,-97.424,359.1,22.482,3,334,-0.133,0.762,9.613,0
152,35.258,-97.424,359.3,22.406,3,333,-0.021,0.864,9.972,0
153,35.259,-97.424,359.4,22.44,3,332,-0.253,0.729,10.076,0
154,35.259,-97.424,359.4,22.469,3,331,-0.153,0.752,9.444,0
155,35.259,-97.424,359.5,22.556,3,330,-0.172,0.688,9.707,0
156,35.259,-97.424,359.5,22.584,3,329,-0.19,0.737,9.942,0
157,35.259,-97.424,359.5,22.523,3,329,-0.208,0.8,9.543,0
158,35.26,-97.424,359.5,22.483,3,328,1.549,1.242,10.234,0
159,35.26,-97.424,359.5,21.833,3,326,1.284,1.3,10.134,0
160,35.26,-97.424,359.8,20.223,3,326,1.196,1.318,10.46,0
161,35.26,-97.424,359.5,18.95,3,326,0.997,1.027,9.971,0
162,35.26,-97.424,0.2,17.421,3,325,-0.175,0.756,9.668,0
163,35.26,-97.424,359.9,16.97,3,325,-0.171,0.531,9.54,0
164,35.261,-97.424,0.1,16.862,3,325,0.822,1.067,10.028,0
165,35.261,-97.424,0,16.481,3,324,-0.128,0.571,9.761,0
166,35.261,-97.424,0,15.761,3,323,-0.734,0.514,9.923,0
167,35.261,-97.424,359.9,15.972,3,323,-0.849,0.211,10.424,0
168,35.261,-97.424,359.7,16.442,3,322,-0.813,0.532,9.604,0
169,35.261,-97.424,359.6,16.9,3,322,-0.82,0.389,10.231,0
170,35.261,-97.424,359.5,17.401,3,319,-0.292,0.788,9.763,0
171,35.262,-97.424,359.2,17.56,3,320,-0.491,0.67,10.079,0
173,35.262,-97.424,359.3,17.44,3,320,-0.568,0.748,10.15,0
173,35.262,-97.424,359.3,17.44,3,320,-0.568,0.748,10.15,0
174,35.262,-97.424,359.4,17.48,3,320,-0.76,0.437,9.435,0
175,35.262,-97.424,0,17.6,3,321,-0.763,0.279,10.006,0
176,35.262,-97.424,0.2,17.961,3,321,-0.89,0.273,10.023,0
177,35.262,-97.424,359.9,18.49,3,321,-0.969,0.453,9.741,0
178,35.263,-97.424,359.6,19.02,3,321,-0.999,0.499,9.868,0
179,35.263,-97.424,359.3,19.64,3,321,-0.941,0.386,9.911,0
180,35.263,-97.424,359.4,20.261,3,320,-0.589,0.593,9.565,0
181,35.263,-97.424,359.4,20.921,3,319,-0.598,0.582,9.894,0
182,35.263,-97.424,359.6,21.322,3,318,-0.804,0.575,10.309,0
183,35.264,-97.424,0,21.651,3,318,-0.942,0.651,9.786,0
184,35.264,-97.424,0.7,22.06,3,317,-0.864,0.407,9.924,0
185,35.264,-97.424,1.2,22.46,3,317,-0.299,0.233,10.343,0
186,35.264,-97.424,1.5,22.73,3,317,-0.59,0.32,9.826,0
187,35.264,-97.424,0.5,22.69,3,318,-0.506,0.101,9.97,0
188,35.265,-97.424,0,22.81,3,318,-0.769,0.296,9.825,0
189,35.265,-97.424,359.7,22.99,3,318,-0.82,0.479,9.894,0
190,35.265,-97.424,359.4,23.242,3,319,-0.849,0.588,9.589,0
191,35.265,-97.424,359.4,23.423,3,319,-0.78,0.503,8.814,0
192,35.265,-97.424,359.3,23.495,3,318,-0.723,0.695,9.596,0
193,35.266,-97.424,359.6,23.544,3,320,-0.176,0.59,9.651,0
194,35.266,-97.424,359.8,23.344,3,320,-0.35,0.436,9.352,0
195,35.266,-97.424,0.3,22.872,3,320,-0.492,0.419,9.215,0
196,35.266,-97.424,0.3,22.541,3,320,-0.416,0.16,9.297,0
197,35.267,-97.424,359.8,22.52,3,320,-0.392,0.37,9.503,1
198,35.267,-97.424,359.8,22.651,3,320,-0.37,0.518,10.07,0
199,35.267,-97.424,359.8,22.831,3,320,-0.429,0.337,9.96,0
200,35.267,-97.424,359.9,22.961,3,319,-0.355,0.529,9.97,0
201,35.267,-97.424,0,22.93,3,320,-0.201,0.517,10.224,0
202,35.268,-97.424,359.8,22.71,3,319,-0.24,0.19,9.886,0
203,35.268,-97.424,0,22.5,3,319,-0.429,0.543,9.955,0
204,35.268,-97.424,0,22.261,3,320,-0.333,0.833,9.274,0
205,35.268,-97.424,0.1,22.111,3,320,-0.312,0.501,9.589,0
206,35.268,-97.424,0.5,21.861,3,320,-0.417,0.404,9.737,0
207,35.269,-97.424,0.3,21.502,3,321,-0.453,0.591,9.559,0
208,35.269,-97.424,0,21.293,3,321,-0.554,0.535,9.417,0
209,35.269,-97.424,0.5,21.22,3,321,-0.499,0.34,10.108,0
210,35.269,-97.424,0.4,21.24,3,321,-0.469,0.56,9.312,0
211,35.269,-97.424,0,21.38,3,321,-0.623,0.623,9.818,0
212,35.27,-97.424,359.8,21.641,3,321,-0.301,0.608,10.014,0
213,35.27,-97.424,359.7,21.802,3,320,-0.282,0.646,9.788,0
214,35.27,-97.424,359.5,21.84,3,320,-0.334,0.573,10.228,0
215,35.27,-97.424,359.4,21.98,3,320,-0.116,0.702,9.8,0
216,35.27,-97.424,359.9,22.027,3,319,-0.229,0.896,9.663,0
217,35.271,-97.424,359.9,22.137,3,318,-0.015,0.759,9.989,0
218,35.271,-97.424,359.5,22.133,3,317,-0.09,0.772,9.38,0
219,35.271,-97.424,0,22.494,3,315,-0.208,0.815,9.57,0
220,35.271,-97.424,0.1,22.666,3,314,-0.17,0.736,10.042,0
221,35.271,-97.424,0,23.018,3,312,-0.179,0.837,9.309,0
222,35.272,-97.424,0.3,23.108,3,310,-0.099,0.861,10.06,0
223,35.272,-97.424,0.4,23.345,3,308,-0.143,0.618,9.9,0
224,35.272,-97.424,0.4,23.47,3,306,-0.047,0.429,9.809,0
225,35.272,-97.424,0.2,23.699,3,306,-0.207,0.541,10.188,0
226,35.272,-97.424,359.9,23.768,3,305,-0.022,0.704,9.753,0
227,35.273,-97.424,359.7,23.853,3,304,-0.086,0.404,10.418,0
228,35.273,-97.424,359.4,23.77,3,304,-0.316,0.762,9.948,0
229,35.273,-97.424,359.6,23.581,3,303,-0.21,0.598,10.189,0
230,35.273,-97.424,359.6,23.341,3,302,-0.173,0.975,10.172,0
231,35.274,-97.424,359.7,23,3,303,-0.177,0.999,10.03,0
232,35.274,-97.424,359.8,22.59,3,303,-0.343,0.781,10.162,0
233,35.274,-97.424,0.2,22.201,3,303,-0.144,0.926,9.205,0
234,35.274,-97.424,0.3,21.781,3,303,-0.255,0.868,10.034,0
235,35.274,-97.424,0.3,21.45,3,303,-0.178,0.47,10.142,0
237,35.275,-97.424,0.5,21.15,3,303,1.212,1.228,9.131,0
237,35.275,-97.424,0.5,21.15,3,303,1.212,1.228,9.131,0
238,35.275,-97.424,0.9,20.29,3,302,1.251,1.152,9.745,0
239,35.275,-97.424,0.8,18.692,3,301,1.3,0.927,10.024,0
240,35.275,-97.424,0.8,17.116,3,301,1.519,1.271,10.417,0
241,35.275,-97.424,0.7,15.451,3,301,1.7,1.39,10.196,0
242,35.275,-97.424,0.9,13.461,3,300,1.872,1.422,10.212,0
243,35.275,-97.424,1.6,11.231,3,300,0.194,0.636,9.924,0
244,35.275,-97.424,1.4,9.4802,3,300,0.043,0.686,9.959,0
245,35.276,-97.424,1.4,8.8201,3,300,0.453,0.94,9.741,0
246,35.276,-97.424,1.4,8.2,3,300,0.33,0.864,9.824,0
247,35.276,-97.424,1.2,7.24,3,300,0.332,0.785,9.877,0
248,35.276,-97.424,1.2,6.3005,3,300,0.079,0.79,9.915,0
249,35.276,-97.424,0.8,5.5001,3,299,0.019,0.795,9.777,0
250,35.276,-97.424,359.6,4.9001,3,300,0.028,0.742,9.616,0
251,35.276,-97.424,359.3,4.3102,3,300,0.079,0.765,9.941,0
252,35.276,-97.424,0.3,3.7201,3,301,0.022,0.73,9.912,0
253,35.276,-97.424,0.3,3.1223,3,300,0.262,0.814,9.88,0
254,35.276,-97.424,0.8,2.5002,3,300,-0.243,0.646,9.869,0
255,35.276,-97.424,1,1.69,3,301,-0.18,0.572,9.901,0
256,35.276,-97.424,1.1,1.2804,3,301,0.274,0.836,9.911,0
257,35.276,-97.424,1.1,1.2804,3,301,-0.412,0.615,9.937,1
258,35.276,-97.424,1.1,1.2804,3,301,-0.487,0.545,9.863,1
259,35.276,-97.424,1.1,1.2804,3,301,-0.479,0.562,9.786,1
260,35.276,-97.424,1.1,1.2804,3,301,-0.475,0.568,9.771,1
261,35.276,-97.424,1.1,1.2804,3,301,-0.472,0.564,9.732,1
262,35.276,-97.424,1.1,1.2804,3,301,-0.497,0.552,9.741,1
263,35.276,-97.424,1.1,1.2804,3,301,-0.466,0.552,9.878,1
264,35.276,-97.424,1.1,1.2804,3,301,-0.463,0.533,9.77,1
265,35.276,-97.424,0,0,3,303,-0.731,0.466,9.807,1
266,35.276,-97.424,0,0,3,303,-0.859,0.416,9.773,1
267,35.276,-97.424,0,0,3,303,-2.169,0.002,9.669,1
268,35.276,-97.424,357.9,1.5938,3,303,-1.897,0.051,9.79,0
269,35.276,-97.424,0.4,3.24,3,304,-2.084,-0.152,9.613,1
270,35.276,-97.424,0,4.83,3,304,-1.951,-0.236,9.635,0
271,35.276,-97.424,0.3,6.44,3,303,-1.626,0.136,9.965,0
272,35.276,-97.424,359.4,7.7313,3,302,-1.642,0.21,9.734,0
273,35.276,-97.424,359.5,8.8404,3,302,-1.712,0.388,9.855,0
274,35.276,-97.424,359.8,9.9801,3,303,-1.548,-0.066,9.536,0
275,35.276,-97.424,359.7,11.17,3,302,-1.897,0.025,9.878,0
276,35.277,-97.424,359.8,12.501,3,302,-1.912,0.122,9.509,0
277,35.277,-97.424,359.3,13.81,3,302,-1.913,0.023,9.596,0
278,35.277,-97.424,359.1,15.19,3,302,-1.923,0.086,9.386,0
279,35.277,-97.424,359.1,16.481,3,301,-1.9,0.07,9.501,0
280,35.277,-97.424,359,17.761,3,304,-1.587,0.371,10.195,0
281,35.277,-97.424,359.3,18.801,3,303,-1.077,0.26,9.533,0
282,35.278,-97.424,359.6,19.432,3,304,-1.15,0.205,9.933,0
283,35.278,-97.424,359.6,19.914,3,304,-1.277,0.179,9.845,0
284,35.278,-97.424,0.1,20.465,3,304,-1.13,0.194,9.575,0
285,35.278,-97.424,359.9,20.838,3,304,-1.061,0.456,9.405,0
286,35.278,-97.424,359.9,21.197,3,305,-1.332,0.277,9.699,0
287,35.278,-97.424,0.1,21.499,3,306,-1.22,0.188,9.746,0
288,35.279,-97.424,0.1,21.849,3,307,-0.8,0.427,9.702,0
289,35.279,-97.424,0.1,21.618,3,308,-0.938,0.167,10.004,0
290,35.279,-97.424,0,21.626,3,310,-1.012,0.603,9.773,0
291,35.279,-97.424,359.9,21.57,3,309,-1.051,0.56,9.649,0
292,35.279,-97.424,0.2,21.649,3,310,-0.957,0.269,10.178,0
293,35.28,-97.424,0.5,21.953,3,310,-1.008,0.124,9.51,1
294,35.28,-97.424,0.3,22.213,3,311,-0.753,0.44,9.717,0
295,35.28,-97.424,0.3,22.601,3,311,-0.664,0.159,9.619,0
296,35.28,-97.424,0.3,22.82,3,312,-0.715,0.251,9.876,0
297,35.28,-97.424,0.1,23.12,3,312,-0.247,0.357,10.131,0
298,35.281,-97.424,359.9,23.18,3,312,-0.381,0.563,10.138,0
299,35.281,-97.424,359.7,22.99,3,312,-0.489,0.637,9.895,0
300,35.281,-97.424,359.8,22.92,3,313,-0.274,0.446,9.825,0
301,35.281,-97.424,359.8,22.88,3,313,-0.175,0.607,9.725,0
302,35.281,-97.424,359.9,22.56,3,314,-0.199,0.696,9.964,0
303,35.282,-97.424,359.9,22.18,3,314,-0.311,0.571,10.168,0
305,35.282,-97.424,0.1,21.81,3,315,-0.628,0.234,9.046,0
305,35.282,-97.424,0.1,21.81,3,315,-0.628,0.234,9.046,0
306,35.282,-97.424,0.1,21.78,3,315,-0.831,0.35,9.788,0
307,35.282,-97.424,0.1,22.1,3,314,-0.713,0.507,9.729,0
308,35.282,-97.424,0.1,22.41,9,314,-0.676,0.423,9.994,0
309,35.283,-97.424,0,22.62,9,314,-0.263,0.598,9.618,0
310,35.283,-97.424,0,22.79,9,314,-0.457,0.652,9.976,0
311,35.283,-97.424,359.9,22.64,9,314,-0.493,0.501,9.552,0
312,35.283,-97.424,359.8,22.581,9,315,-0.367,0.467,9.771,0
313,35.283,-97.424,0.1,22.44,9,314,-0.467,0.561,9.506,0
314,35.284,-97.424,0.2,22.4,9,314,-0.471,0.401,9.86,0
315,35.284,-97.424,0.4,22.4,9,314,-0.11,0.509,9.558,0
316,35.284,-97.424,359.2,22.44,9,315,-0.379,0.769,9.78,0
317,35.284,-97.424,0.1,22.392,9,314,-0.115,0.6,9.479,0
318,35.285,-97.424,0.1,22.38,9,314,-0.109,0.528,9.677,0
319,35.285,-97.424,0.2,22.332,9,313,-0.263,0.508,10.103,0
320,35.285,-97.424,359.8,22.171,9,312,-0.231,0.697,9.571,0
321,35.285,-97.424,359.7,22.101,9,312,-0.577,0.601,9.844,0
322,35.285,-97.424,0,21.85,9,312,-0.39,0.499,9.828,0
323,35.286,-97.424,0.1,21.84,9,312,-0.708,0.442,9.781,0
324,35.286,-97.424,0.2,22.121,9,312,-0.452,0.409,10.061,0
325,35.286,-97.424,0.2,22.312,9,311,-0.4,0.551,10.124,0
326,35.286,-97.424,0.3,22.451,9,310,-0.358,0.454,9.892,0
327,35.286,-97.424,0.2,22.54,9,309,-0.099,0.649,9.696,0
328,35.287,-97.424,359.8,22.49,9,308,-0.306,0.759,10.011,0
329,35.287,-97.424,0,21.94,9,308,-0.4,0.632,9.826,0
330,35.287,-97.424,0.3,21.77,9,308,-0.424,0.544,9.799,0
331,35.287,-97.424,0.1,21.591,9,308,-0.515,0.371,10.329,0
332,35.287,-97.424,0.3,21.52,9,308,-0.45,0.356,9.637,0
333,35.288,-97.424,0.1,21.371,9,308,-0.653,0.341,9.895,0
334,35.288,-97.424,0,21.361,9,309,-0.61,0.362,9.842,0
335,35.288,-97.424,0,21.401,9,309,-0.585,0.441,9.919,0
336,35.288,-97.424,0.2,21.431,9,310,-0.611,0.499,9.542,0
337,35.288,-97.424,0.1,21.392,9,310,-0.152,0.631,9.871,0
338,35.289,-97.424,0,21.091,9,311,-0.193,0.631,9.767,0
339,35.289,-97.424,359.8,20.612,9,323,-0.19,0.65,9.752,0
340,35.289,-97.424,359.8,20.171,9,319,-0.166,0.726,9.962,0
341,35.289,-97.424,359.9,19.561,9,317,0.522,1.103,9.818,0
342,35.289,-97.424,0.4,18.27,9,316,0.621,0.957,10.3,0
343,35.29,-97.424,0.4,17.071,9,316,0.539,1.021,9.938,0
344,35.29,-97.424,0.7,15.96,9,316,-0.155,0.748,9.571,0
345,35.29,-97.424,1.9,15.4,9,315,0.266,0.829,10.092,0
346,35.29,-97.424,1.9,14.561,9,315,1.296,0.858,10.158,0
347,35.29,-97.424,1.6,12.89,9,314,1.238,1.016,10.244,0
348,35.29,-97.424,1,10.94,9,315,1.14,1.148,10.105,0
349,35.29,-97.424,0.5,9.0904,9,315,0.648,0.949,10.001,0
350,35.29,-97.424,0.4,7.6,9,320,0.088,0.89,9.78,0
351,35.29,-97.424,0.6,6.52,9,318,-1.756,0.213,9.755,0
352,35.29,-97.424,0.2,6.5406,9,317,-1.957,0.189,9.607,0
353,35.29,-97.424,359.7,7.8506,9,317,-1.785,0.303,9.705,0
354,35.291,-97.424,0,9.0714,9,316,-1.66,0.177,9.531,0
355,35.291,-97.424,0.3,10.19,9,316,-1.682,0.109,9.591,0
356,35.291,-97.424,0.3,11.38,9,316,-1.613,-0.014,9.853,0
357,35.291,-97.424,0.1,12.52,9,316,-1.511,0.175,9.843,0
358,35.291,-97.424,0.1,13.59,9,315,-1.511,0.108,10.036,0
359,35.291,-97.424,359.8,14.66,9,314,-1.402,-0.074,9.966,0
360,35.291,-97.424,359.4,15.711,9,319,-1.573,0.131,9.642,0
361,35.291,-97.424,359,16.741,9,318,-1.414,0.041,9.549,0
362,35.292,-97.424,358.6,17.841,9,317,-1.543,0.341,9.873,0
363,35.292,-97.424,358.5,18.82,9,317,-0.905,0.642,9.924,0
364,35.292,-97.424,358.9,19.72,9,317,-1.105,0.931,9.677,0
365,35.292,-97.424,359.8,20.2,9,317,-0.962,0.221,9.514,0
366,35.292,-97.424,0.5,20.7,9,317,-0.978,0.235,9.409,0
367,35.292,-97.424,0.1,19.872,9,318,-1.125,0.074,9.414,0
368,35.293,-97.424,0.5,21.8,9,318,-0.745,0.316,9.979,0
369,35.293,-97.424,0,22.11,9,319,-0.802,0.323,9.761,0
370,35.293,-97.424,0.2,22.251,9,322,-0.722,0.509,9.798,0
371,35.293,-97.424,0.1,22.451,9,321,-0.353,0.364,9.856,0
373,35.293,-97.424,0.2,22.481,9,321,-0.52,0.363,10.003,0
373,35.293,-97.424,0.2,22.481,9,321,-0.52,0.363,10.003,0
374,35.294,-97.424,0.2,22.301,9,321,-0.474,0.372,9.907,0
375,35.294,-97.424,0.1,22.141,9,321,-0.512,0.478,9.594,0
376,35.294,-97.424,0.2,22.021,9,321,-0.406,0.488,9.871,0
377,35.294,-97.424,0.3,21.881,9,322,-0.463,0.43,9.791,0
378,35.294,-97.424,0.2,21.761,9,322,-0.754,0.287,9.518,0
379,35.295,-97.424,0.1,21.731,9,323,-0.73,0.386,9.974,0
380,35.295,-97.424,359.9,21.763,9,323,-0.725,0.412,9.416,0
381,35.295,-97.424,0,21.901,9,324,-0.734,0.534,9.888,0
382,35.295,-97.424,0.1,21.971,9,324,-0.645,0.426,9.83,0
383,35.295,-97.424,0.2,22.031,9,325,-0.645,0.441,9.85,0
384,35.296,-97.424,0.2,22.081,9,325,-0.659,0.606,10.226,0
385,35.296,-97.424,0.1,22.092,9,326,-0.656,0.25,9.518,0
386,35.296,-97.424,0.2,22.181,9,326,-0.509,0.405,9.871,0
387,35.296,-97.424,0.2,22.151,9,325,-0.593,0.456,9.669,0
388,35.296,-97.424,0.2,22.001,9,326,-0.592,0.378,9.844,0
389,35.297,-97.424,0.2,22.051,9,327,-0.563,0.605,9.405,0
390,35.297,-97.424,0.3,22.14,9,327,-0.634,0.607,9.586,0
391,35.297,-97.424,0.1,22.3,9,326,-0.742,0.575,9.912,0
392,35.297,-97.424,0.2,22.5,9,326,-0.297,0.48,10.153,0
393,35.297,-97.424,0.2,22.72,9,326,-0.529,0.582,9.862,0
394,35.298,-97.424,0.3,22.71,9,326,-0.593,0.435,9.49,0
395,35.298,-97.424,0.3,22.66,9,326,-0.508,0.371,9.402,0
396,35.298,-97.424,0.1,22.691,9,326,-0.635,0.383,10.06,0
397,35.298,-97.424,0.1,22.731,9,327,-0.533,0.588,9.75,0
398,35.298,-97.424,0,22.741,9,328,-0.778,0.561,9.921,0
399,35.299,-97.424,0.3,22.731,9,328,-0.44,0.414,10.057,0
400,35.299,-97.424,0.4,22.741,9,330,-0.536,0.3,9.665,0
401,35.299,-97.424,0.3,22.682,9,330,-0.56,0.243,9.767,0
402,35.3,-97.424,359.9,22.653,9,330,-0.584,0.251,9.912,0
403,35.3,-97.424,359.9,22.593,9,331,-0.455,0.574,10.018,0
404,35.3,-97.424,0,22.462,9,331,-0.503,0.373,9.681,0
405,35.3,-97.424,0.2,22.355,9,332,-0.57,0.474,9.728,0
406,35.3,-97.424,0.4,22.342,9,332,-0.628,0.394,9.848,0
407,35.301,-97.424,0.3,22.272,9,332,-0.595,0.422,9.652,0
408,35.301,-97.424,0.2,22.222,9,333,-0.507,0.567,9.293,0
409,35.301,-97.424,0.1,22.192,9,333,-0.63,0.495,9.642,0
410,35.301,-97.424,0,22.18,9,330,-0.566,0.548,10.039,0
411,35.301,-97.424,0,22.111,9,332,-0.501,0.557,9.804,0
412,35.301,-97.424,0.3,22.011,9,332,-0.53,0.518,10.01,0
413,35.302,-97.424,0.4,21.942,9,334,-0.55,0.417,9.597,1
414,35.302,-97.424,0.5,21.92,9,335,-0.525,0.535,9.837,0
415,35.302,-97.424,0.3,21.891,9,335,-0.441,0.414,9.84,0
416,35.302,-97.424,0.1,21.87,9,335,-0.617,0.793,9.685,0
417,35.302,-97.424,0.2,21.881,9,336,-0.644,0.814,9.882,0
418,35.303,-97.424,0.1,21.87,9,336,-0.625,0.559,9.667,0
419,35.303,-97.424,0.3,21.88,9,336,-0.536,0.672,9.764,0
420,35.303,-97.424,0.3,21.851,9,333,-0.117,0.642,9.992,0
421,35.303,-97.424,0.3,21.57,9,334,-0.357,0.43,9.646,0
422,35.303,-97.424,0,21.241,9,335,-0.544,0.382,9.952,0
423,35.304,-97.424,0,21.16,9,335,-0.669,0.658,9.66,0
424,35.304,-97.424,0.3,21.13,9,335,-0.721,0.583,9.87,0
425,35.304,-97.424,0.6,21.121,9,336,-0.587,0.665,9.363,0
426,35.304,-97.424,0.5,21.152,9,336,-0.644,0.547,9.588,0
427,35.304,-97.424,0.9,21.25,9,335,-0.469,0.599,9.669,0
428,35.305,-97.424,1.4,21.081,9,335,-0.604,0.354,9.361,1
429,35.305,-97.424,1.3,21.05,9,336,-0.516,0.31,9.629,1
430,35.305,-97.424,0.9,21.15,9,336,-0.4,0.644,9.571,1
431,35.305,-97.424,0.4,21.16,9,336,-0.392,0.657,9.824,1
432,35.305,-97.424,0.3,21.17,9,337,-0.295,0.668,9.692,1
433,35.306,-97.424,0.3,20.97,9,336,-0.376,0.551,9.891,1
434,35.306,-97.424,0.1,20.76,9,336,-0.404,0.327,10.058,0
435,35.306,-97.424,359.4,20.69,9,333,-0.51,0.34,9.71,0
436,35.306,-97.424,358.7,20.67,9,333,-0.714,0.557,9.586,0
437,35.306,-97.424,358.4,20.84,9,333,-0.854,0.577,9.833,0
439,35.307,-97.424,358.7,21.13,9,334,-0.973,0.779,9.832,0
439,35.307,-97.424,358.7,21.13,9,334,-0.973,0.779,9.832,0
440,35.307,-97.424,359.3,21.46,9,334,-0.825,0.627,9.768,0
441,35.307,-97.424,0,21.71,9,336,-0.679,0.501,9.774,0
442,35.307,-97.424,0.2,21.961,9,335,-0.749,0.499,9.914,0
443,35.307,-97.424,0.3,22.111,9,335,-0.339,0.641,9.826,0
444,35.308,-97.424,0.1,22.17,9,335,-0.563,0.516,9.943,0
445,35.308,-97.424,0,22.09,9,334,-0.589,0.536,9.82,0
446,35.308,-97.424,0.1,22.09,9,334,-0.359,0.687,9.488,0
447,35.308,-97.424,0.3,22.07,9,337,-0.538,0.542,9.576,0
448,35.308,-97.424,0,22.07,9,336,-0.522,0.427,9.56,0
449,35.309,-97.424,0.2,22.2,9,335,-0.585,0.235,9.656,0
450,35.309,-97.424,0,22.38,9,335,-0.351,0.706,9.482,0
451,35.309,-97.424,359.7,22.611,9,335,-0.26,0.629,9.816,0
452,35.309,-97.424,359.8,22.581,9,334,-0.303,0.52,9.851,1
453,35.309,-97.424,359.7,22.593,9,333,-0.43,0.589,9.717,1
454,35.31,-97.424,359.6,22.763,9,331,-0.507,0.587,9.724,1
455,35.31,-97.424,359.7,22.881,9,330,-0.514,0.594,9.961,1
456,35.31,-97.424,359.7,23,9,330,-0.395,0.463,9.852,0
457,35.31,-97.424,359.3,22.71,9,337,-0.266,0.439,9.959,0
458,35.31,-97.424,359,22.61,10,335,-0.165,0.757,9.652,0
459,35.311,-97.424,0.2,22.94,9,334,-0.202,0.9,9.946,0
460,35.311,-97.424,0.9,23.13,9,334,-0.202,0.759,9.922,0
461,35.311,-97.424,359.6,22.5,10,333,-0.108,0.584,9.868,0
462,35.311,-97.424,0,22.76,9,333,-0.189,0.517,10.034,0
463,35.311,-97.424,0.4,22.54,9,333,-0.339,0.543,10.179,0
464,35.312,-97.424,0,22.27,9,333,-0.403,0.651,9.762,0
465,35.312,-97.424,0,22.101,9,333,-0.441,0.601,9.789,0
466,35.312,-97.424,0.2,22.02,9,333,-0.44,0.535,9.677,0
467,35.312,-97.424,0,21.97,9,333,-0.548,0.422,9.624,0
468,35.313,-97.424,359.8,22.141,9,332,-0.831,0.453,9.805,0
469,35.313,-97.424,0.4,22.261,9,332,-0.832,0.421,9.705,0
470,35.313,-97.424,0.3,22.76,9,338,-0.69,0.444,9.733,0
471,35.313,-97.424,0.2,23.1,9,336,-0.641,0.398,9.881,0
472,35.313,-97.424,0.1,23.32,9,335,-0.226,0.652,10.1,0
473,35.314,-97.424,359.7,23.16,9,335,-0.179,0.742,9.932,0
474,35.314,-97.424,0.1,22.95,9,335,-0.141,0.705,10.048,0
475,35.314,-97.424,0.3,22.5,9,335,-0.138,0.675,9.928,0
476,35.314,-97.424,0.1,22.21,9,335,-0.198,0.686,9.813,0
477,35.314,-97.424,0.2,21.981,9,334,-0.564,0.523,9.826,0
478,35.315,-97.424,0.1,22.13,9,332,-0.623,0.446,9.66,0
479,35.315,-97.424,0.1,22.23,9,332,-0.667,0.404,9.729,0
480,35.315,-97.424,359.8,22.29,9,332,-0.396,0.465,9.959,0
481,35.315,-97.424,359.8,22.011,9,331,-0.508,0.647,9.938,0
482,35.315,-97.424,0.1,21.921,9,330,-0.709,0.643,9.683,0
483,35.316,-97.424,0.4,22.05,9,329,-0.617,0.35,9.7,0
484,35.316,-97.424,0.2,22.02,9,329,-0.587,0.363,9.849,0
485,35.316,-97.424,359.9,22.021,9,328,-0.604,0.461,9.831,0
486,35.316,-97.424,359.8,22.011,9,328,-0.53,0.56,9.739,0
487,35.316,-97.424,0,22.05,9,328,-0.562,0.488,9.917,0
488,35.317,-97.424,0.1,22.002,9,329,-0.572,0.51,9.636,0
489,35.317,-97.424,0.2,22.021,9,329,-0.47,0.562,9.803,0
490,35.317,-97.424,0.1,22.061,9,338,-0.669,0.361,9.7,0
491,35.317,-97.424,359.7,22.041,9,336,-0.564,0.447,9.929,0
492,35.317,-97.424,359.8,22.041,9,335,-0.631,0.531,9.793,0
493,35.318,-97.424,0,22.031,9,334,-0.537,0.436,9.814,0
494,35.318,-97.424,0,22.022,9,333,-0.681,0.406,9.882,1
495,35.318,-97.424,359.8,22.002,9,330,-0.579,0.632,9.74,0
496,35.318,-97.424,0,21.961,9,331,-0.475,0.601,9.991,0
497,35.318,-97.424,0.3,21.682,9,330,-0.437,0.784,9.808,0
498,35.319,-97.424,0.7,21.322,9,330,-0.499,0.849,10.153,0
499,35.319,-97.424,1.3,21.102,9,331,-0.552,0.556,10.028,0
500,35.319,-97.424,1.3,21,9,331,-0.485,0.454,9.862,0
501,35.319,-97.424,1.2,20.72,9,331,-0.589,0.498,9.91,0
502,35.319,-97.424,0.7,20.503,9,332,-0.489,0.502,9.607,0
503,35.32,-97.424,0.6,20.302,9,331,-0.323,0.469,9.884,0
504,35.32,-97.424,0.3,19.981,9,333,-0.618,0.34,9.91,0
505,35.32,-97.424,0,19.813,9,334,-0.658,0.369,9.656,0
507,35.32,-97.424,359.8,19.743,9,334,-0.765,0.471,9.919,0
507,35.32,-97.424,359.8,19.743,9,334,-0.765,0.471,9.919,0
508,35.32,-97.424,359.5,19.793,9,334,-0.732,0.477,9.767,0
509,35.32,-97.424,359.1,19.892,9,335,-0.742,0.333,9.874,1
510,35.321,-97.424,358.8,19.981,9,336,-0.258,0.592,9.35,0
511,35.321,-97.424,358.5,19.961,9,336,-0.622,0.83,9.118,0
512,35.321,-97.424,358.7,19.861,9,337,-0.734,0.551,9.981,0
513,35.321,-97.424,359.4,19.96,9,338,-0.819,0.526,9.617,0
514,35.321,-97.424,359.7,20.17,9,338,-0.813,0.531,10.012,0
515,35.322,-97.424,359.8,20.351,9,337,-0.744,0.32,9.867,0
516,35.322,-97.424,0.2,20.54,9,337,-0.934,0.471,9.409,0
517,35.322,-97.424,0,20.87,9,337,-0.99,0.219,9.41,0
518,35.322,-97.424,0,21.18,9,337,-0.831,0.235,10.208,0
519,35.322,-97.424,359.9,21.52,9,337,-0.821,0.293,9.963,0
520,35.322,-97.424,359.8,21.891,9,338,-0.933,0.302,9.944,0
521,35.323,-97.424,359.9,22.2,9,340,-0.744,0.665,9.447,0
522,35.323,-97.424,359.9,22.57,9,339,-0.311,0.636,9.496,0
523,35.323,-97.424,359.9,22.61,9,339,-0.391,0.654,10.011,0
524,35.323,-97.424,359.8,22.261,9,339,-0.505,0.642,10.053,0
525,35.323,-97.424,359.6,22.25,9,339,-0.63,0.501,10.231,0
526,35.324,-97.424,0,22.021,9,339,-0.823,0.423,9.582,0
527,35.324,-97.424,0.1,22.031,9,340,-0.905,0.479,9.661,0
528,35.324,-97.424,0,22.14,9,339,-0.837,0.566,9.523,0
529,35.324,-97.424,359.9,22.32,9,339,-0.502,0.544,9.863,0
530,35.324,-97.424,359.9,22.55,9,339,-0.534,0.546,9.904,0
531,35.325,-97.424,359.8,22.66,9,339,-0.68,0.496,9.911,0
532,35.325,-97.424,359.7,22.631,9,339,-0.506,0.625,10.025,0
533,35.325,-97.424,359.8,22.441,9,340,-0.707,0.714,9.692,0
534,35.326,-97.424,0,22.62,9,340,-0.715,0.685,9.679,0
535,35.326,-97.424,0.1,22.62,9,340,-0.569,0.554,9.732,0
536,35.326,-97.424,0.2,22.74,9,340,-0.696,0.597,9.728,0
537,35.326,-97.424,0.2,22.88,9,340,-0.626,0.428,9.826,0
538,35.326,-97.424,0.1,23.07,9,339,-0.612,0.43,9.721,0
539,35.327,-97.424,0,23.32,9,339,-0.197,0.588,10.411,0
540,35.327,-97.424,0.1,23.31,9,339,-0.217,0.66,9.807,0
541,35.327,-97.424,0,23.16,9,338,-0.301,0.53,9.815,0
542,35.327,-97.424,359.9,22.98,9,338,-0.39,0.43,9.787,0
543,35.327,-97.424,359.8,23.04,9,338,-0.438,0.606,9.902,0
544,35.328,-97.424,359.8,22.97,9,338,-0.455,0.821,10.03,0
545,35.328,-97.424,0.1,23.03,9,337,-0.363,0.56,9.728,0
546,35.328,-97.424,0.2,23.07,9,337,-0.292,0.754,9.658,0
547,35.328,-97.424,0.1,23.061,9,336,-0.084,0.731,9.67,0
548,35.328,-97.424,0,22.941,9,336,-0.177,0.655,9.584,0
549,35.329,-97.424,359.8,22.711,9,336,-0.062,0.62,9.657,0
550,35.329,-97.424,359.8,22.44,9,335,-0.098,0.576,9.669,0
551,35.329,-97.424,359.8,22.393,9,335,-0.278,0.656,9.633,0
552,35.329,-97.424,359.3,22.25,9,334,-0.059,0.582,9.964,0
553,35.329,-97.424,0,22.21,9,334,-0.053,0.817,9.997,0
554,35.33,-97.424,359.8,21.71,9,334,-0.192,0.767,10.006,0
555,35.33,-97.424,0,21.922,9,334,-0.665,0.508,9.97,0
556,35.33,-97.424,0,22.051,9,333,-0.671,0.557,10.122,0
557,35.33,-97.424,359.7,22.23,9,332,-0.268,0.826,10.258,0
558,35.33,-97.424,359.5,22.38,9,332,-0.313,0.806,9.965,0
559,35.331,-97.424,359.2,22.18,9,332,-0.588,0.613,9.783,0
560,35.331,-97.424,358.3,22.1,3,338,-0.406,0.699,9.878,0
561,35.331,-97.424,357.1,21.962,3,337,-0.492,0.358,10.114,0
562,35.331,-97.424,355.8,21.623,3,336,-0.669,0.462,9.995,0
563,35.331,-97.424,354.5,21.503,3,335,-0.179,0.7,9.853,0
564,35.332,-97.424,353.3,21.232,3,335,-0.213,0.713,9.877,0
565,35.332,-97.424,352.1,20.653,3,335,-0.78,0.765,10.031,0
566,35.332,-97.424,351,20.282,3,335,-0.811,0.719,9.919,0
567,35.332,-97.424,350.4,20.223,3,336,-0.255,0.625,9.656,0
568,35.332,-97.424,349.7,19.972,3,336,-0.217,0.788,9.677,0
569,35.332,-97.424,348.5,19.451,3,337,-0.178,0.81,9.593,0
570,35.333,-97.424,347.4,18.981,3,338,0.491,1.155,9.79,0
571,35.333,-97.424,348.1,18.77,4,338,1.113,1.171,9.949,0
572,35.333,-97.424,346.1,17.311,4,339,1.022,1.209,10.154,0
573,35.333,-97.424,347.1,15.77,4,338,1.223,1.343,9.876,0
574,35.333,-97.424,345.7,13.69,4,339,0.653,1.315,9.724,0
576,35.333,-97.424,345.1,12.17,4,339,0.106,1.068,9.783,0
576,35.333,-97.424,345.1,12.17,4,339,0.106,1.068,9.783,0
577,35.333,-97.424,344.3,11.03,4,340,-0.317,1.025,9.742,0
578,35.334,-97.424,343.6,10.41,4,340,-0.496,0.862,10.053,0
579,35.334,-97.424,343.1,10.2,4,341,-0.588,0.866,9.705,0
580,35.334,-97.424,342.6,10.16,4,341,-0.362,0.989,9.928,0
581,35.334,-97.424,342,10.12,3,342,-0.297,1.008,9.751,0
582,35.334,-97.424,341.2,9.85,3,342,-0.747,0.893,9.676,0
583,35.334,-97.424,340.4,9.5701,3,341,-0.916,0.67,9.749,0
584,35.334,-97.424,339.7,9.62,3,341,-1.146,0.685,9.61,0
585,35.334,-97.424,339.1,10.11,3,341,-1.143,0.792,9.855,0
586,35.334,-97.424,339,10.89,3,341,-1.215,0.656,9.836,0
587,35.334,-97.425,338.6,11.64,3,340,-1.273,0.695,9.7,0
588,35.334,-97.425,337.8,12.44,3,340,-1.146,0.496,9.805,0
589,35.335,-97.425,336.6,13.29,3,339,-1.31,0.655,9.858,0
590,35.335,-97.425,335.5,14.231,3,339,-1.331,0.577,9.927,0
591,35.335,-97.425,334.5,15.181,3,339,-1.156,0.514,10.05,0
592,35.335,-97.425,334.2,16.122,3,338,-1.126,0.281,9.301,0
593,35.335,-97.425,333.3,17.093,3,336,-0.764,0.181,10.139,0
594,35.335,-97.425,332,17.923,3,336,-0.511,0.763,9.808,0
595,35.335,-97.425,330.7,18.572,3,335,-0.626,0.561,9.832,0
596,35.335,-97.425,330,19.064,3,335,-0.883,0.649,10.267,0
597,35.336,-97.425,329.4,19.534,3,334,-0.944,0.808,9.64,0
598,35.336,-97.425,328.4,20,3,334,-1.029,0.526,10.177,0
599,35.336,-97.426,328.6,20.321,3,335,-0.994,0.52,9.866,0
600,35.336,-97.426,328.8,21.03,3,335,-0.813,0.339,9.72,0
601,35.336,-97.426,329.2,21.53,3,335,-0.821,0.4,9.641,0
602,35.337,-97.426,329.5,22.9,3,335,-0.467,0.51,9.724,0
603,35.337,-97.426,329.4,23.09,3,334,-0.472,0.535,10.185,0
604,35.337,-97.426,329.8,23.15,3,334,-0.418,0.677,10.04,0
605,35.337,-97.426,330.2,23.08,3,334,-0.26,1.056,9.922,0
606,35.337,-97.427,332,22.91,3,333,-0.338,1.096,9.575,0
607,35.338,-97.427,333.8,22.75,3,333,-0.413,0.995,9.731,0
608,35.338,-97.427,335.3,22.55,3,334,-0.503,0.903,10.48,0
609,35.338,-97.427,337.1,22.63,3,333,-0.384,1.11,9.876,0
610,35.338,-97.427,338.8,22.44,3,333,-0.416,0.722,9.916,0
611,35.338,-97.427,340,22.55,3,333,-0.529,0.751,9.825,0
612,35.338,-97.427,340.9,22.35,3,333,-0.669,0.766,10.015,0
613,35.339,-97.427,342.7,22.64,3,333,-0.662,0.847,10.001,0
614,35.339,-97.427,344.3,22.71,3,333,-0.722,0.905,10.144,0
615,35.339,-97.427,345.7,22.78,3,333,-0.938,1.04,9.654,0
616,35.339,-97.427,347.5,23,3,333,-0.613,0.549,10.316,0
617,35.339,-97.427,349.1,23.471,3,333,-0.606,0.814,9.906,0
618,35.34,-97.427,350.2,23.29,3,334,-0.817,1.025,9.519,0
619,35.34,-97.428,351.9,23.34,3,334,-0.789,0.803,9.875,0
620,35.34,-97.428,353.5,23.57,3,334,-0.525,1.08,9.908,0
621,35.34,-97.428,355.3,23.51,3,334,-0.551,1.059,9.908,0
622,35.341,-97.428,356.9,23.44,3,333,-0.71,1.065,9.651,0
623,35.341,-97.428,358.5,23.47,3,333,-0.869,1.492,9.978,0
624,35.341,-97.428,0.1,23.47,3,333,-0.453,0.98,9.746,0
625,35.341,-97.428,1.8,23.4,3,332,-0.634,1.062,9.925,0
626,35.341,-97.428,3.4,23.5,3,333,-0.669,0.927,9.83,0
627,35.342,-97.428,4.8,23.56,3,333,-0.712,0.632,9.44,0
628,35.342,-97.428,6.1,23.65,3,333,-0.577,0.631,10.423,0
629,35.342,-97.427,7.3,23.84,3,332,-0.804,1.106,9.811,0
630,35.342,-97.427,8.6,23.91,3,332,-0.806,0.976,9.722,0
631,35.342,-97.427,10.4,23.96,3,332,-0.167,0.956,9.65,0
632,35.343,-97.427,12,23.92,3,332,-0.246,0.817,10.251,0
633,35.343,-97.427,13.6,23.6,3,333,-0.926,0.965,10.605,0
634,35.343,-97.427,15.3,23.62,3,333,-0.852,1.031,10.119,0
635,35.343,-97.427,17,23.85,3,332,-0.723,1.026,9.657,0
636,35.343,-97.427,18.1,24.02,3,333,-0.446,0.728,9.663,0
637,35.344,-97.427,20.3,24.08,3,332,-0.677,0.962,9.721,0
638,35.344,-97.427,21.7,24.13,3,333,-0.453,0.316,10.282,0
639,35.344,-97.427,23.1,24.17,3,332,-0.497,0.455,9.944,0
640,35.344,-97.427,23.4,24.18,3,332,-0.565,0.709,10.181,0
641,35.344,-97.427,23.6,24.15,3,332,-0.276,0.125,9.749,0
642,35.345,-97.426,23.8,24.28,3,332,-0.501,0.599,9.98,0
644,35.345,-97.426,23,24.29,3,332,-0.247,0.72,9.561,0
644,35.345,-97.426,23,24.29,3,332,-0.247,0.72,9.561,0
645,35.345,-97.426,23.1,24.23,3,336,-0.212,0.616,10.037,0
646,35.345,-97.426,23.2,24,3,335,-0.573,0.635,10.057,0
647,35.345,-97.426,23.3,23.84,3,334,-0.693,0.696,10.098,0
648,35.346,-97.426,23.5,23.87,3,333,-0.596,0.636,9.384,0
649,35.346,-97.426,23.7,23.98,3,333,-0.645,0.389,9.532,0
650,35.346,-97.426,23.8,24.07,3,333,-0.653,0.53,9.879,0
651,35.346,-97.426,23.6,24.32,3,332,-0.405,0.48,10.054,0
652,35.346,-97.425,23.4,24.38,3,332,-0.451,0.976,9.557,0
653,35.347,-97.425,23,24.27,3,332,-0.216,1.142,9.548,0
654,35.347,-97.425,22.9,24.05,3,332,-0.212,0.755,9.566,0
655,35.347,-97.425,22.7,23.64,3,332,-0.513,0.696,9.574,0
656,35.347,-97.425,22.3,23.39,3,332,-0.638,0.492,10.075,0
657,35.347,-97.425,21.9,23.4,3,332,-0.805,0.835,9.695,0
658,35.348,-97.425,21.3,23.49,3,332,-0.608,0.572,9.884,0
659,35.348,-97.425,20.9,23.46,3,332,-0.541,0.547,9.744,0
660,35.348,-97.425,20.7,23.31,4,332,-0.482,0.47,9.609,0
661,35.348,-97.425,19.4,23.71,3,332,-0.599,0.187,10.026,0
662,35.348,-97.425,18.2,23.91,3,331,-0.355,0.348,9.688,0
663,35.349,-97.424,17.2,24.01,3,332,-0.459,0.616,10.021,0
664,35.349,-97.424,15.8,23.69,3,338,-0.608,0.426,10.067,0
665,35.349,-97.424,14.9,23.58,3,337,-0.733,0.382,9.774,0
666,35.349,-97.424,14,23.523,3,336,-0.592,0.567,9.657,0
667,35.349,-97.424,13.2,23.523,3,335,-0.89,0.419,9.99,0
668,35.35,-97.424,12.9,23.614,3,335,-0.938,0.604,9.868,0
669,35.35,-97.424,11.5,23.506,3,336,-1.112,0.552,9.626,0
670,35.35,-97.424,10.7,23.934,3,337,-1,0.439,9.519,0
671,35.351,-97.424,10,24.192,3,338,-1.038,0.309,9.631,0
672,35.351,-97.424,9,24.551,3,338,-0.79,0.408,9.619,0
673,35.351,-97.424,7.9,24.911,3,355,-0.912,0.211,9.63,0
674,35.351,-97.424,6.8,25.29,3,349,-0.636,0.531,9.613,0
