time,lat,lng,bearing,spd,acc,alt,accx,accy,accz,stable,
0,35.211,-97.441,270.7,1.0917,3,330,-2.051,-0.871,9.282,1
1,35.211,-97.441,270.7,1.0917,3,330,-3.128,-1.296,9.091,1
2,35.211,-97.441,271.7,1.2,3,330,-3.061,-1.286,9.019,1
3,35.211,-97.441,271.1,2.7302,3,329,-2.847,-1.268,9.229,1
4,35.211,-97.441,270.7,4.2202,3,328,-2.901,-0.999,8.914,0
5,35.211,-97.441,269.6,5.5704,3,328,-2.545,-0.98,9.485,0
6,35.211,-97.441,269.9,6.8409,3,328,-2.598,-1.075,9.422,0
7,35.211,-97.441,270,7.7202,3,328,-2.625,-0.978,9.644,0
8,35.211,-97.441,270.1,8.63,3,328,-2.582,-0.854,9.163,0
9,35.211,-97.442,270,9.501,3,328,-2.364,-0.833,8.923,0
10,35.211,-97.442,270.4,10.38,3,329,-2.145,-1.185,9.646,0
11,35.211,-97.442,270,11.2,3,329,-2.013,-0.875,9.112,0
12,35.211,-97.442,269.2,11.8,3,329,-1.879,-0.983,10.437,0
13,35.211,-97.442,269.2,12.11,3,329,-1.827,-0.485,8.899,0
14,35.211,-97.442,268.8,12.311,3,329,-1.89,-0.839,9.653,0
15,35.211,-97.442,269.3,12.46,3,329,-1.747,-0.613,9.638,1
16,35.211,-97.442,269.8,12.67,3,329,-1.731,-0.677,9.714,0
17,35.211,-97.443,269.7,12.81,3,329,-1.479,-0.784,9.431,0
18,35.211,-97.443,269.3,12.901,3,329,-0.886,-0.535,9.743,0
19,35.211,-97.443,269.8,12.54,3,329,-0.059,-0.183,10.557,0
20,35.211,-97.443,269.9,11.03,3,329,-0.722,-0.212,11.92,0
21,35.211,-97.443,270.1,9.3403,3,329,-0.547,-0.444,9.594,0
22,35.211,-97.443,270.4,8.091,3,329,-0.222,-0.056,10.05,0
23,35.211,-97.443,269.9,6.8701,3,329,-0.035,-0.07,9.842,0
24,35.211,-97.443,269.7,5.52,3,329,-1.124,-0.667,9.693,1
25,35.211,-97.443,268.7,5.0122,3,329,-0.685,-0.391,9.682,1
26,35.211,-97.444,269.5,4.4605,3,328,-1.303,-0.526,9.618,1
27,35.211,-97.444,269.6,4.23,3,328,-2.622,-1.237,8.695,1
28,35.211,-97.444,270.3,5.23,3,328,-2.664,-1.931,9.333,0
29,35.211,-97.444,270.9,7.3502,3,328,-2.385,-1.325,9.725,0
30,35.211,-97.444,271.6,9.4812,3,328,-2.162,-1.765,9.713,0
31,35.211,-97.444,275.2,10.99,3,328,-1.633,-1.364,9.264,1
32,35.211,-97.444,273.1,13.36,3,329,-1.058,-0.908,9.187,0
33,35.211,-97.444,270.6,14.29,3,329,-1.063,-1.166,9.718,0
35,35.211,-97.444,271.5,14.852,3,328,-0.936,-1.104,9.637,1
35,35.211,-97.444,271.5,14.852,3,328,-0.936,-1.104,9.637,1
36,35.211,-97.445,270.2,15.43,3,329,-0.063,-0.636,8.932,0
37,35.211,-97.445,270.2,15.96,3,329,-0.903,-1.013,9.554,0
38,35.211,-97.445,270.4,16.48,3,328,-0.829,-1,9.245,0
39,35.211,-97.445,270.4,16.98,3,328,-0.508,-1.132,10.178,0
40,35.211,-97.445,270.8,17.47,3,329,-0.078,-0.791,9.826,0
41,35.211,-97.446,270.8,17.491,3,328,-0.13,-0.709,9.643,0
42,35.211,-97.446,270.7,17.13,3,328,-0.158,-0.666,10.014,0
43,35.211,-97.446,270.3,16.72,3,328,0.151,-0.64,9.527,0
44,35.211,-97.446,270.1,16.39,3,328,-0.146,-0.28,9.49,0
45,35.211,-97.446,270,16.07,3,328,-0.258,-0.523,9.908,0
46,35.211,-97.446,269.9,15.73,3,327,-0.039,-0.624,9.405,0
47,35.211,-97.447,269.8,15.39,3,327,0.039,-0.629,9.865,0
48,35.211,-97.447,269.6,15.06,3,327,2.083,0.443,9.598,0
49,35.211,-97.447,269.4,14.69,3,327,1.249,0.24,9.978,0
50,35.211,-97.447,269.5,13.2,3,328,0.387,-0.226,9.936,0
51,35.211,-97.447,270.1,11.272,3,328,0.28,-0.184,9.844,0
52,35.211,-97.447,269.5,10.111,3,328,0.382,-0.206,9.597,0
53,35.211,-97.447,270,8.6601,3,328,0.161,-0.394,9.694,0
54,35.211,-97.447,269.9,7.67,3,328,0.276,-0.294,9.787,0
55,35.211,-97.448,269.2,6.9302,3,328,0.597,-0.49,9.628,0
56,35.211,-97.448,269.4,6.0305,3,329,0.808,-0.053,9.958,0
57,35.211,-97.448,269.7,4.991,3,329,0.866,-0.053,9.932,0
58,35.211,-97.448,269.7,3.8001,3,329,0.291,-0.198,9.804,0
59,35.211,-97.448,268.4,2.5201,3,329,0.678,0,9.847,0
60,35.211,-97.448,268.3,1.4036,3,329,-0.458,-0.665,9.684,1
61,35.211,-97.448,268.3,1.4036,3,329,-0.414,-0.625,9.668,1
62,35.211,-97.448,0,0,3,327,-0.447,-0.655,9.604,1
63,35.211,-97.448,0,0,3,327,-0.436,-0.653,9.61,1
64,35.211,-97.448,0,0,3,327,-0.443,-0.677,9.656,1
65,35.211,-97.448,0,0,3,327,-0.423,-0.652,9.717,1
66,35.211,-97.448,0,0,3,327,-0.417,-0.67,9.725,1
67,35.211,-97.448,0,0,3,327,-0.441,-0.646,9.728,1
68,35.211,-97.448,0,0,3,327,-0.436,-0.66,9.681,1
69,35.211,-97.448,0,0,3,327,-0.459,-0.658,9.631,1
70,35.211,-97.448,0,0,3,327,-0.417,-0.673,9.646,1
71,35.211,-97.448,0,0,3,327,-0.425,-0.66,9.618,1
72,35.211,-97.448,0,0,3,327,-0.423,-0.666,9.741,1
73,35.211,-97.448,0,0,3,327,-0.413,-0.664,9.696,1
74,35.211,-97.448,0,0,3,327,-0.432,-0.64,9.729,1
75,35.211,-97.448,0,0,3,327,-0.422,-0.645,9.635,1
77,35.211,-97.448,0,0,3,327,-0.457,-0.635,9.686,1
77,35.211,-97.448,0,0,3,327,-0.457,-0.635,9.686,1
78,35.211,-97.448,0,0,3,327,-0.409,-0.651,9.597,1
79,35.211,-97.448,0,0,3,327,-0.431,-0.622,9.678,1
80,35.211,-97.448,0,0,3,327,-0.439,-0.651,9.67,1
81,35.211,-97.448,0,0,3,327,-0.421,-0.642,9.642,1
82,35.211,-97.448,0,0,3,327,-0.445,-0.639,9.673,1
83,35.211,-97.448,0,0,3,327,-0.408,-0.657,9.706,1
84,35.211,-97.448,0,0,3,327,-0.418,-0.654,9.723,1
85,35.211,-97.448,0,0,3,327,-1.804,-1.376,9.384,1
86,35.211,-97.448,0,0,3,327,-2.854,-1.598,8.989,0
87,35.211,-97.448,265.7,2.5703,3,326,-2.471,-1.623,9.42,0
88,35.211,-97.448,265.7,3.6901,3,327,-1.739,-1.48,9.238,0
89,35.211,-97.448,269.6,7.3401,3,327,-1.801,-1.372,9.444,0
90,35.211,-97.448,269.7,8.94,3,327,-1.516,-1.555,9.321,0
91,35.211,-97.448,269.4,10.38,3,327,-0.786,-0.842,9.607,0
92,35.211,-97.448,269,11.66,3,327,-0.897,-0.649,9.387,0
93,35.211,-97.448,268.8,12.33,3,327,-0.983,-0.709,9.344,0
94,35.211,-97.449,268.9,12.91,3,327,-0.814,-0.818,9.328,0
95,35.211,-97.449,269.2,13.57,3,326,-1.082,-0.673,10.03,0
96,35.211,-97.449,269.7,14.19,3,327,-0.8,-1.348,9.791,0
97,35.211,-97.449,269.7,14.47,3,327,-0.612,-0.507,9.486,0
98,35.211,-97.449,270.4,14.92,3,327,-0.559,-0.366,9.709,1
99,35.211,-97.449,270.4,15.13,3,327,-0.742,-0.543,9.513,0
100,35.211,-97.45,270.4,15.18,3,327,-0.683,-0.823,10.173,0
101,35.211,-97.45,270.1,15.52,3,326,-0.356,-0.582,9.686,0
102,35.211,-97.45,270,16.25,3,326,-0.095,-0.554,9.988,0
103,35.211,-97.45,270,16.34,3,326,-0.305,-0.356,9.555,0
104,35.211,-97.45,270.1,16.07,3,326,-0.456,-0.571,9.616,0
105,35.211,-97.45,270,15.92,3,326,-0.331,-0.661,9.636,0
106,35.211,-97.451,270.4,15.407,3,327,-0.177,-0.415,9.741,0
107,35.211,-97.451,270.4,15.407,3,327,-0.614,-0.243,10.359,0
108,35.211,-97.451,270,14.623,3,327,-0.306,-0.768,9.931,1
109,35.211,-97.451,262.2,14.285,7,328,-0.407,-0.633,9.772,0
110,35.211,-97.451,261.9,14.194,10,327,-0.323,-0.645,9.522,0
111,35.211,-97.452,260.5,14.062,13,327,-1.055,-0.726,9.41,0
112,35.211,-97.452,260.2,14.05,16,326,-0.625,-0.639,9.955,1
113,35.211,-97.452,259.8,14.23,18,327,-0.096,-0.633,9.818,0
114,35.211,-97.452,259.8,14.67,20,326,0.102,-0.56,9.511,0
115,35.211,-97.452,260.4,14.771,21,326,-0.503,-0.6,9.495,0
116,35.211,-97.452,260.5,15.211,22,325,-0.452,-1.029,9.581,0
117,35.211,-97.453,264.3,15.881,16,325,-0.031,-0.497,9.708,0
118,35.211,-97.453,267.2,16.211,15,326,-0.088,-0.512,9.764,0
119,35.211,-97.453,268.5,16.455,13,327,0.055,0.179,8.435,0
120,35.211,-97.453,270.2,15.9,13,325,0.512,-0.368,7.008,0
121,35.211,-97.453,270.9,15.85,13,325,-0.055,-0.647,10.232,0
122,35.211,-97.453,271.5,15.85,13,325,0.705,0.107,10.237,0
124,35.211,-97.454,272.4,14.991,13,325,0.036,-0.212,10.046,0
124,35.211,-97.454,272.4,14.991,13,325,0.036,-0.212,10.046,0
125,35.211,-97.454,273.3,14.403,12,325,-0.06,-0.513,9.86,0
126,35.211,-97.454,274.2,14.5,11,324,0.333,-0.257,10.039,0
127,35.211,-97.454,274.9,14.12,10,324,0.24,-0.605,9.895,0
128,35.211,-97.454,275.1,13.981,9,324,-0.332,-0.651,9.744,0
129,35.211,-97.454,275.6,14.091,7,324,-0.33,-0.331,9.39,1
130,35.211,-97.455,276.1,14.141,4,324,-0.519,-0.367,10.168,0
131,35.211,-97.455,277.1,14.272,4,324,-0.028,-0.677,8.882,0
132,35.211,-97.455,278,13.932,3,324,-0.722,-0.8,10.059,0
133,35.211,-97.455,278.6,13.932,3,323,-0.452,-0.541,9.701,0
134,35.211,-97.455,279.3,13.711,3,322,-0.141,-0.521,9.691,0
135,35.211,-97.455,279.8,13.392,4,321,-0.629,-0.487,9.94,1
136,35.211,-97.455,280.2,12.812,4,322,-0.741,-0.723,9.355,0
137,35.211,-97.455,280,12.541,3,321,-0.559,-0.992,9.336,0
138,35.211,-97.456,279.6,12.46,3,321,-0.415,-0.603,9.565,1
139,35.211,-97.456,279.4,12.2,8,320,-0.781,-0.942,9.336,1
140,35.211,-97.456,279.5,12.13,9,321,-0.454,-0.769,9.742,0
141,35.211,-97.456,279.6,11.871,10,321,-0.833,-0.797,9.552,0
142,35.211,-97.456,279.7,11.822,11,321,-0.21,-0.423,9.895,0
143,35.211,-97.456,280.3,11.505,12,322,-0.815,-0.75,9.587,0
144,35.211,-97.456,280.4,11.607,12,321,-0.8,-0.527,9.155,0
145,35.211,-97.456,279.3,11.96,12,321,-0.836,-0.997,9.836,0
146,35.211,-97.457,279.4,12.169,12,321,-0.773,-0.794,9.625,0
147,35.211,-97.457,279.3,12.692,12,321,-0.828,-1.033,9.711,0
148,35.211,-97.457,279,13.07,13,321,-0.953,-0.882,9.456,1
149,35.211,-97.457,278.9,13.77,15,321,-0.419,-0.54,9.787,0
150,35.211,-97.457,278.7,14.077,17,322,-0.299,-0.46,9.455,0
151,35.211,-97.457,278.2,14.134,14,323,-0.249,-0.7,9.739,0
152,35.211,-97.458,276.4,14.084,12,323,-0.202,-0.258,9.968,0
153,35.211,-97.458,274.9,13.822,11,323,-0.53,-0.341,9.407,0
154,35.211,-97.458,274.1,13.403,9,322,-0.122,-0.429,9.459,0
155,35.211,-97.458,273.2,13.164,8,322,-0.262,-0.831,9.569,0
156,35.211,-97.458,270.8,13.07,3,324,0.288,-0.518,9.888,0
157,35.211,-97.458,269.1,13.11,3,325,0.366,-0.319,9.791,0
158,35.211,-97.458,267.3,12.11,3,326,0.953,0.676,10.313,0
159,35.211,-97.458,267.1,11.43,3,325,1.064,0.858,9.919,0
160,35.211,-97.459,268.9,9.7718,4,325,0.304,0.156,9.663,0
161,35.211,-97.459,269.6,7.561,3,324,0.694,0.42,9.742,0
162,35.211,-97.459,269.3,6.3805,3,324,0.52,0.046,9.717,0
163,35.211,-97.459,268.6,5.2516,3,324,0.842,0.621,9.94,0
164,35.211,-97.459,268.2,3.7943,3,325,0.452,0.203,9.884,0
165,35.211,-97.459,268,2.8457,3,325,-0.014,-0.166,9.675,1
166,35.211,-97.459,267.7,2.3569,3,326,-0.326,-0.331,9.692,1
167,35.211,-97.459,267.4,2.0919,3,326,-3.292,-1.873,9.316,0
168,35.211,-97.459,266,3.7001,3,326,-1.091,-2.696,9.768,0
169,35.211,-97.459,250.8,5.1428,8,325,-0.043,-3.671,9.375,0
170,35.211,-97.459,221.9,6.2628,3,324,-0.13,-3.412,8.803,0
171,35.211,-97.459,200.5,7.1581,4,324,-0.606,-2.506,9.169,0
172,35.211,-97.459,185.9,8.2205,4,326,-1.166,-2.706,9.98,0
173,35.211,-97.459,177,9.8511,4,325,-1.142,-0.785,8.412,0
174,35.211,-97.459,177,10.25,3,325,-1.022,-1.433,9.423,0
175,35.211,-97.459,175.9,10.86,4,325,-1.437,-0.453,9.748,0
176,35.211,-97.459,176.9,11.413,4,326,-1.448,-0.472,9.745,0
177,35.21,-97.459,178.2,11.804,3,327,-0.263,-0.07,9.202,0
178,35.21,-97.459,179.6,11.771,4,327,-0.382,-0.489,9.671,0
180,35.21,-97.459,179.7,11.982,8,326,-0.791,-0.473,10.133,0
180,35.21,-97.459,179.7,11.982,8,326,-0.791,-0.473,10.133,0
181,35.21,-97.459,179.8,12.123,9,327,-0.97,-0.463,10.188,0
182,35.21,-97.459,179.9,12.603,9,327,-0.527,-0.275,9.214,0
183,35.21,-97.459,180.1,13.193,9,327,-0.243,-0.234,10.051,0
184,35.21,-97.459,180.1,13.454,8,327,-0.37,-0.598,9.763,0
185,35.21,-97.459,180,14.654,3,328,-0.451,-0.085,9.386,0
186,35.209,-97.459,179.8,14.754,3,329,-0.427,-0.651,9.853,0
187,35.209,-97.459,179.5,15.015,3,330,-0.354,-0.548,9.633,0
188,35.209,-97.459,179.5,15.055,3,330,-0.538,-0.614,10.024,0
189,35.209,-97.459,178.9,14.952,3,328,-0.41,-0.296,9.562,0
190,35.209,-97.459,178.8,14.972,3,328,-0.334,-0.463,9.404,0
191,35.209,-97.459,179.2,14.951,3,328,-0.253,-0.53,9.74,0
192,35.209,-97.459,179.3,14.912,3,328,-0.609,-0.159,9.906,0
193,35.208,-97.459,179.3,14.832,3,328,-0.028,-0.465,9.42,0
194,35.208,-97.459,179.5,14.712,3,329,-0.628,-0.398,9.861,0
195,35.208,-97.459,179.8,14.702,3,329,-0.151,-0.34,10.084,0
196,35.208,-97.459,179.9,14.562,3,329,-0.103,-0.543,9.459,0
197,35.208,-97.459,179.7,13.982,3,329,-0.303,-0.496,9.582,0
198,35.208,-97.459,179.5,13.882,3,329,-0.481,-0.439,9.948,0
199,35.208,-97.459,179.3,13.812,4,329,-0.257,-0.399,9.722,0
200,35.208,-97.459,179.6,13.532,4,329,-0.603,-0.581,9.667,0
201,35.207,-97.459,179.7,13.651,4,329,-0.275,-0.038,9.511,0
202,35.207,-97.459,179.8,13.843,4,329,-0.505,-0.431,9.33,0
203,35.207,-97.459,179.8,13.721,4,328,-0.722,-0.445,9.739,0
204,35.207,-97.459,179.7,14.001,4,328,-0.963,-0.333,10.008,0
205,35.207,-97.459,179.4,14.421,4,328,0.036,-0.518,9.955,0
206,35.207,-97.459,179.4,14.404,3,329,-0.605,-0.388,9.531,0
207,35.207,-97.459,179.3,14.346,3,330,-0.16,-0.15,9.282,0
208,35.206,-97.459,179.4,14.198,3,331,0.051,-0.424,9.571,0
209,35.206,-97.459,179.8,13.859,3,331,-0.075,-0.292,9.637,0
210,35.206,-97.459,179.9,13.636,4,331,-0.36,-0.412,9.109,0
211,35.206,-97.459,180,13.403,4,331,-0.43,-0.268,9.756,1
212,35.206,-97.459,180,13.491,3,331,-0.366,-0.26,9.951,0
213,35.206,-97.459,179.7,13.531,3,330,0.075,-0.31,9.494,0
214,35.206,-97.459,179.7,13.491,3,329,-0.275,-0.011,9.899,1
215,35.206,-97.459,179.8,13.384,3,329,-0.327,-0.221,9.743,0
216,35.206,-97.459,179.9,13.242,3,329,-0.139,-0.27,9.315,0
217,35.205,-97.459,180,13.231,4,329,0.021,-0.016,9.774,0
218,35.205,-97.459,180.2,12.87,3,328,0.589,0.049,9.59,0
219,35.205,-97.459,180.1,12.491,4,329,0.351,0.421,9.859,0
220,35.205,-97.459,180.8,11.9,4,329,0.411,0.558,10.201,0
221,35.205,-97.459,182.8,11.2,4,328,0.562,0.877,9.704,0
222,35.205,-97.459,184.5,10.381,4,325,0.714,0.303,10.251,0
223,35.205,-97.459,185.1,9.41,3,326,0.933,0.64,10.213,0
224,35.205,-97.459,185.3,8.47,3,327,0.827,0.053,9.948,0
225,35.205,-97.459,184.8,7.56,3,327,0.847,0.292,8.887,0
226,35.204,-97.459,183.7,6.5208,3,327,0.582,-0.754,10.248,0
227,35.204,-97.459,183,5.4511,3,328,0.361,-0.162,10.345,0
228,35.204,-97.459,182.5,4.0901,3,328,0.923,0.12,9.963,0
229,35.204,-97.459,182.3,3.25,3,328,0.583,-0.011,9.9,0
230,35.204,-97.459,182.1,2.39,3,327,0.255,0.033,9.824,0
231,35.204,-97.459,182.1,1.7,3,328,-0.316,-0.387,9.832,1
232,35.204,-97.459,182.1,1.69,3,327,-0.392,-0.416,9.665,1
233,35.204,-97.459,182.1,1.64,3,328,-0.405,-0.382,9.667,1
234,35.204,-97.459,182.1,1.64,3,328,-0.353,-0.43,9.737,1
235,35.204,-97.459,182.2,0.41437,3,328,-0.427,-0.313,9.604,1
237,35.204,-97.459,182.2,0.41437,3,328,-0.393,-0.397,9.749,1
237,35.204,-97.459,182.2,0.41437,3,328,-0.393,-0.397,9.749,1
238,35.204,-97.459,182.2,0.41437,3,328,-0.368,-0.424,9.805,1
239,35.204,-97.459,182.2,0.41437,3,328,-0.363,-0.422,9.736,1
240,35.204,-97.459,0,0.04,3,329,-0.378,-0.406,9.643,1
241,35.204,-97.459,0,0.04,3,329,-0.384,-0.437,9.732,1
242,35.204,-97.459,0,0.04,3,329,-0.369,-0.42,9.624,1
243,35.204,-97.459,0,0.04,3,329,-0.391,-0.406,9.657,1
244,35.204,-97.459,0,0.04,3,329,-0.359,-0.402,9.764,1
245,35.204,-97.459,0,0.04,3,329,-0.367,-0.418,9.693,1
246,35.204,-97.459,0,0.04,3,329,-0.395,-0.408,9.656,1
247,35.204,-97.459,0,0.04,3,329,-0.389,-0.404,9.694,1
248,35.204,-97.459,0,0.04,3,329,-0.382,-0.413,9.645,1
249,35.204,-97.459,0,0.04,3,329,-0.39,-0.39,9.742,1
250,35.204,-97.459,0,0.04,3,329,-0.358,-0.404,9.657,1
251,35.204,-97.459,0,0.04,3,329,-0.379,-0.401,9.659,1
252,35.204,-97.459,0,0,3,329,-0.391,-0.418,9.673,1
253,35.204,-97.459,0,0,3,329,-0.366,-0.418,9.638,1
254,35.204,-97.459,0,0,3,329,-0.371,-0.42,9.74,1
255,35.204,-97.459,0,0,3,329,-0.342,-0.421,9.759,1
256,35.204,-97.459,0,0,3,329,-0.392,-0.395,9.792,1
257,35.204,-97.459,0,0,3,329,-0.382,-0.404,9.67,1
258,35.204,-97.459,0,0,3,329,-0.352,-0.397,9.756,1
259,35.204,-97.459,0,0,3,329,-0.375,-0.413,9.734,1
260,35.204,-97.459,0,0,3,329,-0.385,-0.403,9.65,1
261,35.204,-97.459,0,0,3,329,-0.398,-0.417,9.659,1
262,35.204,-97.459,0,0,3,329,-0.362,-0.424,9.638,1
263,35.204,-97.459,0,0,3,329,-0.385,-0.403,9.781,1
264,35.204,-97.459,0,0,3,329,-0.357,-0.429,9.736,1
265,35.204,-97.459,0,0,3,329,-0.377,-0.419,9.643,1
266,35.204,-97.459,0,0,3,329,-0.653,-0.523,9.592,1
267,35.204,-97.459,0,0,3,329,-0.559,-0.491,9.707,1
268,35.204,-97.459,0,0,3,329,-0.378,-0.439,9.802,1
269,35.204,-97.459,0,0,3,329,-0.826,-0.731,9.695,1
270,35.204,-97.459,182.1,0.59008,3,330,-0.766,-0.595,9.66,1
271,35.204,-97.459,181.9,1.13,3,330,-2.004,-1.25,9.357,1
272,35.204,-97.459,181.4,1.8701,3,330,-1.392,-1.276,9.449,0
273,35.204,-97.459,181.2,3.1601,3,330,-1.11,-1.168,9.3,0
274,35.204,-97.459,180.4,3.7111,3,330,-1.462,-1.305,9.494,0
275,35.204,-97.459,179.5,4.7504,3,330,-0.316,-0.751,9.828,0
276,35.204,-97.459,178.2,5.3402,3,330,-1.007,1.967,10.637,0
277,35.204,-97.459,182.6,5.0117,3,330,-1.516,2.466,10.25,0
278,35.204,-97.459,206.1,4.8103,4,330,-3.132,3.074,10.072,0
279,35.204,-97.459,235.9,5.024,10,331,-2.774,-0.687,9.59,0
280,35.204,-97.459,271.1,9.024,9,330,-1.837,-1.677,9.381,0
281,35.204,-97.459,269.1,10.287,7,331,-1.793,-1.402,9.451,0
282,35.204,-97.46,268.6,11.578,3,331,-1.244,-0.888,9.431,1
283,35.204,-97.46,269,12.578,3,331,-1.066,-0.902,10.037,0
284,35.204,-97.46,269.1,13.129,3,331,-0.834,-0.651,9.665,0
285,35.204,-97.46,268.8,13.748,3,332,-0.355,-0.805,9.73,0
286,35.204,-97.46,268.6,13.638,3,332,-0.554,-0.569,9.601,1
287,35.204,-97.46,268.4,16.071,3,331,-0.296,-0.32,9.676,1
288,35.204,-97.461,270,16.231,3,331,-0.244,-0.401,9.636,0
289,35.204,-97.461,270.3,16.39,3,331,-0.018,-0.714,9.794,0
290,35.204,-97.461,270.3,16.72,3,331,0.093,-0.156,9.611,0
291,35.204,-97.461,270.4,16.54,3,330,0.261,-0.604,9.567,0
292,35.204,-97.461,269.9,16.57,3,330,-0.188,-0.539,9.834,0
293,35.204,-97.462,269.5,16.74,3,330,-0.14,-0.757,9.767,0
294,35.204,-97.462,269,17,3,327,-0.321,-0.552,9.521,0
295,35.204,-97.462,269.5,17.28,3,329,-0.313,-0.384,9.352,0
296,35.204,-97.462,269.7,15.532,3,330,-0.369,-0.432,9.723,0
298,35.204,-97.462,269.7,15.432,3,330,-0.215,-0.684,9.738,1
298,35.204,-97.462,269.7,15.432,3,330,-0.215,-0.684,9.738,1
299,35.204,-97.462,269.7,15.351,3,329,-0.306,-0.493,9.62,0
300,35.204,-97.463,269.7,15.3,3,329,-0.422,-0.45,9.791,0
301,35.204,-97.463,269.7,15.23,3,329,-0.416,-0.252,9.512,0
302,35.204,-97.463,269.9,15.26,3,329,-0.227,-0.611,9.808,0
303,35.204,-97.463,270,15.3,3,328,-0.447,-0.54,9.916,0
304,35.204,-97.463,270.1,15.34,3,328,-0.362,-0.485,10,0
305,35.204,-97.463,270.2,15.35,3,328,-0.321,-0.479,9.721,0
306,35.204,-97.464,270.2,15.33,3,328,-0.138,-0.899,9.311,0
307,35.204,-97.464,270.2,15.32,3,328,-0.297,-0.662,9.768,1
308,35.204,-97.464,270.2,15.3,3,326,-0.314,-0.616,9.49,0
309,35.204,-97.464,270.1,15.29,3,327,-0.364,-0.518,9.926,0
310,35.204,-97.464,270.1,15.29,3,327,-0.309,-0.55,9.706,0
311,35.204,-97.464,270,15.26,3,327,-0.36,-0.309,9.624,0
312,35.204,-97.465,269.9,15.26,3,328,-0.331,-0.524,9.965,0
313,35.204,-97.465,270,15.26,3,328,-0.337,-0.618,9.863,0
314,35.204,-97.465,269.8,15.3,3,327,-0.306,-0.561,9.97,1
315,35.204,-97.465,269.8,15.34,3,327,-0.225,-0.619,9.821,0
316,35.204,-97.465,269.9,15.41,3,327,-0.333,-0.51,9.723,0
317,35.204,-97.465,269.9,15.5,3,327,-0.266,-0.687,9.692,0
318,35.204,-97.466,269.8,15.56,3,326,-0.158,-0.358,10.029,0
319,35.204,-97.466,270,15.51,3,326,0.001,-0.25,9.79,0
320,35.204,-97.466,270.1,15.26,3,326,-0.467,-0.326,9.274,0
321,35.204,-97.466,270.1,15.08,3,326,-0.314,-0.507,9.627,0
322,35.204,-97.466,270.1,15.07,3,326,-0.317,-0.856,9.267,0
323,35.204,-97.466,270,15.13,3,327,-0.331,-0.617,10.079,0
324,35.204,-97.467,270.1,15.26,3,327,-0.398,-0.886,9.313,0
325,35.204,-97.467,270,15.48,3,327,-0.659,-0.643,9.778,1
326,35.204,-97.467,269.8,15.76,3,327,-0.549,-0.591,9.448,0
327,35.204,-97.467,269.8,15.95,3,326,-0.647,-0.776,9.8,1
328,35.204,-97.467,269.7,16.19,3,326,-0.633,-0.867,9.433,0
329,35.204,-97.467,269.8,16.48,3,327,-0.781,-0.453,9.66,0
330,35.204,-97.468,269.8,16.84,3,327,-0.635,-0.205,8.41,0
331,35.204,-97.468,270,17.14,3,327,-0.486,-0.578,9.583,0
332,35.204,-97.468,270,17.44,3,327,-0.397,-0.584,9.463,0
333,35.204,-97.468,270.2,17.84,3,327,-0.266,-0.355,10.024,0
334,35.204,-97.468,270.3,17.96,3,327,-0.267,-0.652,9.643,0
335,35.204,-97.469,270.3,18.08,3,327,-0.123,-0.243,9.548,0
336,35.204,-97.469,270.2,18.06,3,327,-0.13,-0.664,10.071,0
337,35.204,-97.469,270.3,17.93,3,327,-0.169,-0.608,9.69,0
338,35.204,-97.469,270.2,17.92,3,326,-0.221,-0.687,9.512,0
339,35.204,-97.469,270.1,17.92,3,327,-0.379,-0.704,9.657,0
340,35.204,-97.47,270,17.95,3,327,-0.335,-0.709,9.571,0
341,35.204,-97.47,269.9,18.17,3,326,-0.525,-0.955,10.455,0
342,35.204,-97.47,269.9,18.341,3,327,-0.541,-0.578,9.492,0
343,35.204,-97.47,269.9,18.52,3,327,-0.523,-0.873,9.714,0
344,35.204,-97.471,269.9,18.73,3,327,-0.58,-0.603,9.822,1
345,35.204,-97.471,270,18.9,3,326,-0.385,-0.598,10.251,0
346,35.204,-97.471,269.9,19.04,3,326,-0.134,-0.35,9.968,0
347,35.204,-97.471,269.9,18.98,3,326,0.071,-0.225,9.525,0
348,35.204,-97.471,269.8,18.8,3,326,0.111,-0.358,9.711,0
349,35.204,-97.472,270,18.47,3,326,-0.161,-0.377,9.745,0
350,35.204,-97.472,270.1,18.191,3,327,0.021,-0.321,9.713,0
351,35.204,-97.472,270.2,17.841,3,327,-0.4,-0.384,9.572,0
352,35.204,-97.472,270.3,17.59,3,327,-0.282,-0.806,9.911,1
353,35.204,-97.472,270,17.48,3,327,-0.414,-0.55,9.302,0
354,35.204,-97.473,269.8,17.46,3,327,-0.37,-0.559,9.766,1
355,35.204,-97.473,269.9,17.52,3,327,-0.056,-0.54,9.464,0
356,35.204,-97.473,270.2,17.53,3,327,-0.019,-0.455,9.878,0
357,35.204,-97.473,270.2,17.43,3,327,-0.174,-0.334,9.448,0
358,35.204,-97.473,270.1,17.28,3,327,-0.267,-0.64,10.04,0
359,35.204,-97.474,270,17.21,3,327,-0.03,-0.32,9.71,0
360,35.204,-97.474,270.1,16.97,3,326,-0.063,-0.266,9.996,0
362,35.204,-97.474,270.1,16.62,3,327,0.062,-0.413,9.562,0
362,35.204,-97.474,270.1,16.62,3,327,0.062,-0.413,9.562,0
363,35.204,-97.474,269.9,16.23,3,326,0.077,-0.468,9.728,0
364,35.204,-97.474,269.8,15.79,3,326,-0.003,-0.338,9.732,0
365,35.204,-97.474,269.9,15.45,3,327,-0.058,-0.226,9.682,0
366,35.204,-97.475,269.9,15.02,3,327,0.042,-0.47,9.509,0
367,35.204,-97.475,269.9,14.61,3,327,-0.102,-0.072,10.16,0
368,35.204,-97.475,270,14.18,3,326,0.03,-0.417,9.856,0
369,35.204,-97.475,270,13.89,3,327,0.048,-0.46,9.678,1
370,35.204,-97.475,269.9,13.46,3,326,0.056,-0.783,9.345,0
371,35.204,-97.475,269.9,13.09,3,326,0.072,-0.276,9.593,0
372,35.204,-97.475,270,12.72,3,327,-0.048,-0.191,10.049,0
373,35.204,-97.476,270.1,12.33,3,326,0.918,0.785,9.768,0
374,35.204,-97.476,270.3,11.03,3,326,0.671,0.429,9.647,0
375,35.204,-97.476,270.6,9.67,3,326,0.978,0.349,9.969,0
376,35.204,-97.476,271.4,8.7103,3,326,1.167,0.027,10.253,0
377,35.204,-97.476,272.2,7.4401,3,326,0.694,-0.024,9.641,0
378,35.204,-97.476,272.8,6.241,3,326,1.044,0.31,10.223,0
379,35.204,-97.476,272.8,4.8803,3,326,0.34,-0.16,9.669,0
380,35.204,-97.476,272.6,4.0208,3,326,-0.037,-0.323,9.893,1
381,35.204,-97.476,272.5,3.6009,3,326,0.492,-0.113,9.81,0
382,35.204,-97.476,272.3,1.4717,3,326,0.413,-0.056,9.848,1
383,35.204,-97.476,272.3,1.4717,3,326,-0.276,-0.483,9.804,1
384,35.204,-97.476,272.3,1.4717,3,326,-0.304,-0.484,9.713,1
385,35.204,-97.476,272.3,1.4717,3,326,-0.272,-0.438,9.73,1
386,35.204,-97.476,272.3,1.4717,3,326,-0.258,-0.47,9.751,1
387,35.204,-97.476,272.3,1.4717,3,326,-0.284,-0.501,9.657,1
388,35.204,-97.476,272.3,1.4717,3,326,-0.275,-0.478,9.761,1
389,35.204,-97.476,272.3,1.4717,3,326,-0.285,-0.461,9.772,1
390,35.204,-97.476,272.3,1.4717,3,326,-0.259,-0.498,9.753,1
391,35.204,-97.476,272.3,1.4717,3,326,-0.284,-0.467,9.716,1
392,35.204,-97.476,272.3,1.4717,3,326,-0.284,-0.473,9.783,1
393,35.204,-97.476,272.3,1.4717,3,326,-0.284,-0.468,9.687,1
394,35.204,-97.476,272.3,1.4717,3,326,-0.27,-0.454,9.75,1
395,35.204,-97.476,272.3,1.4717,3,326,-0.274,-0.501,9.788,1
396,35.204,-97.476,272.3,1.4717,3,326,-0.262,-0.46,9.759,1
397,35.204,-97.476,272.3,1.4717,3,326,-0.277,-0.47,9.742,1
398,35.204,-97.476,272.3,1.4717,3,326,-0.264,-0.491,9.775,1
399,35.204,-97.476,272.3,1.4717,3,326,-0.269,-0.457,9.763,1
400,35.204,-97.476,272.3,1.4717,3,326,-0.29,-0.464,9.788,1
401,35.204,-97.476,272.3,1.4717,3,326,-0.267,-0.492,9.721,1
402,35.204,-97.476,272.3,1.4717,3,326,-0.263,-0.475,9.747,1
403,35.204,-97.476,272.3,1.4717,3,326,-0.283,-0.477,9.739,1
404,35.204,-97.476,272.3,1.4717,3,326,-0.281,-0.467,9.768,1
405,35.204,-97.476,272.3,1.4717,3,326,-0.261,-0.476,9.777,1
406,35.204,-97.476,272.3,1.4717,3,326,-0.267,-0.488,9.769,1
407,35.204,-97.476,272.3,1.4717,3,326,-0.284,-0.46,9.7,1
408,35.204,-97.476,272.3,1.4717,3,326,-0.308,-0.478,9.704,1
409,35.204,-97.476,0,0.01,3,326,-0.298,-0.468,9.613,1
410,35.204,-97.476,0,0.01,3,326,-0.276,-0.485,9.716,1
411,35.204,-97.476,0,0.01,3,326,-0.314,-0.464,9.629,1
412,35.204,-97.476,0,0.01,3,326,-0.302,-0.492,9.625,1
413,35.204,-97.476,0,0.01,3,326,-0.319,-0.482,9.664,1
414,35.204,-97.476,0,0.01,3,326,-0.28,-0.508,9.633,1
415,35.204,-97.476,0,0.01,3,326,-0.307,-0.471,9.659,1
416,35.204,-97.476,0,0.01,3,326,-0.276,-0.505,9.695,1
417,35.204,-97.476,0,0.01,3,326,-0.296,-0.486,9.634,1
418,35.204,-97.476,0,0.01,3,326,-0.29,-0.473,9.689,1
419,35.204,-97.476,0,0.01,3,326,-0.277,-0.479,9.69,1
420,35.204,-97.476,0,0.01,3,326,-0.288,-0.474,9.746,1
421,35.204,-97.476,0,0.01,3,326,-0.272,-0.484,9.73,1
422,35.204,-97.476,0,0,3,327,-0.288,-0.478,9.647,1
423,35.204,-97.476,0,0,3,327,-0.294,-0.48,9.791,1
424,35.204,-97.476,0,0,3,327,-0.257,-0.49,9.751,1
425,35.204,-97.476,0,0,3,327,-0.277,-0.475,9.766,1
426,35.204,-97.476,0,0,3,327,-0.284,-0.488,9.723,1
427,35.204,-97.476,0,0,3,327,-0.26,-0.476,9.747,1
428,35.204,-97.476,0,0,3,327,-0.297,-0.485,9.717,1
430,35.204,-97.476,0,0,3,327,-0.27,-0.49,9.732,1
430,35.204,-97.476,0,0,3,327,-0.27,-0.49,9.732,1
431,35.204,-97.476,0,0,3,327,-0.269,-0.474,9.697,1
432,35.204,-97.476,0,0,3,327,-0.29,-0.474,9.778,1
433,35.204,-97.476,0,0,3,327,-0.298,-0.488,9.66,1
434,35.204,-97.476,0,0,3,327,-0.297,-0.48,9.654,1
435,35.204,-97.476,0,0,3,327,-0.288,-0.467,9.683,1
436,35.204,-97.476,0,0,3,327,-0.28,-0.478,9.783,1
437,35.204,-97.476,0,0,3,327,-0.298,-0.49,9.734,1
438,35.204,-97.476,0,0,3,327,-0.272,-0.489,9.754,1
439,35.204,-97.476,0,0,3,327,-0.284,-0.47,9.746,1
440,35.204,-97.476,0,0,3,327,-0.311,-0.471,9.756,1
441,35.204,-97.476,0,0,3,327,-0.288,-0.492,9.801,1
442,35.204,-97.476,0,0,3,327,-0.311,-0.465,9.686,1
443,35.204,-97.476,0,0,3,327,-0.276,-0.462,9.792,1
444,35.204,-97.476,0,0,3,327,-0.296,-0.456,9.771,1
445,35.204,-97.476,0,0,3,327,-0.32,-0.493,9.664,1
446,35.204,-97.476,0,0,3,327,-0.324,-0.459,9.685,1
447,35.204,-97.476,0,0,3,327,-0.292,-0.469,9.682,1
448,35.204,-97.476,0,0,3,327,-0.288,-0.479,9.728,1
449,35.204,-97.476,0,0,3,327,-0.323,-0.472,9.692,1
450,35.204,-97.476,0,0,3,327,-0.267,-0.481,9.767,1
451,35.204,-97.476,0,0,3,327,-0.275,-0.487,9.745,1
452,35.204,-97.476,0,0,3,327,-0.325,-0.448,9.667,1
453,35.204,-97.476,0,0,3,327,-0.289,-0.5,9.657,1
454,35.204,-97.476,0,0,3,327,-0.311,-0.447,9.716,1
455,35.204,-97.476,0,0,3,327,-0.683,-0.744,9.705,1
456,35.204,-97.476,0,0,3,327,-0.677,-0.649,9.582,1
457,35.204,-97.476,272,0.51,3,329,-0.637,-0.637,9.602,1
458,35.204,-97.476,271.9,0.85006,3,329,-1.618,-1.189,9.577,1
459,35.204,-97.476,271.8,1.6,3,329,-1.212,-0.937,9.578,1
460,35.204,-97.476,271.5,2.7502,3,329,-1.292,-1.272,9.658,1
461,35.204,-97.476,272,3.3929,3,329,-1.254,-0.915,9.516,1
462,35.204,-97.476,271.7,4.2909,3,329,-1.614,-0.937,9.238,0
463,35.204,-97.476,271.6,5.5001,3,329,-1.212,-1.106,9.521,0
464,35.204,-97.476,271.2,6.3906,3,329,-1.31,-0.546,9.489,0
465,35.204,-97.477,271,7.5501,3,329,-1.468,-0.651,10.099,0
466,35.204,-97.477,270.7,8.5001,3,329,-1.26,-0.896,9.571,0
467,35.204,-97.477,270.6,9.5705,3,329,-1.506,-0.728,9.996,0
468,35.204,-97.477,270.3,10.78,3,329,-1.416,-1.033,9.447,0
469,35.204,-97.477,270.1,11.651,3,329,-1.42,-0.934,9.395,0
470,35.204,-97.477,270,12.661,3,329,-1.25,-1.052,9.574,0
471,35.204,-97.477,270.1,13.731,3,329,-0.951,-0.828,9.731,1
472,35.204,-97.478,270.1,14.732,3,329,-0.266,-0.399,9.831,0
473,35.204,-97.478,270,15.201,3,329,-0.036,-0.234,9.697,0
474,35.204,-97.478,269.7,15.642,3,330,-0.019,-0.216,9.71,0
475,35.204,-97.478,269.7,15.382,3,330,0.474,0.045,10.1,0
476,35.204,-97.478,269.8,13.984,3,331,0.37,0.253,9.926,0
477,35.204,-97.478,270.1,12.542,3,330,1.274,0.778,10.049,0
478,35.204,-97.479,272.3,12.192,3,331,-0.194,0.55,9.734,0
479,35.204,-97.479,275.9,11.881,3,331,-0.314,0.797,10.245,0
480,35.204,-97.479,282.3,11.431,3,331,-0.298,1.027,9.424,0
481,35.204,-97.479,290.6,9.4002,3,331,-1.227,0.799,9.796,0
482,35.204,-97.479,300,11.19,3,331,-1.653,1.093,9.645,0
483,35.204,-97.479,311.6,11.521,8,330,-2.051,1.429,9.999,0
484,35.204,-97.479,324.1,11.503,7,329,-1.942,1.421,10.039,0
485,35.204,-97.479,335.4,11.772,8,329,-1.358,0.401,9.628,0
486,35.204,-97.479,339.1,12.192,7,330,-0.957,-0.597,9.48,1
487,35.205,-97.479,339.9,12.574,3,329,-0.812,-0.677,9.864,1
488,35.205,-97.479,340.4,13.41,3,329,-1.13,-0.91,9.419,1
489,35.205,-97.479,340.6,14.46,3,328,-1.193,-1.04,9.984,0
490,35.205,-97.479,340.6,15.643,3,327,-1.074,-0.934,9.588,1
491,35.205,-97.48,340.6,17.154,3,326,-1.015,-0.907,9.453,0
492,35.205,-97.48,340.8,18.454,3,325,-1.044,-0.87,9.687,0
493,35.205,-97.48,341,19.379,3,325,-0.717,-0.786,9.932,0
494,35.206,-97.48,340.9,20.354,3,325,-0.451,-0.731,9.458,0
495,35.206,-97.48,340.6,21.082,3,325,-0.669,-0.619,9.786,0
497,35.206,-97.48,340.4,21.91,3,325,-0.99,-0.198,10.044,0
497,35.206,-97.48,340.4,21.91,3,325,-0.99,-0.198,10.044,0
498,35.206,-97.48,340.5,23.08,3,324,-0.863,-0.506,9.692,0
499,35.206,-97.48,340.3,23.51,3,324,-0.636,-1.389,10.197,0
500,35.207,-97.48,339.6,24.15,3,324,-1.439,-0.821,8.686,0
501,35.207,-97.48,338.8,25.331,3,323,-1.307,-0.318,9.438,0
502,35.207,-97.48,338.6,26.31,4,323,-1.01,-0.048,10.333,0
503,35.207,-97.481,337.9,26.73,3,323,-0.671,-0.567,9.599,0
504,35.208,-97.481,336.7,27.08,3,323,-0.448,-0.784,9.754,0
505,35.208,-97.481,335.4,27.33,3,323,-0.642,-0.665,9.984,0
506,35.208,-97.481,334.1,27.541,3,324,-1.129,-0.08,9.757,0
507,35.208,-97.481,333.9,28.051,3,324,-0.42,-0.075,9.548,0
508,35.208,-97.481,333.5,28.202,3,325,-0.841,-0.303,9.753,0
509,35.209,-97.481,333.1,28.392,3,325,-0.789,-0.609,9.806,1
510,35.209,-97.481,332.5,28.692,3,325,-0.722,-0.665,9.659,0
511,35.209,-97.482,331.2,28.961,3,326,-0.553,-0.595,9.385,0
512,35.209,-97.482,331,29.332,3,327,-0.967,-0.684,9.417,1
513,35.21,-97.482,331.1,29.812,3,327,-1.328,-0.135,9.651,0
514,35.21,-97.482,331.9,30.502,3,328,-0.91,-1.171,9.414,1
515,35.21,-97.482,331.5,31.072,3,328,-0.848,-1.11,9.31,0
516,35.21,-97.482,330.7,31.923,3,329,-0.863,-1.223,9.876,0
517,35.211,-97.483,330.1,32.641,3,329,-0.987,-0.975,9.549,1
518,35.211,-97.483,329.9,33.332,3,329,-1.318,-0.342,9.079,0
519,35.211,-97.483,330.6,34.013,3,330,-1.051,-0.759,9.896,0
520,35.211,-97.483,330.9,34.912,3,330,-1.102,-0.865,10.061,0
521,35.212,-97.483,331.1,35.614,3,331,-0.768,-1.417,9.774,0
522,35.212,-97.484,330,36.314,3,331,-0.958,-0.904,10.403,0
523,35.212,-97.484,329.7,37.025,3,332,-1.434,0.052,9.87,0
524,35.213,-97.484,330.4,37.815,3,333,-0.374,0.859,9.386,0
525,35.213,-97.484,332.2,38.073,3,332,-0.683,1.697,9.7,0
526,35.213,-97.484,334.8,37.233,3,333,-0.317,1.033,9.905,0
527,35.214,-97.485,336.6,37.586,3,334,-0.218,0.791,9.565,0
528,35.214,-97.485,338,37.255,3,334,-0.27,0.648,10.136,0
529,35.214,-97.485,339.4,37.481,3,331,-0.249,0.988,9.733,0
530,35.214,-97.485,341,36.971,3,330,-0.397,0.767,9.882,0
531,35.215,-97.485,343.2,36.631,3,330,-0.556,0.46,10.729,0
532,35.215,-97.485,345,36.531,3,331,-0.599,0.425,9.877,0
533,35.215,-97.485,346.4,36.22,3,331,-0.685,0.299,9.727,0
534,35.216,-97.485,348,36.27,3,330,-0.726,0.503,9.461,0
535,35.216,-97.485,349.7,36.09,3,330,-0.856,0.617,9.527,0
536,35.216,-97.485,351.7,35.801,3,331,-0.798,0.275,10.085,0
537,35.217,-97.485,353.6,35.521,3,331,-0.73,0.406,9.64,0
538,35.217,-97.485,355.2,35.391,3,331,-0.166,0.365,9.654,0
539,35.217,-97.485,357.2,34.641,3,331,-0.096,0.126,10.355,0
540,35.218,-97.485,358.2,34.41,3,331,-0.277,-0.09,9.5,0
541,35.218,-97.485,359.2,34.191,3,331,-0.292,0.167,9.186,0
542,35.218,-97.485,359.7,33.361,3,332,-0.347,-0.204,10.548,0
543,35.219,-97.485,359.7,33.161,4,332,-0.392,0.02,10.172,0
544,35.219,-97.485,0,32.991,4,333,-0.576,-0.309,9.835,0
545,35.219,-97.485,0,32.891,5,333,-0.596,-0.064,9.541,1
546,35.22,-97.485,359.8,32.931,3,333,-0.631,0.218,9.295,0
547,35.22,-97.485,0,32.991,3,333,-0.529,0.054,9.127,0
548,35.22,-97.485,0,33.042,3,333,-0.591,-0.151,9.643,0
549,35.221,-97.485,0.1,33.081,3,333,-0.563,-0.176,9.525,0
550,35.221,-97.485,359.9,33.12,3,333,-0.639,-0.108,9.521,0
551,35.221,-97.485,0.1,33.11,3,332,-0.645,-0.066,10.236,0
552,35.221,-97.485,0.1,33.14,3,332,-0.617,0.002,9.654,0
553,35.222,-97.485,0.1,33.151,3,332,-0.493,0.114,9.824,0
554,35.222,-97.485,0.1,33.16,4,332,-0.494,-0.148,9.933,0
555,35.222,-97.485,359.9,33.16,3,326,-0.546,-0.133,10.038,0
556,35.223,-97.485,359.8,33.171,3,326,-0.5,-0.113,9.544,0
557,35.223,-97.485,359.6,33.17,3,326,-0.651,0.037,9.755,0
558,35.223,-97.485,359.9,33.2,3,326,-0.564,-0.086,10.097,0
559,35.224,-97.485,0,33.23,3,326,-0.582,-0.141,9.676,0
560,35.224,-97.485,359.8,33.25,3,326,-0.501,-0.132,9.609,0
562,35.224,-97.485,359.9,33.25,3,326,-0.657,0.038,9.657,0
562,35.224,-97.485,359.9,33.25,3,326,-0.657,0.038,9.657,0
563,35.224,-97.485,0.1,33.24,3,327,-0.5,-0.117,9.894,0
564,35.225,-97.485,0.1,33.25,3,327,-0.545,0.047,9.483,0
565,35.225,-97.485,359.9,33.27,3,327,-0.539,0.027,9.679,0
566,35.225,-97.485,359.8,33.29,3,327,-0.543,0.043,9.656,0
567,35.226,-97.485,359.8,33.23,3,328,-0.567,0.076,9.825,0
568,35.226,-97.485,359.9,33.25,3,327,-0.59,0.108,9.809,0
569,35.226,-97.485,0.1,33.23,3,327,-0.399,-0.177,9.601,0
570,35.227,-97.485,0,33.24,3,327,-0.523,0.036,9.774,1
571,35.227,-97.485,359.8,33.27,3,327,-0.653,0.07,9.747,1
572,35.227,-97.485,359.9,33.3,3,327,-0.526,0.123,9.864,1
573,35.227,-97.485,0,33.33,3,327,-0.538,0.057,9.743,1
574,35.228,-97.485,0,33.37,3,327,-0.528,-0.062,9.652,1
575,35.228,-97.485,0.1,33.37,3,327,-0.476,-0.06,9.673,1
576,35.228,-97.485,359.9,33.38,3,327,-0.593,0.128,9.789,1
577,35.229,-97.485,0,33.38,3,327,-0.586,0.094,9.73,1
578,35.229,-97.485,0.1,33.39,3,327,-0.552,-0.082,9.822,1
579,35.229,-97.485,0,33.41,3,327,-0.476,-0.053,9.585,1
580,35.23,-97.485,359.9,33.4,3,327,-0.504,0.013,9.514,1
581,35.23,-97.485,359.8,33.39,3,327,-0.614,0.129,9.684,1
582,35.23,-97.485,359.8,33.39,3,327,-0.642,0.139,9.767,1
583,35.23,-97.485,0,33.38,3,327,-0.572,0.028,9.674,1
584,35.231,-97.485,0.1,33.37,3,327,-0.554,-0.005,9.727,1
585,35.231,-97.485,359.9,33.37,3,327,-0.591,-0.064,9.732,1
586,35.231,-97.485,359.8,33.39,3,327,-0.662,-0.041,9.897,1
587,35.232,-97.485,359.7,33.39,3,327,-0.743,0.055,9.764,1
588,35.232,-97.485,359.7,33.4,3,327,-0.65,0.031,9.83,1
589,35.232,-97.485,0,33.45,3,326,-0.571,0.081,9.848,1
590,35.233,-97.485,0.2,33.44,3,326,-0.593,-0.134,9.915,1
591,35.233,-97.485,0.2,33.5,3,327,-0.608,0.035,9.745,1
592,35.233,-97.485,0.1,33.52,3,326,-0.565,0.028,9.608,1
593,35.233,-97.485,359.9,32.99,3,326,-0.456,-0.087,9.705,1
594,35.234,-97.485,359.9,33.45,3,326,-0.528,0.21,9.861,1
595,35.234,-97.485,359.8,33.36,3,326,-0.431,-0.055,9.726,1
596,35.234,-97.485,359.9,33.25,3,326,-0.541,0.113,9.664,1
597,35.235,-97.485,359.8,33.17,3,326,-0.583,-0.031,9.795,0
598,35.235,-97.485,359.9,33.16,3,326,-0.55,0,9.711,0
599,35.235,-97.485,359.8,33.17,3,326,-0.621,-0.023,9.773,0
600,35.236,-97.485,359.7,33.22,3,326,-0.615,-0.045,9.769,0
601,35.236,-97.485,359.7,33.24,3,327,-0.663,0.065,9.892,0
602,35.236,-97.485,0,33.3,3,326,-0.664,0.182,9.866,0
603,35.237,-97.485,0.2,33.3,3,326,-0.49,-0.218,9.728,0
604,35.237,-97.485,359.9,33.31,3,326,-0.506,-0.027,9.816,0
605,35.237,-97.485,359.9,33.29,3,326,-0.477,-0.114,9.845,1
606,35.238,-97.485,359.8,33.27,3,326,-0.397,-0.022,9.897,1
607,35.238,-97.485,359.9,33.14,3,326,-0.455,0.143,9.627,1
608,35.238,-97.485,0.1,32.96,3,326,-0.38,0.068,9.731,1
609,35.239,-97.485,0,32.8,3,326,-0.258,0.131,9.788,1
610,35.239,-97.485,359.9,32.59,3,326,-0.457,0.181,9.761,0
611,35.239,-97.485,359.9,32.4,3,326,-0.332,0.204,9.845,0
612,35.239,-97.485,359.8,32.12,3,326,-0.161,0.225,9.717,0
613,35.24,-97.485,359.7,31.77,3,326,-0.233,0.121,9.743,0
614,35.24,-97.485,359.9,31.51,3,325,-0.417,0.214,9.806,0
615,35.24,-97.485,0.2,31.31,3,325,-0.381,0.118,9.85,0
616,35.241,-97.485,0.2,31.1,3,325,-0.363,0.06,9.663,0
617,35.241,-97.485,0.1,30.86,3,325,-0.328,0.052,9.71,1
618,35.241,-97.485,359.8,30.61,3,325,-0.34,0.151,9.853,1
619,35.241,-97.485,0,30.34,3,325,-0.273,0.076,9.776,1
620,35.242,-97.485,359.9,30.08,3,325,-0.325,0.127,9.79,1
621,35.242,-97.485,0,29.88,3,324,-0.449,0.229,9.829,1
622,35.242,-97.485,0.1,29.76,3,324,-0.398,0.088,9.681,1
623,35.242,-97.485,0.1,29.7,3,324,-0.625,0.171,9.703,1
624,35.243,-97.485,0.1,29.69,3,324,-0.554,0.095,9.859,1
625,35.243,-97.485,0.1,29.67,3,324,-0.496,-0.057,9.781,1
626,35.243,-97.485,359.8,29.67,3,324,-0.533,-0.112,9.852,0
628,35.244,-97.485,359.6,29.68,3,324,-0.552,0.023,9.597,0
628,35.244,-97.485,359.6,29.68,3,324,-0.552,0.023,9.597,0
629,35.244,-97.485,359.7,29.71,3,324,-0.584,0.005,9.694,0
630,35.244,-97.485,359.9,29.74,3,324,-0.596,-0.063,9.681,0
631,35.244,-97.485,0,29.79,3,324,-0.76,-0.006,9.891,0
632,35.245,-97.485,0,29.89,3,324,-0.636,-0.012,9.64,0
633,35.245,-97.485,0,30.01,3,325,-0.648,-0.066,9.637,0
634,35.245,-97.485,0,30.13,3,324,-0.666,-0.155,9.798,1
635,35.245,-97.485,359.9,30.31,3,325,-0.67,-0.105,9.53,1
636,35.246,-97.485,359.8,30.46,3,324,-0.661,-0.041,9.698,1
637,35.246,-97.485,359.8,30.57,3,324,-0.708,0.098,9.551,1
638,35.246,-97.485,0,30.66,3,324,-0.647,-0.129,9.887,1
639,35.247,-97.485,0,30.86,3,324,-0.72,-0.235,9.838,0
640,35.247,-97.485,359.9,31.15,3,324,-0.733,-0.236,9.689,0
641,35.247,-97.485,359.9,31.38,3,324,-0.684,-0.12,9.836,0
642,35.247,-97.485,0,31.59,3,324,-0.628,-0.141,9.68,0
643,35.248,-97.485,0.1,31.78,3,325,-0.577,-0.199,9.733,0
644,35.248,-97.485,0,31.811,3,325,-0.633,-0.104,9.607,0
645,35.248,-97.485,0.1,32.66,3,325,-0.673,-0.068,9.678,0
646,35.249,-97.485,0,32.22,3,325,-0.705,-0.189,9.644,1
647,35.249,-97.485,0,32.44,3,325,-0.664,-0.135,9.681,1
648,35.249,-97.485,0,32.65,3,325,-0.708,-0.2,9.769,1
649,35.249,-97.485,0,32.8,3,325,-0.672,-0.118,9.833,1
650,35.25,-97.485,359.8,32.93,3,325,-0.688,-0.113,9.778,1
651,35.25,-97.485,0,33.021,3,326,-0.606,-0.117,9.588,1
652,35.25,-97.485,0,33.11,3,326,-0.574,-0.187,9.536,1
653,35.251,-97.485,359.8,33.15,3,327,-0.698,-0.087,9.817,1
654,35.251,-97.485,359.9,33.19,3,327,-0.388,0.242,9.665,1
655,35.251,-97.485,0,33.08,3,327,-0.204,0.155,9.727,1
656,35.252,-97.485,359.8,32.64,3,327,1.309,1.068,10.056,0
657,35.252,-97.485,359.9,31.34,3,327,1.657,1.295,9.954,0
658,35.252,-97.485,359.8,28.66,3,328,0.447,0.552,9.919,0
659,35.252,-97.485,0.1,26.37,3,328,-0.181,0.252,9.799,0
660,35.253,-97.485,0.1,25.83,3,328,-0.269,-0.035,9.723,0
661,35.253,-97.485,0,25.54,3,329,-0.383,0.034,9.728,0
662,35.253,-97.485,359.8,25.24,3,329,-0.342,0.176,9.815,0
663,35.253,-97.485,359.8,24.91,3,329,-0.376,0.217,9.907,0
664,35.253,-97.485,359.8,24.63,3,328,-0.528,0.073,9.694,0
665,35.254,-97.486,359.9,24.47,3,328,-0.689,-0.009,9.671,0
666,35.254,-97.486,359.9,24.46,3,328,-0.759,-0.22,9.778,0
667,35.254,-97.486,359.9,24.59,3,328,-0.815,-0.27,9.766,0
668,35.254,-97.486,359.9,24.83,3,328,-0.736,-0.066,9.633,0
669,35.255,-97.486,359.9,25.35,3,328,-0.94,-0.042,9.742,0
670,35.255,-97.486,0.1,25.82,3,328,-1.008,-0.14,9.607,0
671,35.255,-97.486,0.1,26.25,3,328,-0.775,-0.321,9.615,0
672,35.255,-97.486,359.9,26.64,3,328,-0.857,-0.15,9.653,0
673,35.256,-97.486,0,26.95,3,328,-0.844,-0.18,9.67,0
674,35.256,-97.486,0.1,27.17,3,329,-0.745,-0.159,9.66,1
675,35.256,-97.486,0.1,27.39,3,329,-0.74,0.019,9.737,1
676,35.256,-97.486,0.1,27.65,3,329,-0.755,-0.178,9.956,1
677,35.257,-97.486,359.9,27.94,3,329,-0.654,-0.099,9.735,0
678,35.257,-97.486,359.7,28.08,3,329,-0.506,-0.06,9.678,0
679,35.257,-97.486,359.5,28.02,3,328,-0.524,0.058,9.584,0
680,35.257,-97.486,359.7,28.02,3,328,-0.524,0.172,9.722,0
681,35.258,-97.486,359.9,27.84,3,328,-0.299,0.291,9.65,0
682,35.258,-97.486,359.9,27.52,3,328,-0.455,0.087,9.77,0
683,35.258,-97.486,359.9,27.47,3,328,-0.461,0.162,9.836,0
684,35.258,-97.486,0.1,27.43,3,329,-0.324,0.031,9.717,1
685,35.259,-97.486,0.2,27.28,3,329,-0.28,0.026,9.697,1
686,35.259,-97.486,0.1,27.05,3,329,-0.243,0.157,9.652,1
687,35.259,-97.485,0.1,26.68,3,329,-0.143,0.113,9.945,0
688,35.259,-97.486,0.1,26.32,3,329,-0.157,0.149,9.824,0
689,35.26,-97.486,0,25.98,3,330,-0.303,-0.04,9.803,0
690,35.26,-97.486,359.9,25.94,3,330,-0.591,0.04,9.752,0
691,35.26,-97.485,0,26.03,3,330,-0.551,-0.088,9.733,0
692,35.26,-97.485,359.8,26.12,3,330,-0.6,0.054,9.781,0
693,35.261,-97.486,359.8,26.19,3,330,-0.605,0.001,9.858,0
694,35.261,-97.486,359.9,26.27,3,330,-0.617,-0.019,9.78,0
695,35.261,-97.486,359.9,26.34,3,330,-0.617,0.061,9.904,0
697,35.261,-97.486,359.9,26.38,3,330,-0.563,0.061,9.652,0
697,35.261,-97.486,359.9,26.38,3,330,-0.563,0.061,9.652,0
698,35.262,-97.486,359.8,26.44,3,330,-0.855,-0.048,9.671,0
699,35.262,-97.486,359.9,26.75,3,329,-0.921,-0.212,9.625,0
700,35.262,-97.486,0.2,27.06,3,330,-0.946,-0.284,9.768,0
701,35.262,-97.486,0.6,27.661,3,330,-0.928,-0.218,9.679,1
702,35.263,-97.486,359.6,28.11,3,330,-0.927,-0.222,9.758,1
703,35.263,-97.486,359.7,28.52,3,330,-0.944,-0.142,9.702,1
704,35.263,-97.486,359.9,28.81,3,329,-0.59,0.065,9.897,1
705,35.263,-97.486,0,28.78,3,329,-0.641,0.247,9.789,1
706,35.264,-97.486,0.1,28.72,3,329,-0.472,0.155,9.896,1
707,35.264,-97.486,0.1,28.61,3,329,-0.639,-0.046,9.784,1
708,35.264,-97.486,0,28.65,3,329,-0.758,-0.026,9.939,1
709,35.264,-97.486,359.9,28.85,3,328,-0.717,-0.137,9.786,1
710,35.265,-97.486,359.9,29.1,3,328,-0.638,-0.106,9.684,1
711,35.265,-97.486,359.9,29.3,3,328,-0.801,-0.074,9.676,1
712,35.265,-97.486,359.9,29.55,3,328,-0.789,-0.086,9.756,1
713,35.265,-97.486,359.9,29.8,3,328,-0.697,0.063,9.856,1
714,35.266,-97.486,0.1,29.88,3,328,-0.716,0.032,9.615,1
715,35.266,-97.486,0.1,30.06,3,328,-0.805,0.051,9.526,1
716,35.266,-97.486,0.2,30.26,3,327,-0.69,0.004,9.783,1
717,35.267,-97.486,0.2,30.46,3,327,-0.531,-0.129,9.732,1
718,35.267,-97.486,0.1,30.6,3,328,-0.518,-0.173,9.846,1
719,35.267,-97.486,359.9,30.62,3,328,-0.583,-0.03,9.89,1
720,35.267,-97.486,0,30.69,3,328,-0.551,-0.01,9.768,1
721,35.268,-97.486,359.9,30.8,3,328,-0.574,-0.088,9.709,1
722,35.268,-97.486,359.9,30.87,3,327,-0.609,-0.157,9.611,1
723,35.268,-97.486,359.7,30.98,3,327,-0.669,0.013,9.58,1
724,35.268,-97.486,359.6,31.15,3,327,-0.584,-0.027,9.905,1
725,35.269,-97.486,359.7,31.28,3,327,-0.638,0.121,9.761,1
726,35.269,-97.486,359.7,31.36,3,326,-0.498,0.117,9.791,1
727,35.269,-97.486,359.8,31.46,3,326,-0.52,-0.068,9.968,1
728,35.27,-97.486,359.9,31.45,3,326,-0.714,-0.065,9.834,1
729,35.27,-97.486,359.9,31.61,3,326,-0.528,0.034,9.758,1
730,35.27,-97.486,359.9,31.78,3,326,-0.561,0.065,9.793,1
731,35.27,-97.486,0,31.851,3,326,-0.651,0.196,9.504,1
732,35.271,-97.486,359.9,31.961,3,325,-0.619,-0.065,9.741,1
733,35.271,-97.486,359.9,32.091,3,324,-0.707,0.049,9.659,1
734,35.271,-97.486,359.9,32.341,3,324,-0.751,0.095,9.844,1
735,35.272,-97.486,0,32.6,3,323,-0.74,-0.114,9.801,1
736,35.272,-97.486,0,32.87,3,324,-0.669,-0.223,9.808,1
737,35.272,-97.486,359.9,33.07,3,325,-0.643,-0.062,9.777,0
738,35.273,-97.486,359.9,33.34,3,325,-0.356,0.17,9.94,0
739,35.273,-97.486,0,33.16,3,325,-0.297,0.067,9.775,0
740,35.273,-97.486,359.8,33.151,3,325,-0.368,-0.057,9.727,0
741,35.274,-97.486,359.9,33.11,3,324,-0.48,0.105,9.804,0
742,35.274,-97.486,0.1,33.2,3,323,-0.598,0.233,9.818,0
743,35.274,-97.486,0.2,33.211,3,323,-0.323,0.103,9.902,0
744,35.275,-97.486,0,32.99,3,323,-0.485,0.052,9.821,0
745,35.275,-97.486,0,33.05,3,322,-0.53,0.1,9.805,0
746,35.275,-97.486,0.1,33.07,3,322,-0.366,0.081,9.875,0
747,35.276,-97.486,0,32.891,3,322,-0.214,0.149,9.836,0
748,35.276,-97.486,359.8,32.55,3,322,-0.216,0.414,9.827,0
749,35.276,-97.486,359.9,32.14,3,321,-0.151,0.285,10.137,0
750,35.276,-97.486,0,31.55,3,321,-0.058,0.419,10.066,0
751,35.277,-97.486,0.5,30.881,3,322,-0.301,0.64,9.976,0
752,35.277,-97.486,1.6,30.273,3,322,-0.373,0.582,9.941,0
753,35.277,-97.485,3.5,29.672,3,323,-0.473,0.713,9.845,0
754,35.277,-97.485,6.2,29.261,3,324,-0.91,1.359,10.128,0
755,35.278,-97.485,10.4,28.621,3,325,-1.044,1.38,9.756,0
756,35.278,-97.485,14.3,28.251,3,325,-0.896,0.998,9.869,0
757,35.278,-97.485,17.1,28.12,3,325,-0.523,0.16,9.613,0
758,35.278,-97.485,18.3,27.98,3,326,-0.412,-0.057,9.638,0
759,35.279,-97.485,18.7,27.88,3,326,-0.406,-0.47,9.715,0
760,35.279,-97.485,18.6,27.84,3,326,-0.481,-0.274,9.712,0
761,35.279,-97.485,18.6,27.82,3,326,-0.374,-0.24,9.651,0
762,35.279,-97.485,18.5,27.72,3,327,-0.504,-0.188,9.68,0
763,35.28,-97.485,18.1,27.71,3,327,-0.569,-0.138,9.693,0
764,35.28,-97.485,16,27.22,3,326,-0.447,-0.409,9.673,1
765,35.28,-97.484,16.7,27.85,3,326,-0.246,-1.107,9.513,1
767,35.28,-97.484,13.9,28.05,3,326,-0.172,-1.208,9.492,1
767,35.28,-97.484,13.9,28.05,3,326,-0.172,-1.208,9.492,1
768,35.281,-97.484,10.8,28.22,3,327,-0.33,-0.836,9.656,1
769,35.281,-97.484,8.4,28.42,3,327,-0.34,-1.086,9.661,1
770,35.281,-97.484,6.1,28.661,3,327,-0.377,-1.116,9.669,1
771,35.281,-97.484,3.5,28.921,3,328,-0.327,-1.178,9.58,1
772,35.282,-97.484,0.6,29.14,3,328,-0.247,-1.174,9.651,1
773,35.282,-97.484,357.6,29.41,3,328,-0.395,-1.095,9.676,1
774,35.282,-97.484,354.9,29.7,3,328,-0.331,-1.014,9.625,1
775,35.282,-97.484,352.4,29.98,3,328,-0.163,-1.006,9.63,1
776,35.283,-97.484,350,30.11,3,328,-0.089,-1.07,9.724,1
777,35.283,-97.484,347.2,30.131,3,328,-0.07,-1.122,9.702,1
778,35.283,-97.485,344.5,30.171,3,329,-0.478,-0.309,9.816,1
779,35.283,-97.485,343.3,30.192,3,329,-0.62,-0.097,9.61,1
780,35.284,-97.485,343,30.251,3,330,-0.803,-0.013,9.737,1
781,35.284,-97.485,343.1,30.39,3,331,-0.655,0.014,9.635,1
782,35.284,-97.485,343.4,30.47,3,331,-0.784,-0.078,9.63,1
783,35.285,-97.485,343.7,30.68,3,330,-0.571,-0.315,9.589,1
784,35.285,-97.485,343.5,30.91,3,329,-0.539,-0.379,9.778,1
785,35.285,-97.485,343.2,31.09,3,329,-0.6,-0.014,9.828,1
786,35.285,-97.485,343.1,31.24,3,330,-0.624,-0.061,9.674,1
787,35.286,-97.485,343.2,31.39,3,329,-0.68,-0.15,9.964,0
788,35.286,-97.486,343.3,31.55,3,330,-0.562,-0.146,9.706,0
789,35.286,-97.486,343.2,31.62,3,330,-0.57,-0.122,9.781,0
790,35.286,-97.486,343.1,31.66,3,330,-0.572,-0.207,9.695,0
791,35.287,-97.486,343.1,31.67,3,330,-0.624,-0.15,9.612,0
792,35.287,-97.486,343.2,31.81,3,330,-0.562,-0.149,9.697,0
793,35.287,-97.486,343.3,31.85,3,330,-0.417,-0.379,9.773,0
794,35.288,-97.486,343.3,31.89,3,331,-0.429,-0.203,9.701,1
795,35.288,-97.486,343.2,31.94,3,331,-0.554,-0.087,9.744,1
796,35.288,-97.486,343.4,31.991,3,331,-0.514,-0.32,9.881,1
797,35.288,-97.486,343.6,31.96,3,331,-0.413,-0.385,9.914,1
798,35.289,-97.487,343.6,31.97,3,331,-0.412,-0.428,9.761,1
799,35.289,-97.487,343.5,31.97,3,331,-0.491,-0.314,9.664,1
800,35.289,-97.487,343.3,32.02,3,333,-0.408,-0.277,9.472,1
801,35.289,-97.487,343.1,32.03,3,333,-0.548,-0.154,9.654,1
802,35.29,-97.487,343.1,32.03,3,332,-0.489,-0.247,9.754,1
803,35.29,-97.487,343.3,32.07,3,332,-0.462,-0.232,9.728,1
804,35.29,-97.487,343.3,32.12,3,332,-0.347,-0.408,9.568,1
805,35.291,-97.487,343.2,32.14,3,333,-0.509,-0.337,9.961,1
806,35.291,-97.487,343,32.15,3,333,-0.492,-0.226,9.601,1
807,35.291,-97.487,343.2,32.13,3,333,-0.446,-0.178,9.724,1
808,35.291,-97.488,343.5,32.04,3,333,-0.415,-0.163,9.523,1
809,35.292,-97.488,343.3,32.17,3,332,-0.321,-0.185,9.565,1
810,35.292,-97.488,343.4,32.07,3,332,-0.139,-0.333,9.669,1
811,35.293,-97.488,343.3,31.87,3,332,-0.143,-0.022,9.648,1
812,35.293,-97.488,343.4,31.76,3,332,-0.228,-0.345,9.701,1
813,35.293,-97.488,343.2,31.69,3,331,-0.417,-0.468,9.752,1
814,35.293,-97.488,343.1,31.9,3,331,-0.578,-0.499,9.837,1
815,35.294,-97.488,343.1,32.131,3,331,-0.473,-0.394,9.741,1
816,35.294,-97.488,343,32.371,3,330,-0.476,-0.349,9.574,1
817,35.294,-97.489,343.1,32.701,3,330,-0.464,-0.357,9.664,1
818,35.294,-97.489,343.2,32.92,3,330,-0.544,-0.273,9.599,1
819,35.295,-97.489,343.3,33.071,3,329,-0.362,-0.291,9.779,1
820,35.295,-97.489,343.4,33.22,3,329,-0.336,-0.278,9.54,1
821,35.295,-97.489,343.4,33.36,3,329,-0.332,-0.344,9.663,1
822,35.296,-97.489,343.4,33.36,3,328,-0.502,0.036,9.802,1
823,35.296,-97.489,344.2,33.411,3,328,-0.481,-0.02,9.902,1
824,35.296,-97.489,345,33.401,3,328,-0.53,0.017,9.892,1
825,35.296,-97.489,345.8,33.45,3,328,-0.361,0.063,10.062,0
826,35.297,-97.489,346.7,33.23,3,328,-0.208,0.298,9.795,0
827,35.297,-97.49,347.6,32.821,3,328,-0.333,0.462,9.815,0
828,35.297,-97.49,348.9,32.341,3,329,-0.148,0.575,10.062,0
829,35.298,-97.49,350.2,31.61,3,329,0.236,0.861,10.186,0
830,35.298,-97.49,351.6,30.37,3,329,-0.155,0.329,9.811,0
831,35.298,-97.49,352.4,29.88,3,329,-0.417,0.065,9.875,0
832,35.298,-97.49,353.5,29.44,3,332,-0.483,-0.047,9.838,0
833,35.299,-97.49,354.3,29.28,3,331,-0.476,-0.183,9.742,0
834,35.299,-97.49,355,29.24,3,331,-0.656,-0.055,9.774,0
835,35.299,-97.49,355.9,29.192,3,331,-0.635,-0.05,9.682,0
836,35.299,-97.49,356.9,29.162,3,332,-0.447,0.186,9.708,0
838,35.3,-97.49,358.1,28.942,3,333,-0.466,0.335,9.6,0
838,35.3,-97.49,358.1,28.942,3,333,-0.466,0.335,9.6,0
839,35.3,-97.49,359.4,28.612,3,333,-0.432,-0.285,9.548,1
840,35.3,-97.49,359.7,28.532,3,334,-0.525,-0.387,9.56,1
841,35.3,-97.49,359.8,28.581,3,334,-0.445,-0.403,9.628,1
842,35.301,-97.49,359.9,28.621,3,335,-0.615,-0.204,9.612,1
843,35.301,-97.49,0.1,28.69,3,335,-0.597,-0.336,9.637,1
844,35.301,-97.49,0.3,28.83,3,335,-0.595,-0.49,9.675,1
845,35.302,-97.49,0.3,29.04,3,335,-0.798,-0.644,9.572,1
846,35.302,-97.49,0.2,29.44,3,336,-0.911,-0.714,9.418,1
847,35.302,-97.49,0.2,30.13,3,336,-0.836,-0.774,9.555,1
848,35.302,-97.49,359.7,30.82,3,337,-0.957,-0.548,9.614,1
849,35.303,-97.49,359.8,31.41,3,337,-0.652,-0.239,9.713,1
850,35.303,-97.49,0.2,31.9,3,337,0.028,-0.221,9.731,1
851,35.303,-97.49,0.2,31.49,3,337,-0.093,0.123,9.565,1
852,35.303,-97.49,0.4,31.04,3,337,-0.118,0.099,9.794,1
853,35.304,-97.49,1,30.64,3,336,0.101,-0.041,9.699,1
854,35.304,-97.49,1,30.22,3,336,0.219,-0.319,9.671,1
855,35.304,-97.49,0.7,29.8,3,337,0.114,-0.331,9.815,1
856,35.305,-97.49,0.2,29.41,3,337,-0.011,-0.235,9.732,1
857,35.305,-97.49,359.9,29.02,3,336,0.057,-0.252,9.825,1
858,35.305,-97.49,359.3,28.941,3,337,0.029,-0.198,9.858,1
859,35.305,-97.49,0,29.021,3,337,-0.166,-0.436,9.89,1
860,35.306,-97.49,0.2,28.88,3,337,-0.124,-0.563,9.71,1
861,35.306,-97.49,359.2,27.91,3,337,-0.3,-0.53,10.057,0
862,35.306,-97.49,358.8,27.92,3,337,-0.406,-0.335,9.688,0
863,35.306,-97.49,358.4,27.96,3,337,-0.534,-0.101,9.624,0
864,35.307,-97.49,358.9,28.13,3,337,-0.647,-0.134,9.65,0
865,35.307,-97.49,359.4,28.34,3,337,-0.626,-0.379,9.83,0
866,35.307,-97.49,359.9,28.62,3,337,-0.538,-0.502,9.738,0
867,35.307,-97.49,359.9,28.87,3,337,-0.703,-0.59,9.52,0
868,35.308,-97.49,359.8,29.22,3,337,-0.817,-0.415,9.622,0
869,35.308,-97.49,0,29.72,3,336,-0.676,-0.385,9.775,1
870,35.308,-97.49,0,30.13,3,336,-0.658,-0.528,9.863,1
871,35.308,-97.49,0,30.5,3,336,-0.648,-0.676,9.759,1
872,35.309,-97.49,0,30.83,3,336,-0.567,-0.339,9.657,1
873,35.309,-97.49,0,31.1,3,337,-0.473,-0.285,9.564,1
874,35.309,-97.49,0.1,31.2,3,337,-0.482,-0.361,9.857,1
875,35.31,-97.49,0.1,31.27,3,336,-0.512,-0.595,9.849,0
876,35.31,-97.49,0,31.38,3,336,-0.467,-0.176,9.707,0
877,35.31,-97.49,0.1,31.51,3,336,-0.225,-0.19,9.676,0
878,35.31,-97.49,0.4,31.39,3,336,-0.118,-0.638,9.544,0
879,35.311,-97.49,359.7,31.26,3,337,-0.367,-0.306,9.657,0
880,35.311,-97.49,359.8,31.29,3,337,-0.51,-0.238,9.362,0
881,35.312,-97.49,359.8,31.321,3,337,-0.5,-0.29,9.654,0
882,35.312,-97.49,0.1,31.33,3,337,-0.455,-0.43,9.64,1
883,35.312,-97.49,0,31.321,3,338,-0.483,-0.348,9.679,1
884,35.312,-97.49,0,31.27,3,337,-0.178,-0.152,9.8,1
885,35.313,-97.49,0,30.93,3,337,-0.02,-0.222,9.89,1
886,35.313,-97.49,359.9,30.531,3,337,-0.239,-0.447,9.677,1
887,35.313,-97.49,359.8,30.421,3,338,-0.337,-0.294,9.584,1
888,35.313,-97.49,359.6,30.39,3,338,-0.365,-0.431,9.702,1
889,35.314,-97.49,359.7,30.351,3,339,-0.485,-0.227,9.856,1
890,35.314,-97.49,359.8,30.311,3,339,-0.301,-0.452,9.797,1
891,35.314,-97.49,359.9,30.271,3,339,-0.363,-0.503,9.608,1
892,35.315,-97.49,359.9,30.231,3,340,-0.403,-0.311,9.622,1
893,35.315,-97.49,0.1,30.18,3,339,-0.344,-0.555,9.697,1
894,35.315,-97.49,0.2,30.22,3,339,-0.418,-0.36,9.53,1
895,35.315,-97.49,0,30.19,3,340,-0.389,-0.485,9.646,1
896,35.316,-97.49,359.9,30.131,3,340,-0.285,-0.408,9.75,1
897,35.316,-97.49,359.9,29.991,3,341,-0.222,-0.275,9.686,1
898,35.316,-97.49,359.9,29.811,3,341,-0.196,-0.331,9.824,1
899,35.316,-97.49,359.9,29.551,3,341,-0.147,-0.373,9.614,1
900,35.317,-97.49,359.9,29.321,3,342,-0.48,-0.102,9.784,1
901,35.317,-97.49,0.2,29.18,3,341,-0.477,-0.303,9.778,1
902,35.317,-97.49,0.4,29.09,3,341,-0.248,-0.448,9.579,1
903,35.318,-97.49,0.1,29.08,3,342,-0.428,-0.363,9.693,1
905,35.318,-97.49,0,29.03,3,342,-0.446,-0.357,9.816,1
905,35.318,-97.49,0,29.03,3,342,-0.446,-0.357,9.816,1
906,35.318,-97.49,0,29.011,3,342,-0.339,-0.52,9.631,1
907,35.318,-97.49,359.9,29.001,3,342,-0.24,-0.531,9.566,1
908,35.319,-97.49,359.7,28.951,3,343,-0.364,-0.323,9.564,1
909,35.319,-97.49,359.7,28.911,3,343,-0.417,-0.311,9.616,1
910,35.319,-97.49,359.8,28.9,3,343,-0.324,-0.314,9.598,1
911,35.319,-97.49,359.9,28.86,3,343,-0.659,-0.121,9.766,1
912,35.32,-97.49,0,28.92,3,343,-0.502,-0.351,9.659,1
913,35.32,-97.49,0,29.02,3,343,-0.578,-0.326,9.555,1
914,35.32,-97.49,0.1,29.21,3,343,-0.579,-0.343,9.768,1
915,35.32,-97.49,0.2,29.14,3,343,-0.465,-0.376,9.861,1
916,35.321,-97.49,0,29.531,3,343,-0.43,-0.463,9.91,1
917,35.321,-97.49,359.8,29.76,3,343,-0.338,-0.534,9.687,1
918,35.321,-97.49,359.6,29.83,3,342,-0.534,-0.278,9.695,1
919,35.321,-97.49,359.7,29.95,3,342,-0.578,-0.243,9.819,1
920,35.322,-97.49,0,30.09,3,342,-0.538,-0.49,9.744,1
921,35.322,-97.49,0.1,30.28,3,342,-0.533,-0.6,9.82,1
922,35.322,-97.49,0,30.45,3,342,-0.49,-0.47,9.586,1
923,35.323,-97.49,0,30.64,3,342,-0.481,-0.402,9.789,1
924,35.323,-97.49,0,30.77,3,342,-0.354,-0.492,9.788,1
925,35.323,-97.49,359.9,30.84,3,342,-0.391,-0.47,9.778,1
926,35.323,-97.49,359.9,30.88,3,341,-0.436,-0.404,9.599,1
927,35.324,-97.49,359.9,30.94,3,342,-0.451,-0.356,9.494,1
928,35.324,-97.49,0.1,30.94,3,342,-0.363,-0.384,9.656,1
929,35.324,-97.49,0.1,30.95,3,342,-0.36,-0.408,9.583,1
930,35.325,-97.49,0.1,30.95,3,342,-0.284,-0.47,9.777,1
931,35.325,-97.49,0.1,30.95,3,342,-0.388,-0.369,9.609,1
932,35.325,-97.49,0.2,30.93,3,342,-0.371,-0.587,9.628,1
933,35.325,-97.49,0,30.911,3,342,-0.368,-0.503,9.638,1
934,35.326,-97.49,359.9,30.93,3,342,-0.385,-0.469,9.609,1
935,35.326,-97.49,359.9,30.94,3,342,-0.388,-0.526,9.509,1
936,35.326,-97.49,359.7,30.93,3,342,-0.394,-0.589,9.843,1
937,35.326,-97.49,359.7,30.95,3,342,-0.486,-0.407,9.858,1
938,35.327,-97.49,359.6,31,3,343,-0.416,-0.32,9.617,1
939,35.327,-97.49,359.8,30.99,3,343,-0.359,-0.384,9.598,1
940,35.327,-97.49,0,31,3,343,-0.463,-0.356,9.807,1
941,35.328,-97.49,359.8,31.06,3,344,-0.491,-0.463,9.767,1
942,35.328,-97.49,359.9,31.071,3,344,-0.443,-0.361,9.733,1
943,35.328,-97.49,0,31.07,3,345,-0.54,-0.301,9.64,1
944,35.328,-97.49,0,31.1,3,344,-0.437,-0.362,9.778,1
945,35.329,-97.49,0.2,31.11,3,344,-0.303,-0.57,9.585,1
946,35.329,-97.49,359.8,31.12,3,345,-0.301,-0.435,9.696,1
947,35.33,-97.49,359.8,31.12,3,346,-0.404,-0.277,9.821,1
948,35.33,-97.49,359.9,31.14,3,346,-0.456,-0.281,9.647,1
949,35.33,-97.49,0,31.121,3,345,-0.328,-0.374,9.616,1
950,35.33,-97.49,359.9,31.13,3,345,-0.299,-0.53,9.713,1
951,35.331,-97.49,359.8,31.1,3,345,-0.383,-0.364,9.749,1
952,35.331,-97.49,359.8,31.1,3,346,-0.382,-0.343,9.73,0
953,35.331,-97.49,359.8,31.07,3,346,-0.429,-0.331,9.973,0
954,35.332,-97.49,359.8,31.1,3,346,-0.629,-0.128,9.915,0
955,35.332,-97.49,0,31.11,3,346,-0.472,-0.179,9.622,0
956,35.332,-97.49,359.9,31.1,3,346,-0.406,-0.202,9.738,0
957,35.332,-97.49,359.8,31.13,3,346,-0.349,-0.327,9.774,0
958,35.333,-97.49,359.4,31.111,3,346,-0.348,-0.489,9.756,0
959,35.333,-97.49,358.6,31.11,3,347,-0.189,-0.693,9.467,1
960,35.333,-97.49,357.1,31.13,3,347,-0.336,-0.595,9.725,1
961,35.333,-97.49,355.8,31.18,3,346,-0.331,-0.438,9.714,1
962,35.334,-97.49,354.7,31.19,3,347,-0.299,-0.618,9.798,1
963,35.334,-97.49,353.6,30.87,3,347,-0.266,-0.656,9.762,0
964,35.334,-97.49,351.8,31.051,3,348,-0.248,-0.85,9.573,0
965,35.335,-97.49,350.3,31.14,3,348,-0.146,-0.863,9.703,0
966,35.335,-97.49,348.7,31.151,3,348,-0.237,-0.706,9.908,0
967,35.335,-97.49,347.2,31.14,3,349,-0.313,-0.565,9.859,0
968,35.335,-97.49,346.1,31.13,3,349,-0.269,-0.523,9.618,0
969,35.336,-97.49,344.7,31.16,3,349,-0.276,-0.48,9.776,0
970,35.336,-97.491,343.4,31.07,3,349,-0.449,-0.372,9.69,0
971,35.336,-97.491,342.6,31.061,3,349,-0.484,-0.445,9.924,0
973,35.337,-97.491,341.9,31.003,3,349,-0.442,-0.295,10.01,0
973,35.337,-97.491,341.9,31.003,3,349,-0.442,-0.295,10.01,0
974,35.337,-97.491,341.6,30.835,3,350,-0.446,-0.317,9.618,0
975,35.337,-97.491,341.5,30.676,3,351,-0.652,-0.176,9.769,0
976,35.337,-97.491,341.8,30.578,3,351,-0.555,-0.261,9.692,0
977,35.338,-97.491,342.2,30.425,3,352,-0.535,-0.443,9.494,0
978,35.338,-97.491,342.2,30.423,3,352,-0.412,-0.757,9.195,0
979,35.338,-97.491,341.7,30.502,3,353,-1.03,-0.774,9.793,0
980,35.338,-97.492,341.3,30.661,3,353,-0.64,-0.757,9.488,0
981,35.339,-97.492,341.2,30.832,3,354,-0.354,-0.366,9.041,1
982,35.339,-97.492,341.2,30.962,3,354,-0.458,-0.44,9.438,1
983,35.339,-97.492,341.4,31.121,3,355,-0.392,-0.482,9.54,1
984,35.339,-97.492,341.5,31.28,3,355,-0.358,-0.558,9.823,1
985,35.34,-97.492,341.5,31.38,3,355,-0.278,-0.636,9.655,1
986,35.34,-97.492,341.4,31.43,3,355,-0.32,-0.432,9.685,1
987,35.34,-97.492,341.2,31.46,3,355,-0.391,-0.427,9.87,1
988,35.34,-97.492,341.3,31.47,3,356,-0.263,-0.379,9.578,1
989,35.341,-97.493,341.3,31.38,3,356,-0.322,-0.362,9.585,1
990,35.341,-97.493,341.4,31.39,3,356,-0.334,-0.372,9.778,1
991,35.341,-97.493,341.4,31.38,3,356,-0.367,-0.378,9.592,1
992,35.342,-97.493,341.5,31.39,3,356,-0.353,-0.37,9.817,1
993,35.342,-97.493,341.5,31.42,3,356,-0.194,-0.45,9.593,1
994,35.342,-97.493,341.4,31.46,3,356,-0.276,-0.259,9.854,1
995,35.342,-97.493,341.4,31.49,3,357,-0.287,-0.291,9.584,1
996,35.343,-97.493,341.3,31.45,3,357,-0.075,-0.233,9.728,1
997,35.343,-97.493,341.3,31.27,3,357,-0.317,0.002,9.993,0
998,35.343,-97.494,341.5,30.951,3,356,-0.457,-0.099,9.886,0
999,35.343,-97.494,341.9,31.06,3,356,-0.358,0.297,10.029,0
1000,35.344,-97.494,342.3,30.99,3,356,-0.368,0.33,9.57,0
1001,35.344,-97.494,342.9,30.751,3,355,-0.386,0.058,9.536,0
1002,35.344,-97.494,343.7,31.081,3,355,-0.526,0.13,9.567,0
1003,35.344,-97.494,344.7,30.911,3,355,-0.605,0.184,9.768,0
1004,35.345,-97.494,345.6,31.121,3,354,-0.54,0.116,9.895,0
1005,35.345,-97.494,346.8,31.272,3,354,-0.613,0.28,10.181,0
1006,35.345,-97.494,348.2,31.422,3,353,-0.388,0.158,10.167,0
1007,35.346,-97.494,349.2,31.31,3,353,-0.53,0.15,10.065,0
1008,35.346,-97.494,350,31.14,3,353,-0.647,0.165,9.955,0
1009,35.346,-97.494,351.1,31.071,3,353,-0.447,0.33,9.777,0
1010,35.346,-97.494,352.1,30.92,3,353,-0.537,0.065,9.66,0
1011,35.347,-97.495,353.3,30.741,3,354,-0.598,-0.136,9.731,0
1012,35.347,-97.495,354.3,30.77,3,354,-0.582,-0.054,9.738,0
1013,35.347,-97.495,355,30.821,3,354,-0.565,-0.062,9.549,0
1014,35.347,-97.495,355.9,30.89,3,355,-0.629,0.035,9.81,0
1015,35.348,-97.495,356.8,30.88,3,355,-0.688,0.092,9.877,0
1016,35.348,-97.495,358.8,30.951,3,355,-0.693,0.106,9.633,0
1017,35.349,-97.495,359.4,30.931,3,356,-0.555,-0.255,9.677,0
1018,35.349,-97.495,359.8,31.101,3,357,-0.486,-0.152,8.067,0
1019,35.349,-97.495,359.7,31.491,3,357,-0.643,-0.229,9.454,0
1020,35.349,-97.495,0.3,30.951,3,357,-0.37,-0.454,9.776,0
1021,35.35,-97.495,359.9,30.931,3,356,-0.179,-0.279,9.242,0
1022,35.35,-97.495,359.8,30.89,3,357,-0.267,-0.386,9.441,1
1023,35.35,-97.495,359.7,30.89,3,356,-0.323,-0.53,9.441,1
1024,35.351,-97.495,359.6,30.921,3,357,-0.435,-0.598,9.937,0
1025,35.351,-97.495,359.5,30.901,3,357,-0.476,-0.517,9.562,0
1026,35.351,-97.495,359.5,30.881,3,358,-0.347,-0.47,9.674,0
1027,35.351,-97.495,359.5,30.901,3,358,-0.374,-0.402,9.419,0
1028,35.352,-97.495,359.6,30.861,3,359,-0.417,-0.38,9.797,0
1029,35.352,-97.495,359.6,30.831,3,360,-0.299,-0.601,9.621,0
1030,35.352,-97.495,359.5,30.821,3,360,-0.319,-0.464,9.698,0
1031,35.353,-97.495,359.6,30.74,3,360,-0.526,-0.529,10.05,0
1032,35.353,-97.495,359.6,30.761,3,361,-0.335,-0.387,9.887,0
1033,35.353,-97.495,359.6,30.761,3,361,-0.332,-0.517,9.828,0
1034,35.353,-97.495,359.4,30.751,3,362,-0.339,-0.408,9.38,0
1035,35.354,-97.495,359.5,30.771,3,362,-0.412,-0.37,9.749,0
1036,35.354,-97.495,359.3,30.892,3,362,-0.398,-0.416,9.787,0
1037,35.354,-97.495,359.7,30.781,3,359,-0.468,-0.503,9.778,0
1038,35.354,-97.495,359.9,30.79,3,360,-0.307,-0.599,9.558,0
1039,35.355,-97.495,359.7,30.79,3,361,-0.586,-0.462,10.036,0
1040,35.355,-97.495,359.7,30.84,3,361,-0.267,-0.318,9.476,0
1041,35.355,-97.495,359.7,30.891,3,362,-0.398,-0.246,9.748,0
1042,35.356,-97.495,359.8,30.91,3,362,-0.341,-0.542,9.823,0
1044,35.356,-97.495,359.6,30.931,3,363,-0.372,-0.615,9.723,0
1044,35.356,-97.495,359.6,30.931,3,363,-0.372,-0.615,9.723,0
1045,35.356,-97.495,359.4,30.991,3,363,-0.432,-0.515,9.609,0
1046,35.356,-97.495,359.2,31.011,3,362,-0.541,-0.214,9.747,0
1047,35.357,-97.495,359.3,30.981,3,363,-0.597,-0.216,9.707,0
1048,35.357,-97.495,359.3,30.94,3,362,-0.44,-0.281,9.597,0
1049,35.357,-97.495,359.3,30.89,3,362,-0.28,-0.443,9.572,0
