time,lat,lng,bearing,spd,acc,alt,accx,accy,accz,stable,
0,35.211,-97.441,0,0.04,5,319,-2.922,-0.671,9.002,1
1,35.211,-97.441,0,0.04,5,319,-3.982,-1.346,8.795,1
2,35.211,-97.441,269.2,1.8513,3,321,-3.941,-1.321,8.867,1
3,35.211,-97.441,268.6,3.4007,3,321,-3.816,-1.276,8.873,1
4,35.211,-97.441,268.4,4.811,3,321,-3.866,-0.971,8.897,0
5,35.211,-97.441,268.5,6.1303,3,321,-3.444,-0.866,8.547,0
6,35.211,-97.441,268.9,7.2306,3,321,-3.504,-0.799,8.846,0
7,35.211,-97.441,269.5,8.1107,3,321,-3.395,-0.907,9.063,0
8,35.211,-97.441,270,9.0408,3,322,-3.407,-0.945,8.432,0
9,35.211,-97.442,270.3,9.9504,3,322,-2.971,-0.935,8.661,0
10,35.211,-97.442,270.5,10.771,3,322,-2.792,-0.95,8.777,0
11,35.211,-97.442,269.7,11.49,3,322,-2.929,-0.791,8.744,0
12,35.211,-97.442,269.1,12,3,322,-2.498,-0.45,8.724,0
13,35.211,-97.442,268.5,12.11,3,323,-2.964,-0.657,9.176,0
14,35.211,-97.442,268.7,12.4,3,322,-2.712,-0.496,8.662,0
15,35.211,-97.442,269.5,12.49,3,323,-3.024,-0.516,9.138,0
16,35.211,-97.442,270,12.81,3,323,-2.886,-0.38,9.183,0
17,35.211,-97.443,269.9,12.82,3,323,-2.826,-0.589,9.166,0
18,35.211,-97.443,269.9,13.05,3,323,-2.191,-0.757,9.756,0
20,35.211,-97.443,269.9,13.01,3,323,-1.569,0.159,9.716,0
20,35.211,-97.443,269.9,13.01,3,323,-1.569,0.159,9.716,0
21,35.211,-97.443,270,11.88,3,323,-1.205,0.518,9.251,0
22,35.211,-97.443,269.9,10.12,3,323,-1.413,-0.082,9.544,0
23,35.211,-97.443,269.9,8.55,9,323,-1.968,0.089,9.542,0
24,35.211,-97.443,269.8,7.52,9,322,-1.437,0.291,9.525,0
25,35.211,-97.443,269.7,6.1,9,322,-2.497,-0.36,9.227,1
26,35.211,-97.443,269.7,5.27,9,322,-2.053,-0.102,9.521,1
27,35.211,-97.443,269.7,4.83,9,322,-2.591,-0.327,9.187,1
28,35.211,-97.444,269.8,4.3106,9,322,-3.19,-0.597,8.969,1
29,35.211,-97.444,271.3,6.271,9,323,-4.678,-2.28,8.694,0
30,35.211,-97.444,277.1,8.3937,9,323,-4.84,-2.146,8.258,0
31,35.211,-97.444,276.6,10.773,9,323,-4.522,-4.176,9.511,0
32,35.211,-97.444,278.3,12.552,9,323,-3.68,-2.156,8.196,1
33,35.211,-97.444,277.5,13.9,9,323,-3.164,-1.974,8.961,0
34,35.211,-97.444,276.2,14.44,9,323,-3.106,-1.898,8.719,1
35,35.211,-97.444,273.7,15.16,9,322,-2.934,-1.646,8.998,1
36,35.211,-97.445,272.7,15.66,9,322,-2.416,-1.184,7.124,1
37,35.211,-97.445,271.9,16.231,9,321,-2.998,-1.44,8.691,0
38,35.211,-97.445,271.2,16.73,9,322,-2.928,-1.401,8.833,1
39,35.211,-97.445,270.9,17.22,9,321,-3.466,-1.506,8.322,0
40,35.211,-97.445,270.6,17.56,9,321,-2.354,-0.933,8.963,1
41,35.211,-97.446,270.4,17.31,9,321,-2.024,-1.104,9.177,0
42,35.211,-97.446,270.2,16.97,9,321,-2.067,-1.128,9.293,0
43,35.211,-97.446,269.8,16.571,9,321,-2.383,-0.891,9.007,0
44,35.211,-97.446,269.4,16.26,9,320,-2.462,-0.936,9.575,1
45,35.211,-97.446,269,15.92,9,321,-2.423,-0.744,8.724,0
46,35.211,-97.446,269,15.58,9,321,-2.528,-0.828,9.219,0
47,35.211,-97.447,268.7,15.25,9,321,-2.428,-0.919,9.564,0
48,35.211,-97.447,268.6,14.89,9,320,-2.464,-0.859,9.498,0
49,35.211,-97.447,268.6,13.92,9,320,-0.565,0.782,9.717,0
50,35.211,-97.447,268.6,11.38,9,320,-1.705,-0.596,9.52,0
51,35.211,-97.447,268.4,10.02,9,321,-2.081,-0.595,9.545,0
52,35.211,-97.447,268.2,9.12,9,320,-1.646,-0.562,9.671,0
53,35.211,-97.447,268.1,8.09,9,320,-1.892,-0.613,9.311,1
54,35.211,-97.447,267.9,7.25,9,319,-2.019,-0.809,9.35,1
55,35.211,-97.448,267.7,6.55,9,319,-1.563,-0.483,9.145,0
56,35.211,-97.448,267.9,5.42,9,319,-1.53,-0.328,9.78,1
57,35.211,-97.448,267.7,4.41,9,319,-1.605,-0.124,9.658,1
58,35.211,-97.448,267.4,3.2604,9,319,-1.918,-0.465,9.225,1
59,35.211,-97.448,267,1.9521,9,320,-1.585,-0.109,9.471,1
60,35.211,-97.448,266.7,0.7433,9,320,-2.512,-1.103,9.014,1
61,35.211,-97.448,266.7,0.7433,9,320,-2.532,-1.102,9.145,1
62,35.211,-97.448,266.7,0.7433,9,320,-2.547,-1.144,9.258,1
64,35.211,-97.448,266.7,0.7433,9,320,-2.533,-1.119,8.993,1
64,35.211,-97.448,266.7,0.7433,9,320,-2.533,-1.119,8.993,1
65,35.211,-97.448,266.7,0.7433,9,320,-2.587,-1.102,9.126,1
66,35.211,-97.448,266.7,0.7433,9,320,-2.573,-1.134,9.144,1
67,35.211,-97.448,266.7,0.7433,9,320,-2.561,-1.121,9.095,1
68,35.211,-97.448,266.7,0.7433,9,320,-2.545,-1.132,9.057,1
69,35.211,-97.448,266.7,0.7433,9,320,-2.576,-1.136,9.179,1
70,35.211,-97.448,266.7,0.7433,9,320,-2.551,-1.129,9.072,1
71,35.211,-97.448,266.7,0.7433,9,320,-2.582,-1.116,9.141,1
72,35.211,-97.448,266.7,0.7433,9,320,-2.552,-1.135,9.075,1
73,35.211,-97.448,266.7,0.7433,9,320,-2.573,-1.121,9.162,1
74,35.211,-97.448,266.7,0.7433,9,320,-2.551,-1.132,9.2,1
75,35.211,-97.448,266.7,0.7433,9,320,-2.56,-1.132,9.138,1
76,35.211,-97.448,266.7,0.7433,9,320,-2.57,-1.129,9.093,1
77,35.211,-97.448,266.7,0.7433,9,320,-2.583,-1.127,9.141,1
78,35.211,-97.448,266.7,0.7433,9,320,-2.54,-1.13,9.052,1
79,35.211,-97.448,266.7,0.7433,9,320,-2.526,-1.122,9.021,1
80,35.211,-97.448,266.7,0.7433,9,320,-2.577,-1.116,9.033,1
81,35.211,-97.448,266.7,0.7433,9,320,-2.547,-1.13,9.056,1
82,35.211,-97.448,266.7,0.7433,9,320,-2.563,-1.128,9.071,1
83,35.211,-97.448,266.7,0.7433,9,320,-2.561,-1.14,9.068,1
84,35.211,-97.448,266.7,0.7433,9,320,-2.548,-1.13,9.09,1
85,35.211,-97.448,266.7,0.7433,9,320,-2.901,-1.491,8.818,1
86,35.211,-97.448,266.7,0.7433,9,320,-4.622,-3.208,8.116,0
87,35.211,-97.448,264.5,3.7702,9,319,-4.039,-2.832,7.942,0
88,35.211,-97.448,264.5,6.2301,9,319,-3.915,-2.368,8.462,0
89,35.211,-97.448,264.1,8.0902,9,320,-3.419,-2.27,8.328,1
90,35.211,-97.448,264.4,9.5503,9,320,-3.358,-2.187,8.077,1
91,35.211,-97.448,264.6,10.881,9,320,-2.734,-1.574,8.978,1
92,35.211,-97.448,264.5,11.882,9,321,-2.825,-1.565,8.745,1
93,35.211,-97.448,267.3,12.583,9,320,-3.088,-1.504,8.773,0
94,35.211,-97.449,267.7,13.093,9,321,-3.185,-1.504,9.188,0
95,35.211,-97.449,268.4,13.841,9,321,-3.257,-1.226,9.022,0
96,35.211,-97.449,269.1,14.491,9,320,-2.558,-1.809,8.388,0
97,35.211,-97.449,269.5,15.04,9,320,-2.931,-1.522,9.115,0
98,35.211,-97.449,269.7,15.591,9,320,-2.73,-1.101,9.048,1
99,35.211,-97.449,270.1,15.831,9,321,-2.527,-1.249,9.635,0
100,35.211,-97.45,270.1,15.901,9,320,-2.381,-1.43,8.985,0
101,35.211,-97.45,269.9,16.19,9,320,-2.693,-1.343,8.989,0
102,35.211,-97.45,269.8,16.45,9,320,-2.064,-0.887,8.57,0
103,35.211,-97.45,269.8,16.25,9,320,-2.452,-0.852,9.537,1
104,35.211,-97.45,269.8,15.89,9,320,-2.414,-1.164,8.871,0
105,35.211,-97.45,269.7,15.81,9,320,-2.499,-1.41,9.43,0
106,35.211,-97.451,270,15.87,9,320,-2.359,-1.047,9.001,0
108,35.211,-97.451,270.1,15.82,9,320,-2.499,-0.697,8.124,0
108,35.211,-97.451,270.1,15.82,9,320,-2.499,-0.697,8.124,0
109,35.211,-97.451,270.2,15.561,9,320,-2.422,-1.486,8.626,0
110,35.211,-97.451,269.9,15.59,9,320,-2.683,-1.168,8.645,1
111,35.211,-97.451,269.9,15.71,9,320,-2.373,-1.463,8.618,0
112,35.211,-97.451,269.9,15.89,9,320,-2.235,-0.904,8.851,1
113,35.211,-97.452,269.7,15.85,9,319,-2.396,-1.254,8.676,1
114,35.211,-97.452,270.1,15.77,9,320,-2.418,-1.252,8.766,1
115,35.211,-97.452,270.2,16.011,9,319,-2.139,-1.095,9.349,1
116,35.211,-97.452,270.4,15.821,9,319,-2.331,-1.408,9.214,1
117,35.211,-97.452,270.3,16.013,9,318,-2.153,-1.538,8.358,0
118,35.211,-97.453,270.4,16.274,9,318,-2.281,-1.201,9.655,0
119,35.211,-97.453,270.6,16.123,9,317,-2.216,-1.035,9.086,1
120,35.211,-97.453,270.6,15.951,9,317,-2.075,-1.162,9.531,0
121,35.211,-97.453,270.6,15.74,9,315,-2.221,-1.161,9.488,0
122,35.211,-97.453,270.5,15.603,9,314,-1.921,-1.059,8.959,0
123,35.211,-97.454,270.5,15.471,9,314,-1.823,-1.01,9.65,0
124,35.211,-97.454,270.5,14.357,9,314,-1.369,-0.088,9.459,0
125,35.211,-97.454,270.6,13.575,9,313,-2.244,-0.961,9.327,0
126,35.211,-97.454,270.7,13.338,9,313,-1.77,-1.044,9.889,0
127,35.211,-97.454,270.5,12.868,9,313,-1.819,-0.914,9.748,0
128,35.211,-97.454,270.4,12.354,9,313,-1.944,-1.24,9.227,1
129,35.211,-97.454,270.2,12.314,9,313,-2.037,-1.179,8.664,1
130,35.211,-97.455,269.9,12.302,9,312,-2.189,-1.358,8.828,0
131,35.211,-97.455,270.2,12.151,9,312,-2.443,-1.326,10.253,0
132,35.211,-97.455,270.3,11.84,9,313,-2.616,-1.371,8.789,0
133,35.211,-97.455,270.3,11.95,9,313,-2.604,-1.262,9.144,0
134,35.211,-97.455,270.5,11.88,9,313,-2.272,-1.145,9.482,1
135,35.211,-97.455,270.7,11.552,9,315,-2.665,-1.32,8.931,0
136,35.211,-97.455,270.9,11.373,9,315,-2.485,-1.644,8.915,0
137,35.211,-97.455,270.5,11.413,9,315,-2.833,-1.856,8.813,1
138,35.211,-97.456,270,11.615,9,315,-2.277,-1.464,9.181,0
139,35.211,-97.456,269.9,11.365,9,315,-2.725,-1.578,9.007,1
140,35.211,-97.456,269.8,11.353,9,314,-2.436,-1.294,9.003,0
141,35.211,-97.456,269.9,11.063,9,314,-2.576,-1.719,8.705,0
142,35.211,-97.456,270.1,11.073,9,315,-2.03,-1.136,8.782,1
143,35.211,-97.456,270.3,10.85,9,315,-2.791,-1.555,9.129,1
144,35.211,-97.456,270.5,10.89,9,315,-2.893,-1.815,8.963,0
145,35.211,-97.456,270.2,11.14,9,315,-2.738,-1.579,9.068,1
146,35.211,-97.457,270.3,11.58,9,315,-2.824,-1.55,8.195,0
147,35.211,-97.457,270.5,12.19,9,314,-2.982,-1.64,9.122,1
148,35.211,-97.457,270.3,12.68,9,315,-2.806,-1.712,8.513,1
149,35.211,-97.457,270.4,13.23,9,315,-2.649,-1.349,8.662,1
150,35.211,-97.457,270.5,13.94,9,315,-2.279,-0.944,9.04,0
151,35.211,-97.457,270.4,13.75,9,315,-2.26,-1.332,9.325,0
152,35.211,-97.457,270.3,13.77,9,315,-2.266,-0.958,9.348,0
153,35.211,-97.458,270.2,13.44,9,316,-2.437,-0.868,8.978,0
154,35.211,-97.458,270.5,13.03,9,316,-2.31,-1.112,9.142,0
155,35.211,-97.458,270.7,12.87,9,316,-2.632,-1.515,8.731,1
157,35.211,-97.458,270.2,12.67,9,317,-1.933,-1.192,9.116,0
157,35.211,-97.458,270.2,12.67,9,317,-1.933,-1.192,9.116,0
158,35.211,-97.458,268.8,12.49,9,317,-1.934,-0.815,9.35,1
159,35.211,-97.458,267.3,11.61,9,317,-1.91,-0.038,9.501,0
160,35.211,-97.458,267.3,10.66,9,317,-1.472,0.378,9.733,0
161,35.211,-97.459,269.3,8.81,9,316,-1.966,-0.586,9.515,1
162,35.211,-97.459,270.5,7.8305,9,317,-1.685,-0.106,9.571,0
163,35.211,-97.459,270.9,6.6807,9,317,-1.822,-0.329,9.64,1
164,35.211,-97.459,270.9,5.2008,9,317,-1.584,-0.088,9.841,0
165,35.211,-97.459,270.7,3.8,9,317,-1.85,-0.307,9.495,1
166,35.211,-97.459,270.6,2.31,9,317,-2.135,-0.549,9.248,1
167,35.211,-97.459,270.5,1.31,9,317,-2.4,-0.878,9.257,1
168,35.211,-97.459,270.6,0.99045,9,318,-4.294,-2.798,8.181,1
169,35.211,-97.459,269.7,3.4201,9,318,-2.995,-3.365,8.956,0
170,35.211,-97.459,253.9,5.1614,9,317,-0.917,-4.327,8.853,0
171,35.211,-97.459,227.1,6.3501,9,318,-0.946,-4.187,8.759,0
172,35.211,-97.459,204.9,7.8703,3,319,-1.648,-3.807,8.657,0
173,35.211,-97.459,191.4,9.1004,3,319,-2.381,-3.406,8.77,0
174,35.211,-97.459,182.7,10.44,3,318,-2.764,-2.933,8.992,0
175,35.211,-97.459,179.3,11.66,3,319,-3.094,-2.155,8.882,0
176,35.211,-97.459,177,12.811,3,318,-3.282,-2.342,9.486,0
177,35.211,-97.459,177.4,13.95,3,318,-3.244,-1.511,8.779,0
178,35.21,-97.459,179.1,14.6,3,318,-2.643,-0.723,8.837,0
179,35.21,-97.459,180.8,14.76,3,317,-2.586,-1.416,9.275,0
180,35.21,-97.459,181.2,14.85,3,317,-2.659,-1.35,8.697,0
181,35.21,-97.459,180.7,14.68,3,317,-2.881,-1.567,9.549,0
182,35.21,-97.459,180.6,14.97,3,317,-2.943,-1.498,9.563,0
183,35.21,-97.459,180.7,15.161,3,316,-2.278,-0.918,9.144,0
184,35.21,-97.459,180.6,14.81,3,316,-2.54,-1.412,9.261,0
185,35.21,-97.459,180.3,14.71,3,316,-2.421,-1.143,8.005,0
186,35.209,-97.459,180.3,14.76,3,316,-2.449,-1.406,9.209,1
187,35.209,-97.459,180.3,14.76,3,315,-2.519,-1.452,9.173,0
188,35.209,-97.459,180.3,14.81,3,315,-2.352,-1.109,8.711,0
189,35.209,-97.459,180,14.83,4,315,-2.624,-1.385,9.366,0
190,35.209,-97.459,179.7,14.84,4,316,-2.669,-1.347,9.704,0
191,35.209,-97.459,179.6,14.85,4,315,-2.396,-1.235,8.859,1
192,35.209,-97.459,179.6,14.85,4,316,-2.296,-1.396,9.205,0
193,35.208,-97.459,179.6,14.83,4,316,-2.122,-1.349,8.983,0
194,35.208,-97.459,179.8,14.75,3,316,-2.775,-1.387,8.953,1
195,35.208,-97.459,180,14.68,4,316,-2.51,-1.262,9.454,0
196,35.208,-97.459,180.1,14.61,4,315,-2.1,-1.283,9.056,0
197,35.208,-97.459,179.9,14.31,4,316,-2.063,-1.273,8.821,0
198,35.208,-97.459,179.6,14.291,4,316,-2.577,-1.51,9.277,1
199,35.208,-97.459,179.3,14.341,5,316,-2.593,-1.039,9.377,0
200,35.208,-97.459,179.5,14.001,5,316,-2.51,-1.393,9.21,0
201,35.207,-97.459,179.7,13.991,5,316,-2.576,-1.229,9.743,0
202,35.207,-97.459,179.5,14.231,5,316,-2.615,-1.429,8.958,0
203,35.207,-97.459,179.4,14.21,4,316,-2.725,-1.55,9.534,0
204,35.207,-97.459,179.5,14.581,4,316,-2.543,-1.49,8.946,1
205,35.207,-97.459,179.5,14.921,4,317,-2.21,-0.94,9.316,0
206,35.207,-97.459,179.3,14.794,5,318,-2.723,-1.378,8.565,1
207,35.207,-97.459,179.4,14.515,4,319,-2.23,-1.197,9.32,1
208,35.206,-97.459,179.4,14.329,4,320,-2.376,-0.914,9.023,0
210,35.206,-97.459,179.5,13.821,4,321,-2.209,-0.974,9.083,0
210,35.206,-97.459,179.5,13.821,4,321,-2.209,-0.974,9.083,0
211,35.206,-97.459,179.7,13.546,4,321,-2.543,-1.258,8.634,0
212,35.206,-97.459,179.7,13.133,4,320,-2.338,-1.307,8.953,1
213,35.206,-97.459,179.5,13.231,4,321,-2.293,-1.244,9.434,1
214,35.206,-97.459,179.4,13.362,4,319,-2.404,-1.129,9.555,0
215,35.206,-97.459,179.3,13.431,4,320,-2.196,-0.927,8.932,1
216,35.206,-97.459,179.4,13.317,4,319,-2.417,-1.098,9.031,0
217,35.206,-97.459,179.4,13.436,4,319,-2.197,-1.09,8.674,0
218,35.205,-97.459,179.6,13.467,4,319,-2.414,-0.853,9.566,0
219,35.205,-97.459,179.6,13.336,4,318,-2.284,-0.821,9.636,0
220,35.205,-97.459,179.7,13.175,4,318,-2.292,-0.431,9.413,0
221,35.205,-97.459,180.2,11.856,4,316,-2.018,-0.199,9.516,0
222,35.205,-97.459,182.2,10.963,4,316,-2.329,-0.271,10.288,0
223,35.205,-97.459,183.9,9.9722,4,316,-1.992,-0.143,9.769,0
224,35.205,-97.459,184.7,8.7021,4,315,-1.428,0.205,9.162,0
225,35.205,-97.459,184.9,7.58,4,316,-1.217,-0.635,9.374,0
226,35.205,-97.459,184.2,6.3304,4,315,-1.224,-0.607,9.533,0
227,35.204,-97.459,183.2,5.15,4,315,-1.513,-1.14,9.597,0
228,35.204,-97.459,182.5,4.2401,4,315,-2.031,-0.851,8.779,0
229,35.204,-97.459,182,3.16,4,316,-1.592,-0.177,9.258,1
230,35.204,-97.459,181.7,1.88,4,316,-1.639,-0.579,9.25,0
231,35.204,-97.459,181.5,0.9,4,315,-1.887,-0.635,9.495,1
232,35.204,-97.459,181.5,0.9,4,315,-2.455,-1.263,9.139,1
233,35.204,-97.459,181.5,0.9,4,315,-2.44,-1.263,9.036,1
234,35.204,-97.459,181.5,0.9,4,315,-2.492,-1.269,9.216,1
235,35.204,-97.459,181.5,0.9,4,315,-2.428,-1.277,8.965,1
236,35.204,-97.459,181.5,0.9,4,315,-2.5,-1.272,9.18,1
237,35.204,-97.459,181.5,0.9,4,315,-2.456,-1.275,9.031,1
238,35.204,-97.459,181.5,0.9,4,315,-2.495,-1.278,9.037,1
239,35.204,-97.459,0,0.04,10,317,-2.469,-1.277,9.038,1
240,35.204,-97.459,0,0.04,10,317,-2.467,-1.273,9.125,1
241,35.204,-97.459,0,0.04,10,317,-2.452,-1.268,9.081,1
242,35.204,-97.459,0,0.04,10,317,-2.476,-1.26,9.115,1
243,35.204,-97.459,0,0.04,10,317,-2.463,-1.269,9.02,1
244,35.204,-97.459,0,0.04,10,317,-2.467,-1.266,8.977,1
245,35.204,-97.459,0,0.04,10,317,-2.477,-1.259,8.975,1
246,35.204,-97.459,0,0.04,10,317,-2.476,-1.267,9.091,1
247,35.204,-97.459,0,0.03,9,319,-2.445,-1.247,9.027,1
248,35.204,-97.459,0,0.03,9,319,-2.478,-1.276,9.008,1
249,35.204,-97.459,0,0.03,9,319,-2.463,-1.264,9.01,1
250,35.204,-97.459,0,0.03,9,319,-2.449,-1.279,9.143,1
251,35.204,-97.459,0,0.03,9,319,-2.474,-1.282,9.217,1
252,35.204,-97.459,0,0.03,9,319,-2.478,-1.282,9.221,1
253,35.204,-97.459,0,0.03,9,319,-2.466,-1.28,9.217,1
254,35.204,-97.459,0,0.03,9,319,-2.456,-1.279,8.987,1
255,35.204,-97.459,0,0.03,9,320,-2.477,-1.267,9.232,1
256,35.204,-97.459,0,0.03,9,320,-2.469,-1.28,9.205,1
257,35.204,-97.459,0,0.03,9,320,-2.479,-1.263,8.979,1
258,35.204,-97.459,0,0.03,9,320,-2.435,-1.273,8.98,1
259,35.204,-97.459,0,0.03,9,320,-2.476,-1.281,9.147,1
260,35.204,-97.459,0,0.03,9,320,-2.483,-1.282,9.185,1
261,35.204,-97.459,0,0.03,9,320,-2.456,-1.275,9.173,1
262,35.204,-97.459,0,0.03,9,320,-2.487,-1.28,9.141,1
263,35.204,-97.459,0,0.03,9,321,-2.452,-1.286,9.123,1
264,35.204,-97.459,0,0.03,9,321,-2.457,-1.27,9.073,1
266,35.204,-97.459,0,0.03,9,321,-2.479,-1.272,8.976,1
266,35.204,-97.459,0,0.03,9,321,-2.479,-1.272,8.976,1
267,35.204,-97.459,0,0.03,9,321,-2.658,-1.474,9.008,1
268,35.204,-97.459,0,0.03,9,321,-2.528,-1.341,8.884,1
269,35.204,-97.459,0,0.03,9,321,-2.527,-1.329,9.174,1
270,35.204,-97.459,181.2,0.5009,9,321,-2.811,-1.729,8.883,1
271,35.204,-97.459,181.2,0.5009,9,321,-2.826,-1.563,9.051,1
272,35.204,-97.459,181,1.4003,9,320,-3.812,-2.413,8.452,1
273,35.204,-97.459,180.8,2.4201,9,320,-3.075,-2.376,8.539,0
274,35.204,-97.459,181.2,3.54,9,320,-3.128,-2.065,8.42,0
275,35.204,-97.459,181.1,4.78,9,320,-3.353,-2.421,8.674,0
276,35.204,-97.459,180.6,5.6606,9,320,-2.289,-1.511,9.127,1
277,35.204,-97.459,179.4,6.68,9,320,-4.15,0.326,9.25,0
278,35.204,-97.459,202.1,6.8801,9,320,-4.252,1.135,9.097,0
279,35.204,-97.459,233.3,7.63,9,320,-6.038,1.501,8.755,0
280,35.204,-97.459,264.3,9.17,9,320,-5.169,-2.089,8.487,0
281,35.204,-97.459,273.3,10.3,9,320,-3.726,-2.782,8.292,0
282,35.204,-97.459,272.1,12.13,9,319,-3.521,-2.641,8.636,1
283,35.204,-97.46,270.8,13.78,9,319,-3.3,-2.019,8.893,1
284,35.204,-97.46,270.9,14.83,9,319,-2.882,-2.031,8.758,0
285,35.204,-97.46,271,15.52,9,319,-2.589,-1.712,8.611,0
286,35.204,-97.46,270.9,15.84,9,318,-2.545,-1.749,8.991,0
287,35.204,-97.46,270.6,15.96,9,318,-2.582,-1.578,9.123,1
288,35.204,-97.46,270.4,16.22,9,319,-2.42,-1.296,9.097,1
289,35.204,-97.461,270.5,16.23,9,319,-2.357,-1.325,9.063,1
290,35.204,-97.461,270.6,16.14,9,318,-2.114,-1.478,9.336,1
291,35.204,-97.461,270.8,16.07,9,319,-2.164,-1.071,8.793,0
292,35.204,-97.461,270.9,15.76,9,319,-2.065,-1.318,8.999,0
293,35.204,-97.461,270.4,15.43,9,319,-2.477,-1.538,9.515,0
294,35.204,-97.461,269.9,15.37,9,319,-2.262,-1.48,9.268,1
295,35.204,-97.462,269.5,15.36,9,319,-2.503,-1.328,9.029,1
296,35.204,-97.462,269.8,15.37,9,319,-2.384,-1.45,9.098,0
297,35.204,-97.462,270.2,15.35,9,319,-2.488,-1.343,9.062,1
298,35.204,-97.462,270.3,15.31,9,319,-2.318,-1.438,9.271,1
299,35.204,-97.462,270.2,15.25,9,319,-2.423,-1.332,9.095,1
300,35.204,-97.462,270,15.2,9,319,-2.399,-1.473,9.481,1
301,35.204,-97.463,270,15.23,9,319,-2.365,-1.29,8.519,0
302,35.204,-97.463,270.2,15.28,9,319,-2.573,-1.437,9.185,0
303,35.204,-97.463,270.3,15.33,9,319,-2.371,-1.394,8.911,1
304,35.204,-97.463,270.4,15.36,9,319,-2.58,-1.541,10.062,0
305,35.204,-97.463,270.4,15.34,9,318,-2.46,-1.35,9.097,0
306,35.204,-97.463,270.4,15.31,9,318,-2.443,-1.111,8.411,0
307,35.204,-97.464,270.3,15.31,9,318,-2.286,-1.465,8.773,1
308,35.204,-97.464,270.1,15.26,9,318,-2.37,-1.373,8.83,1
309,35.204,-97.464,270.1,15.26,9,318,-2.249,-1.395,8.869,0
310,35.204,-97.464,270,15.26,9,318,-2.339,-1.36,8.671,0
311,35.204,-97.464,269.9,15.23,9,319,-2.325,-1.532,9.117,1
312,35.204,-97.465,269.8,15.26,9,319,-2.422,-1.432,9.04,1
313,35.204,-97.465,269.9,15.27,9,318,-2.481,-1.54,9.146,0
314,35.204,-97.465,269.7,15.29,9,319,-2.495,-1.454,9.16,1
315,35.204,-97.465,269.7,15.36,9,319,-2.434,-1.412,9.125,1
316,35.204,-97.465,269.8,15.46,9,319,-2.606,-1.369,8.968,1
317,35.204,-97.465,269.8,15.54,9,318,-2.397,-1.405,9.21,1
318,35.204,-97.466,269.8,15.55,9,319,-2.191,-1.277,9.261,0
319,35.204,-97.466,269.9,15.46,9,319,-2.367,-1.248,9.552,1
321,35.204,-97.466,270.1,15.09,9,319,-2.406,-1.478,8.376,1
321,35.204,-97.466,270.1,15.09,9,319,-2.406,-1.478,8.376,1
322,35.204,-97.466,270.1,14.95,9,319,-2.355,-1.685,9.135,0
323,35.204,-97.466,270.2,15.091,9,319,-2.633,-1.478,9.074,0
324,35.204,-97.466,270.1,15.21,9,319,-2.31,-1.569,9.07,0
325,35.204,-97.467,270,15.36,9,319,-2.513,-1.825,9.069,0
326,35.204,-97.467,269.9,15.6,9,319,-2.381,-1.816,9.152,1
327,35.204,-97.467,269.9,15.85,9,319,-2.456,-1.809,9.074,1
328,35.204,-97.467,269.7,16.08,9,319,-2.462,-1.717,8.638,1
329,35.204,-97.467,269.7,16.38,9,319,-2.675,-1.649,8.865,0
330,35.204,-97.467,269.7,16.7,9,319,-2.839,-1.65,9.099,1
331,35.204,-97.468,269.8,17.06,9,319,-2.794,-1.689,9.255,0
332,35.204,-97.468,270,17.4,9,319,-2.213,-1.583,8.627,0
333,35.204,-97.468,270.2,18.13,9,319,-2.455,-1.408,9.015,1
334,35.204,-97.468,270.3,18.021,9,319,-2.404,-1.459,9.408,0
335,35.204,-97.469,270.3,18.07,9,319,-2.417,-1.494,9.143,1
336,35.204,-97.469,270.2,18.03,10,319,-2.287,-1.247,9.363,1
337,35.204,-97.469,270.3,17.78,10,319,-2.177,-1.32,9.438,0
338,35.204,-97.469,270.2,17.86,9,319,-2.332,-1.398,9.107,1
339,35.204,-97.469,270.1,17.88,9,319,-2.224,-1.365,8.714,1
340,35.204,-97.47,269.9,17.92,10,319,-2.475,-1.763,9.225,0
341,35.204,-97.47,269.8,18.13,10,319,-2.409,-1.562,8.574,0
342,35.204,-97.47,269.7,18.27,10,319,-2.746,-1.574,8.775,0
343,35.204,-97.47,269.7,18.441,9,319,-2.65,-1.7,9.15,1
344,35.204,-97.47,269.8,18.67,9,319,-2.557,-1.72,9.134,0
345,35.204,-97.471,270,18.83,9,319,-2.738,-1.736,9.512,0
346,35.204,-97.471,270,19.06,9,319,-2.567,-1.578,9.621,0
347,35.204,-97.471,270,19.12,9,319,-2.06,-1.388,8.86,1
348,35.204,-97.471,269.9,18.88,9,319,-2.237,-1.133,9.213,1
349,35.204,-97.471,269.8,18.55,9,319,-2.408,-1.097,9.503,0
350,35.204,-97.472,270,18.251,9,319,-2.261,-1.195,9.094,0
351,35.204,-97.472,270.1,17.891,9,320,-2.347,-1.025,9.39,1
352,35.204,-97.472,270.2,17.561,9,320,-2.4,-1.351,8.665,0
353,35.204,-97.472,270.3,17.421,9,320,-2.414,-1.655,9.137,0
354,35.204,-97.472,270.1,17.42,9,320,-2.163,-1.467,8.469,0
355,35.204,-97.473,269.8,17.46,9,320,-2.303,-1.34,8.83,1
356,35.204,-97.473,269.9,17.57,9,321,-2.418,-1.27,8.958,1
357,35.204,-97.473,270.2,17.6,9,321,-2.068,-1.185,9.317,0
358,35.204,-97.473,270.2,17.37,9,320,-2.376,-1.741,9.774,0
359,35.204,-97.473,270.1,17.22,9,320,-2.321,-1.498,8.904,0
360,35.204,-97.474,270,17.12,9,320,-2.308,-1.14,9.311,0
361,35.204,-97.474,270.1,16.741,9,321,-1.923,-1.171,8.951,0
362,35.204,-97.474,270.1,16.37,9,320,-2.062,-1.181,8.728,0
363,35.204,-97.474,270,15.91,9,320,-2.027,-1.212,9.131,1
364,35.204,-97.474,269.8,15.54,9,321,-2.092,-1.173,9.307,1
365,35.204,-97.474,269.8,15.13,9,320,-2.05,-1.158,8.972,1
366,35.204,-97.475,269.9,14.7,9,320,-2.071,-0.904,8.615,1
367,35.204,-97.475,269.8,14.29,10,320,-2.102,-1.256,9.092,1
368,35.204,-97.475,269.9,13.94,10,320,-2.458,-1.005,9.397,0
369,35.204,-97.475,270.1,13.59,11,320,-2.191,-1.112,8.879,1
370,35.204,-97.475,270,13.21,9,320,-2.176,-1.394,9.668,0
371,35.204,-97.475,270,12.88,9,320,-1.964,-1.154,8.946,1
372,35.204,-97.475,270.1,12.5,10,320,-1.984,-1.08,9.519,1
373,35.204,-97.476,270.2,11.98,10,320,-1.497,-0.287,9.823,0
374,35.204,-97.476,270.4,10.36,9,320,-1.436,-0.468,9.106,0
375,35.204,-97.476,270.9,9.02,10,320,-1.623,-0.205,9.405,0
376,35.204,-97.476,271.4,7.58,9,320,-1.539,-0.413,9.669,0
377,35.204,-97.476,272.4,6,9,320,-1.862,-0.341,9.303,0
379,35.204,-97.476,273.1,4.7,9,320,-1.362,-0.418,9.908,0
379,35.204,-97.476,273.1,4.7,9,320,-1.362,-0.418,9.908,0
380,35.204,-97.476,273.3,3.1803,9,319,-2.088,-1.022,9.364,1
381,35.204,-97.476,273,2.3102,9,319,-1.998,-1.008,9.244,1
382,35.204,-97.476,272.9,1.81,9,319,-1.736,-0.721,9.541,1
383,35.204,-97.476,272.9,1.01,9,319,-1.946,-0.956,9.217,1
384,35.204,-97.476,272.9,1.01,9,319,-2.419,-1.358,9.067,1
385,35.204,-97.476,272.9,1.01,9,319,-2.426,-1.384,9.188,1
386,35.204,-97.476,272.9,1.01,9,319,-2.379,-1.414,9.045,1
387,35.204,-97.476,272.9,1.01,9,319,-2.39,-1.408,9.212,1
388,35.204,-97.476,272.9,1.01,9,319,-2.431,-1.392,9.181,1
389,35.204,-97.476,272.9,1.01,9,319,-2.414,-1.388,9.101,1
390,35.204,-97.476,272.9,1.01,9,319,-2.408,-1.402,9.104,1
391,35.204,-97.476,272.9,1.01,9,319,-2.401,-1.383,8.987,1
392,35.204,-97.476,272.9,1.01,9,319,-2.435,-1.38,9.006,1
393,35.204,-97.476,272.9,1.01,9,319,-2.388,-1.4,9.143,1
394,35.204,-97.476,272.9,1.01,9,319,-2.414,-1.386,8.977,1
395,35.204,-97.476,272.9,1.01,9,319,-2.406,-1.407,8.998,1
396,35.204,-97.476,272.9,1.01,9,319,-2.401,-1.366,9.036,1
397,35.204,-97.476,272.9,1.01,9,319,-2.404,-1.394,9.017,1
398,35.204,-97.476,272.9,1.01,9,319,-2.41,-1.399,8.985,1
399,35.204,-97.476,272.9,1.01,9,319,-2.433,-1.366,9.113,1
400,35.204,-97.476,272.9,1.01,9,319,-2.407,-1.388,8.976,1
401,35.204,-97.476,272.9,1.01,9,319,-2.389,-1.404,9.191,1
402,35.204,-97.476,272.9,1.01,9,319,-2.454,-1.393,9.173,1
403,35.204,-97.476,272.9,1.01,9,319,-2.407,-1.404,9.22,1
404,35.204,-97.476,272.9,1.01,9,319,-2.429,-1.378,9.205,1
405,35.204,-97.476,272.9,1.01,9,319,-2.423,-1.422,9.232,1
406,35.204,-97.476,272.9,1.01,9,319,-2.408,-1.385,9.182,1
407,35.204,-97.476,272.9,1.01,9,319,-2.432,-1.373,9.171,1
408,35.204,-97.476,272.9,1.01,9,319,-2.406,-1.398,9.106,1
409,35.204,-97.476,272.9,1.01,9,319,-2.413,-1.384,9.025,1
410,35.204,-97.476,272.9,1.01,9,319,-2.422,-1.406,9.12,1
411,35.204,-97.476,272.9,1.01,9,319,-2.421,-1.37,8.954,1
412,35.204,-97.476,272.9,1.01,9,319,-2.4,-1.408,9.221,1
413,35.204,-97.476,272.9,1.01,9,319,-2.397,-1.404,9.133,1
414,35.204,-97.476,272.9,1.01,9,319,-2.418,-1.394,9.062,1
415,35.204,-97.476,272.9,1.01,9,319,-2.432,-1.389,9.181,1
416,35.204,-97.476,272.9,1.01,9,319,-2.419,-1.404,8.988,1
417,35.204,-97.476,272.9,1.01,9,319,-2.406,-1.362,8.971,1
418,35.204,-97.476,272.9,1.01,9,319,-2.411,-1.382,9.084,1
419,35.204,-97.476,272.9,1.01,9,319,-2.43,-1.382,9.061,1
420,35.204,-97.476,272.9,1.01,9,319,-2.401,-1.381,8.986,1
421,35.204,-97.476,272.9,1.01,9,319,-2.439,-1.386,9.03,1
422,35.204,-97.476,272.9,1.01,9,319,-2.408,-1.399,9.174,1
423,35.204,-97.476,272.9,1.01,9,319,-2.428,-1.395,9.173,1
424,35.204,-97.476,272.9,1.01,9,319,-2.423,-1.406,9.198,1
425,35.204,-97.476,272.9,1.01,9,319,-2.425,-1.392,9.114,1
426,35.204,-97.476,272.9,1.01,9,319,-2.431,-1.406,9.17,1
427,35.204,-97.476,272.9,1.01,9,319,-2.388,-1.407,9.172,1
428,35.204,-97.476,272.9,1.01,9,319,-2.408,-1.395,9.125,1
429,35.204,-97.476,272.9,1.01,9,319,-2.433,-1.377,8.976,1
430,35.204,-97.476,272.9,1.01,9,319,-2.419,-1.4,8.993,1
431,35.204,-97.476,272.9,1.01,9,319,-2.404,-1.397,9.191,1
432,35.204,-97.476,272.9,1.01,9,319,-2.426,-1.39,9.002,1
433,35.204,-97.476,272.9,1.01,9,319,-2.422,-1.394,8.987,1
434,35.204,-97.476,272.9,1.01,9,319,-2.417,-1.382,9.019,1
435,35.204,-97.476,272.9,1.01,9,319,-2.43,-1.394,9.05,1
436,35.204,-97.476,272.9,1.01,9,319,-2.415,-1.388,9.092,1
437,35.204,-97.476,272.9,1.01,9,319,-2.421,-1.38,8.986,1
438,35.204,-97.476,272.9,1.01,9,319,-2.447,-1.399,9.142,1
439,35.204,-97.476,272.9,1.01,9,319,-2.393,-1.396,9.156,1
440,35.204,-97.476,272.9,1.01,9,319,-2.407,-1.382,9.052,1
442,35.204,-97.476,272.9,1.01,9,319,-2.43,-1.432,9.212,1
442,35.204,-97.476,272.9,1.01,9,319,-2.43,-1.432,9.212,1
443,35.204,-97.476,272.9,1.01,9,319,-2.424,-1.38,9.171,1
444,35.204,-97.476,272.9,1.01,9,319,-2.431,-1.364,8.921,1
445,35.204,-97.476,272.9,1.01,9,319,-2.446,-1.401,9.238,1
446,35.204,-97.476,272.9,1.01,9,319,-2.425,-1.359,8.935,1
447,35.204,-97.476,272.9,1.01,9,319,-2.418,-1.384,8.966,1
448,35.204,-97.476,272.9,1.01,9,319,-2.382,-1.404,8.93,1
449,35.204,-97.476,272.9,1.01,9,319,-2.42,-1.397,8.925,1
450,35.204,-97.476,272.9,1.01,9,319,-2.416,-1.407,9.242,1
451,35.204,-97.476,272.9,1.01,9,319,-2.404,-1.411,9.191,1
452,35.204,-97.476,272.9,1.01,9,319,-2.418,-1.402,9.251,1
453,35.204,-97.476,272.9,1.01,9,319,-2.453,-1.388,9.233,1
454,35.204,-97.476,272.9,1.01,9,319,-2.382,-1.399,8.976,1
455,35.204,-97.476,272.9,1.01,9,319,-2.432,-1.391,9.233,1
456,35.204,-97.476,272.9,1.01,9,319,-2.722,-1.716,8.732,1
457,35.204,-97.476,272.9,1.01,9,319,-2.685,-1.671,9.114,1
458,35.204,-97.476,273.5,1.13,3,318,-2.727,-1.752,9.075,1
459,35.204,-97.476,273.5,2.22,3,318,-3.156,-2.265,8.655,1
460,35.204,-97.476,274.3,3.35,3,318,-3.009,-2.26,8.775,1
461,35.204,-97.476,273.8,4.4202,3,318,-3.202,-2.215,8.614,1
462,35.204,-97.476,273.1,5.44,3,318,-2.901,-2.198,8.557,1
463,35.204,-97.476,272.5,6.56,3,318,-2.848,-2.253,8.652,0
464,35.204,-97.476,272,7.6302,3,317,-3.212,-2.158,8.56,0
465,35.204,-97.477,271.4,8.59,3,318,-3.106,-2.176,7.901,0
466,35.204,-97.477,271,9.4801,3,318,-3.091,-1.985,8.453,0
467,35.204,-97.477,270.7,10.47,3,318,-2.992,-2.478,8.64,0
468,35.204,-97.477,270.3,11.5,3,318,-3.231,-2.537,8.234,0
469,35.204,-97.477,270,12.66,3,318,-3.225,-2.235,8.543,0
470,35.204,-97.477,269.8,13.811,3,318,-3.374,-2.134,8.895,0
471,35.204,-97.477,269.9,14.841,3,318,-3.349,-1.997,8.641,1
472,35.204,-97.478,270.1,15.733,3,319,-2.771,-1.715,9.217,1
473,35.204,-97.478,270,15.933,3,319,-2.319,-1.288,9,0
474,35.204,-97.478,269.9,15.623,3,319,-2.213,-1.096,9.386,0
475,35.204,-97.478,269.9,15.123,3,320,-2.289,-1.063,9.025,0
476,35.204,-97.478,269.8,14.582,3,320,-1.793,-0.395,9.794,0
477,35.204,-97.478,270,13.232,3,320,-2.074,-0.856,8.902,0
478,35.204,-97.478,270.2,12.022,3,320,-2.544,-0.477,9.309,0
479,35.204,-97.479,272.4,10.921,3,320,-2.576,-0.638,9.127,1
480,35.204,-97.479,275.9,10.18,3,320,-2.871,-0.019,8.98,0
481,35.204,-97.479,282.2,9.7401,3,320,-2.768,-0.147,8.755,0
482,35.204,-97.479,290.6,9.37,3,320,-3.994,-0.536,8.73,0
483,35.204,-97.479,300.3,9.6501,3,321,-4.251,-0.309,9.127,0
484,35.204,-97.479,312.4,10.431,3,320,-4.808,0.072,8.834,0
485,35.204,-97.479,325.3,11.06,3,321,-4.249,-0.472,8.894,0
486,35.204,-97.479,336.8,11.9,3,321,-3.412,-1.403,8.721,1
487,35.204,-97.479,341.9,12.571,3,321,-2.967,-1.779,8.796,1
488,35.205,-97.479,342.2,13.274,3,321,-2.904,-1.576,8.979,1
489,35.205,-97.479,342.1,14.138,3,320,-3.093,-2.132,9.011,1
490,35.205,-97.479,342,15.487,3,320,-2.958,-2.162,8.583,1
491,35.205,-97.479,341.6,16.879,3,319,-3.058,-2.07,8.724,1
492,35.205,-97.48,341.4,18.261,3,318,-2.996,-2.099,8.749,0
493,35.205,-97.48,341.3,19.4,3,317,-2.954,-1.764,9.03,0
494,35.205,-97.48,341.5,20.457,3,316,-2.681,-1.607,9.188,0
495,35.206,-97.48,341.3,21.183,3,316,-2.533,-1.891,9.13,0
496,35.206,-97.48,341,21.771,3,315,-3.127,-1.571,9.261,0
497,35.206,-97.48,341.1,22.84,3,314,-3.022,-1.464,9.256,0
498,35.206,-97.48,341,23.35,3,314,-2.67,-1.673,8.39,1
499,35.206,-97.48,339.8,23.82,3,314,-3.245,-2.227,7.796,0
500,35.207,-97.48,338.9,24.51,3,314,-3.697,-2.092,9.047,0
502,35.207,-97.48,338,25.73,3,315,-3.337,-1.643,9.005,1
502,35.207,-97.48,338,25.73,3,315,-3.337,-1.643,9.005,1
503,35.207,-97.48,337.8,26.48,3,315,-2.775,-1.65,9.04,0
504,35.207,-97.481,337.3,26.88,4,316,-2.738,-1.765,9.01,1
505,35.208,-97.481,336,27.181,4,316,-2.28,-1.801,9.574,0
506,35.208,-97.481,334.2,27.272,3,317,-2.899,-1.749,9.242,1
507,35.208,-97.481,332.6,27.522,3,316,-3.355,-1.348,9.165,1
508,35.208,-97.481,332.2,28.152,3,316,-3.033,-1.414,8.899,0
509,35.208,-97.481,331.8,28.372,3,317,-3.095,-1.366,8.809,0
510,35.209,-97.481,331.4,28.653,3,317,-2.83,-1.766,8.894,1
511,35.209,-97.481,331,28.903,3,318,-2.787,-1.704,9.186,1
512,35.209,-97.482,330.3,29.222,3,318,-3.044,-1.807,9.006,0
513,35.21,-97.482,330.7,30.232,3,319,-3.247,-1.866,8.781,1
514,35.21,-97.482,331.8,31.041,3,320,-3.318,-1.501,8.671,1
515,35.21,-97.482,332,31.82,3,319,-2.647,-2.401,8.475,1
516,35.21,-97.482,331.4,32.52,3,320,-2.764,-2.542,9.59,0
517,35.211,-97.483,330.8,33.3,3,320,-3.055,-2.246,9.403,0
518,35.211,-97.483,330.5,34.1,3,320,-3.179,-2.134,9.709,0
519,35.211,-97.483,331,34.86,3,320,-3.696,-1.467,9.108,1
520,35.211,-97.483,331.8,35.74,3,320,-3.279,-1.667,8.453,1
521,35.212,-97.483,332,36.54,3,320,-2.463,-2.272,8.419,0
522,35.212,-97.484,330.9,37.16,3,320,-2.494,-2.069,7.837,0
523,35.212,-97.484,330.5,37.91,3,320,-2.705,-1.759,8.033,0
524,35.213,-97.484,331.1,38.72,3,321,-4.107,-0.828,8.771,0
525,35.213,-97.484,333.1,39.51,3,322,-3.207,-0.191,9.937,0
526,35.213,-97.484,335.5,39.12,3,322,-3.425,0.195,9.293,0
527,35.214,-97.485,337.6,38.501,3,323,-2.967,0.001,9.277,0
528,35.214,-97.485,339.4,37.661,3,324,-2.928,-0.219,9.617,0
529,35.214,-97.485,341.1,37.011,3,325,-2.694,-0.54,9.339,0
530,35.214,-97.485,342.7,36.411,3,325,-3.297,0.156,9.595,0
531,35.215,-97.485,345.1,35.77,3,324,-2.963,-0.64,9.23,1
532,35.215,-97.485,346.8,35.35,3,324,-2.532,-0.292,8.217,0
533,35.215,-97.485,348.5,35.06,3,325,-3.178,-0.834,9.529,0
534,35.216,-97.485,350,34.9,3,325,-3.258,-0.716,9.372,0
535,35.216,-97.485,351.7,34.841,3,325,-3.394,-0.445,9.234,0
536,35.216,-97.485,353.7,34.771,3,325,-3.307,-0.425,8.758,0
537,35.217,-97.485,355.7,34.7,3,325,-2.814,-0.744,8.353,0
538,35.217,-97.485,357.2,34.622,3,325,-2.968,-0.698,8.347,1
539,35.217,-97.485,358.9,34.551,3,325,-2.557,-0.724,9.693,0
540,35.218,-97.485,359.7,34.04,3,325,-2.473,-0.731,9.356,0
541,35.218,-97.485,0.3,33.561,3,326,-2.195,-1.244,8.981,1
542,35.218,-97.485,359.8,33.14,3,326,-2.842,-0.918,9.052,0
543,35.218,-97.485,0,32.74,3,326,-2.478,-1.079,9.261,0
544,35.219,-97.485,359.6,32.33,3,326,-2.588,-1.138,8.403,0
545,35.219,-97.485,359.7,32.07,4,326,-2.842,-1.293,9.249,0
546,35.219,-97.485,359.5,31.981,5,327,-2.923,-0.987,8.87,1
547,35.22,-97.485,359.6,32.031,4,327,-3.065,-0.896,9.1,1
548,35.22,-97.485,359.9,32.171,3,327,-2.911,-1.196,9.395,0
549,35.22,-97.485,0,32.331,3,327,-2.845,-1.261,9.071,0
550,35.221,-97.485,0.1,32.911,3,324,-2.633,-1.336,8.826,1
551,35.221,-97.485,359.9,33.06,3,326,-2.917,-0.947,8.921,1
552,35.221,-97.485,0,33.15,3,326,-2.746,-1.021,8.612,0
553,35.221,-97.485,0.1,33.151,3,327,-2.903,-1.172,9.068,1
554,35.222,-97.485,0.1,33.161,4,327,-2.729,-1.16,8.876,1
555,35.222,-97.485,0.1,33.16,4,328,-2.704,-1.133,8.936,1
556,35.222,-97.485,0.1,33.16,4,328,-2.72,-1.146,8.99,1
557,35.223,-97.485,0,33.3,3,332,-2.731,-1.287,9.322,1
558,35.223,-97.485,359.6,33.2,3,332,-3.013,-1.11,9.331,1
559,35.223,-97.485,359.8,33.04,3,332,-2.791,-1.245,9.372,1
560,35.224,-97.485,359.8,33.1,3,334,-2.789,-1.101,8.848,1
561,35.224,-97.485,359.8,33.12,3,335,-2.94,-0.96,8.82,1
562,35.224,-97.485,0,33.26,3,336,-2.88,-0.992,8.915,1
563,35.224,-97.485,0.3,33.33,3,336,-2.685,-0.939,8.747,1
565,35.225,-97.485,0.1,33.27,3,336,-2.867,-1.102,8.988,1
565,35.225,-97.485,0.1,33.27,3,336,-2.867,-1.102,8.988,1
566,35.225,-97.485,0,33.2,4,338,-2.822,-1.099,8.995,1
567,35.225,-97.485,0,33.41,4,339,-2.706,-1.16,9.146,1
568,35.226,-97.485,0.1,33.351,4,340,-2.868,-1.035,9.032,1
569,35.226,-97.485,359.9,33.32,4,341,-2.731,-0.992,8.985,1
570,35.226,-97.485,0.1,33.16,4,340,-2.777,-1.218,9.286,1
571,35.227,-97.485,0,33.33,4,341,-2.842,-0.998,8.94,1
572,35.227,-97.485,0.1,33.29,4,342,-2.893,-0.98,9.015,1
573,35.227,-97.485,0,33.24,4,343,-2.894,-1.067,9.046,1
574,35.227,-97.485,0,33.281,4,344,-2.919,-1.078,9.127,1
575,35.228,-97.485,0.1,33.381,3,344,-2.828,-0.942,8.97,1
576,35.228,-97.485,0.1,33.401,3,344,-2.817,-1.088,9.072,1
577,35.228,-97.485,0,33.301,3,345,-3.053,-1.021,9.231,1
578,35.229,-97.485,0.1,33.381,4,347,-2.897,-1.025,8.81,1
579,35.229,-97.485,0.1,33.381,4,347,-2.874,-1.117,9.048,1
580,35.229,-97.485,0.1,33.29,3,347,-2.817,-1.114,8.997,1
581,35.23,-97.485,0,33.45,4,347,-2.88,-1.033,9.176,1
582,35.23,-97.485,359.9,33.44,4,347,-2.936,-1.05,9.031,1
583,35.23,-97.485,359.7,33.26,4,348,-2.94,-0.969,9.141,1
584,35.231,-97.485,359.7,33.27,4,348,-2.807,-1.139,9.001,1
585,35.231,-97.485,359.6,33.34,4,349,-2.77,-1.11,8.929,1
586,35.231,-97.485,359.9,33.42,4,350,-2.827,-1.063,9.08,1
587,35.232,-97.485,359.8,33.4,4,350,-2.888,-1.017,8.83,1
588,35.232,-97.485,359.9,33.43,4,351,-2.914,-0.855,8.716,1
589,35.232,-97.485,359.9,33.47,4,352,-2.936,-0.973,8.925,1
590,35.233,-97.485,359.9,33.49,5,353,-2.89,-1.055,8.917,1
591,35.233,-97.485,0.7,33.47,4,353,-2.791,-1.175,9.14,1
592,35.233,-97.485,0.2,33.38,5,353,-2.875,-1.053,9.057,1
593,35.233,-97.485,359.9,33.47,5,352,-2.755,-0.991,8.783,1
594,35.234,-97.485,359.8,33.54,5,352,-2.664,-1.13,8.909,1
595,35.234,-97.485,0.2,33.37,5,352,-2.868,-1.062,9.119,1
596,35.234,-97.485,359.6,33.37,5,352,-2.656,-1.029,9.038,1
597,35.235,-97.485,0,33.14,5,353,-2.763,-0.98,8.885,1
598,35.235,-97.485,0,33.08,5,352,-2.793,-1.099,8.807,1
599,35.235,-97.485,359.7,33.23,5,351,-2.866,-1.025,8.899,1
600,35.236,-97.485,359.7,33.11,5,351,-2.849,-0.989,8.987,1
601,35.236,-97.485,359.6,33.04,5,351,-2.861,-1.068,9.17,1
602,35.236,-97.485,0,33.2,5,352,-2.968,-0.888,9.067,1
603,35.236,-97.486,359.6,33.25,5,352,-2.776,-1.005,9.077,1
604,35.237,-97.486,359.9,33.28,5,352,-2.612,-1.248,9.065,1
605,35.237,-97.486,359.6,33.26,5,352,-2.841,-1,8.652,1
606,35.237,-97.486,359.8,33.31,5,352,-2.851,-0.994,9.015,1
607,35.238,-97.485,0.2,33.32,4,352,-2.736,-0.979,9.05,1
608,35.238,-97.485,0.2,33.24,4,352,-2.772,-0.966,9.083,1
609,35.238,-97.485,0,32.88,4,352,-2.751,-1.04,9.312,1
610,35.239,-97.485,0.2,32.86,4,351,-2.737,-0.906,9.373,1
611,35.239,-97.485,359.8,32.7,4,352,-2.67,-0.863,9.132,1
612,35.239,-97.486,359.7,32.61,4,353,-2.534,-0.937,9.109,1
613,35.239,-97.486,359.8,32.14,4,352,-2.671,-0.902,9.275,1
614,35.24,-97.485,0.2,31.78,4,352,-2.718,-0.884,9.305,1
615,35.24,-97.485,0.3,31.65,4,352,-2.675,-0.858,9.153,1
616,35.24,-97.485,0.2,31.27,3,352,-2.717,-0.751,8.844,1
617,35.241,-97.485,0.2,31.12,3,352,-2.516,-1.017,9.135,1
618,35.241,-97.485,359.9,30.93,3,352,-2.617,-0.913,8.939,1
619,35.241,-97.485,359.9,30.62,3,353,-2.881,-0.658,9.094,1
620,35.241,-97.485,0.1,30.35,3,353,-2.707,-0.761,9.11,1
621,35.242,-97.485,359.8,30.2,4,354,-2.886,-0.761,8.927,1
622,35.242,-97.485,359.9,29.85,4,353,-2.956,-0.971,9.416,1
624,35.242,-97.486,359.6,29.89,4,355,-2.747,-1.029,9.123,1
624,35.242,-97.486,359.6,29.89,4,355,-2.747,-1.029,9.123,1
625,35.242,-97.485,0.2,29.74,4,354,-3.008,-0.914,9.075,1
626,35.243,-97.485,0.1,29.57,4,354,-2.803,-1.011,8.957,1
627,35.243,-97.486,359.8,29.55,5,353,-2.529,-1.24,9.099,1
628,35.243,-97.485,0.1,29.54,4,354,-2.686,-1.121,9.108,1
629,35.243,-97.485,0.4,29.57,4,354,-2.868,-1.087,9.202,1
630,35.244,-97.485,359.8,29.78,4,353,-3.034,-0.951,8.952,1
631,35.244,-97.485,0.1,29.73,4,353,-2.92,-1.101,9.079,1
632,35.244,-97.485,359.8,29.71,4,353,-2.907,-1.115,8.892,1
633,35.245,-97.485,359.8,29.83,4,354,-2.819,-1.16,9.223,1
634,35.245,-97.485,359.7,29.87,4,353,-2.87,-1.288,9.133,1
635,35.245,-97.485,0.5,29.96,4,353,-2.938,-1.296,8.915,1
636,35.245,-97.485,0.1,30.19,4,352,-2.962,-1.158,9.039,1
637,35.246,-97.485,359.8,30.43,4,353,-2.92,-1.14,9.198,1
638,35.246,-97.485,359.8,30.55,4,354,-2.865,-1.228,9.196,1
639,35.246,-97.485,359.7,30.79,4,356,-2.939,-1.267,9.187,1
640,35.247,-97.485,359.8,31.09,4,356,-2.891,-1.283,8.95,1
641,35.247,-97.486,359.4,31.39,4,356,-2.949,-1.194,8.882,1
642,35.247,-97.486,0,31.41,4,357,-2.917,-1.057,8.905,1
643,35.247,-97.486,0,31.41,4,357,-2.843,-1.322,9.087,1
644,35.248,-97.485,1.2,31.46,4,350,-2.888,-1.296,9.019,1
645,35.248,-97.485,0.4,32.65,5,349,-2.94,-1.305,9.14,1
646,35.248,-97.485,0,32.41,4,348,-3.021,-1.374,9.254,1
647,35.249,-97.485,0,32.4,4,349,-2.904,-1.237,9.141,1
648,35.249,-97.485,359.9,32.53,4,349,-2.98,-1.369,9.023,1
649,35.249,-97.485,359.7,32.7,3,351,-2.825,-1.183,8.923,1
650,35.25,-97.485,0.2,32.82,3,349,-2.986,-1.031,8.939,1
651,35.25,-97.485,359.9,33.06,3,350,-2.828,-1.158,8.889,1
652,35.25,-97.485,359.8,33.08,3,350,-2.815,-1.234,9.109,1
653,35.251,-97.485,359.7,33.12,3,350,-2.796,-1.127,9.197,1
654,35.251,-97.485,0,33.21,3,352,-2.786,-0.84,8.756,1
655,35.251,-97.485,359.8,33.06,3,351,-2.602,-0.686,9.113,1
656,35.251,-97.485,359.6,32.79,3,351,-1.929,0.069,9.339,1
657,35.252,-97.485,0,31.77,3,350,-1.325,0.575,9.813,1
658,35.252,-97.486,359.5,29.7,3,344,-1.335,0.766,9.965,0
659,35.252,-97.485,0,27.5,3,345,-2.39,-0.584,9.243,0
660,35.252,-97.485,359.8,26.43,3,347,-2.513,-0.847,9.009,0
661,35.253,-97.485,359.9,25.86,3,347,-2.631,-1.045,9.096,0
662,35.253,-97.485,359.8,25.57,3,348,-2.655,-0.83,9.066,0
663,35.253,-97.485,0,25.15,3,349,-2.653,-0.921,9.337,0
664,35.253,-97.485,359.7,24.89,3,349,-2.731,-1.078,9.123,0
665,35.254,-97.486,359.6,24.61,3,350,-2.873,-1.137,8.72,0
666,35.254,-97.485,359.8,24.45,3,350,-2.858,-1.142,8.668,1
667,35.254,-97.486,359.8,24.56,3,351,-2.904,-1.278,8.828,1
668,35.254,-97.485,0,24.7,3,350,-2.983,-1.258,8.796,1
669,35.254,-97.485,0.1,24.96,3,351,-3.113,-1.341,8.766,1
670,35.255,-97.485,0,25.19,3,352,-3.224,-1.423,8.834,1
671,35.255,-97.485,0.1,25.57,3,350,-3.089,-1.328,9.041,1
672,35.255,-97.485,0.1,26.06,3,350,-3.094,-1.413,8.988,1
673,35.255,-97.485,0.1,26.45,3,351,-2.989,-1.26,8.727,1
674,35.256,-97.485,359.8,26.71,3,350,-3.01,-1.25,9.145,1
675,35.256,-97.485,0.1,27.03,3,350,-2.987,-1.125,8.994,1
676,35.256,-97.485,0.4,27.13,3,350,-2.99,-1.232,8.695,1
677,35.256,-97.485,0,27.53,3,350,-3.017,-1.149,8.758,1
678,35.257,-97.485,0.4,27.73,3,349,-2.809,-1.159,8.886,1
679,35.257,-97.486,359.1,28.06,3,347,-2.779,-1.05,9.084,1
680,35.257,-97.486,359.7,27.97,3,348,-2.915,-0.811,8.799,1
681,35.257,-97.485,0.1,28.07,4,348,-2.672,-0.826,9.109,1
682,35.258,-97.485,359.9,27.92,4,348,-2.778,-0.871,9.011,1
683,35.258,-97.485,0,27.63,4,349,-2.826,-0.936,8.987,1
684,35.258,-97.485,0.2,27.36,4,348,-2.738,-0.936,8.998,1
685,35.258,-97.486,359.7,27.33,4,349,-2.757,-1.056,9.094,1
686,35.259,-97.486,359.5,27.4,4,350,-2.611,-0.92,9.115,1
688,35.259,-97.486,359.6,27.15,4,350,-2.493,-0.947,9.219,1
688,35.259,-97.486,359.6,27.15,4,350,-2.493,-0.947,9.219,1
689,35.259,-97.486,359.8,26.89,4,351,-2.436,-0.89,9.021,1
690,35.259,-97.486,0,26.42,4,351,-2.547,-0.931,8.896,1
691,35.26,-97.486,359.8,26.2,4,351,-2.8,-1.013,8.993,1
692,35.26,-97.486,0,26.06,3,351,-2.831,-1.136,8.88,1
693,35.26,-97.486,0.6,25.97,4,350,-2.86,-1.123,8.932,1
694,35.26,-97.486,0.2,25.95,4,349,-2.805,-1.153,8.911,1
695,35.261,-97.485,0.4,26.16,4,350,-2.838,-1.109,8.88,1
696,35.261,-97.486,359.8,26.09,4,351,-2.799,-1.084,8.856,1
697,35.261,-97.486,359.4,26.15,4,353,-2.881,-1.101,9.073,1
698,35.261,-97.486,0,26.23,5,354,-2.924,-1.079,8.945,1
699,35.261,-97.486,0.1,26.25,4,354,-3.114,-1.349,8.824,1
700,35.262,-97.486,0,26.6,4,354,-3.106,-1.371,8.964,1
701,35.262,-97.486,359.7,26.69,4,354,-3.02,-1.382,8.578,1
702,35.262,-97.486,0.1,27.64,3,353,-3.07,-1.238,8.879,1
703,35.262,-97.486,0.1,27.64,3,353,-3.072,-1.295,8.928,1
704,35.263,-97.486,359.4,28.27,3,353,-2.9,-0.972,8.858,1
705,35.263,-97.486,359.3,28.66,3,351,-2.863,-0.998,9.177,1
706,35.263,-97.486,359.4,28.59,3,351,-2.764,-0.984,9.062,1
707,35.264,-97.486,0.2,28.71,3,351,-2.792,-1.088,9.011,1
708,35.264,-97.486,0.5,28.75,3,351,-2.786,-1.208,8.772,1
709,35.264,-97.486,359.9,28.86,3,352,-2.891,-1.2,8.907,1
710,35.265,-97.486,0.6,28.99,3,350,-2.809,-1.177,8.955,1
711,35.265,-97.485,0.6,29.03,3,350,-3.059,-1.267,9.014,1
712,35.265,-97.485,0.2,29.19,3,350,-2.985,-1.247,9.005,1
713,35.265,-97.485,0.1,29.56,3,351,-2.899,-1.08,9.288,1
714,35.266,-97.485,359.8,29.75,3,351,-2.951,-1.08,8.914,1
715,35.266,-97.486,359.6,29.88,3,351,-2.838,-1.16,8.97,1
716,35.266,-97.486,0.1,30.12,3,351,-2.937,-1.21,9.223,1
717,35.266,-97.486,359.9,30.39,3,351,-2.779,-1.399,9.26,1
718,35.267,-97.486,0.1,30.4,3,351,-2.692,-1.161,9.147,1
719,35.267,-97.486,359.8,30.45,3,349,-2.806,-1.215,9.054,1
720,35.267,-97.486,0.4,30.63,3,349,-2.739,-1.325,9.029,1
721,35.268,-97.486,359.9,30.73,3,348,-2.758,-1.156,8.97,1
722,35.268,-97.486,359.8,30.83,3,349,-2.788,-1.14,9.063,1
723,35.268,-97.486,359.9,30.92,3,350,-2.971,-1.139,8.995,1
724,35.268,-97.486,0.1,31.06,3,350,-2.999,-1.075,8.943,1
725,35.269,-97.485,0.1,31.11,3,350,-2.968,-1.134,9.015,1
726,35.269,-97.485,0,31.16,3,351,-2.913,-1.093,9.065,1
727,35.269,-97.485,0.3,31.29,3,349,-2.931,-1.027,9.04,1
728,35.27,-97.485,359.7,31.45,3,350,-2.878,-1.145,9.003,1
729,35.27,-97.486,359.6,31.6,3,351,-2.857,-1.112,9.129,1
730,35.27,-97.486,359.7,31.6,3,351,-2.821,-1.14,9.207,1
731,35.27,-97.486,359.7,31.68,3,350,-2.813,-1.041,8.859,1
732,35.271,-97.486,359.5,31.91,3,351,-2.835,-1.084,9.049,1
733,35.271,-97.486,359.4,31.97,3,351,-2.939,-1.112,9.18,1
734,35.271,-97.486,0.1,32.09,3,352,-3.006,-1.142,8.997,1
735,35.272,-97.486,359.8,32.24,3,353,-2.946,-1.034,8.883,1
736,35.272,-97.486,0.1,32.46,3,351,-2.835,-1.157,9.036,1
737,35.272,-97.486,0.1,32.65,3,351,-2.925,-1.134,9.09,1
738,35.272,-97.486,359.8,33.22,3,352,-2.857,-1.093,9.195,1
739,35.273,-97.486,358.7,33.23,3,352,-2.674,-0.723,9.33,1
740,35.273,-97.486,359.3,33.2,3,352,-2.788,-0.855,8.998,1
741,35.273,-97.486,359.4,33.06,3,353,-2.744,-0.967,9.039,1
742,35.274,-97.486,359.7,32.92,3,355,-2.825,-0.965,8.925,1
743,35.274,-97.486,0.3,32.98,3,352,-2.686,-0.863,9.074,1
744,35.274,-97.485,0.4,33.14,3,350,-2.596,-1.04,9.372,1
745,35.274,-97.485,0.2,32.83,3,350,-2.887,-0.973,8.931,1
746,35.275,-97.486,359.6,33.05,4,349,-2.686,-0.978,9.05,1
747,35.275,-97.486,359.7,32.97,4,347,-2.625,-0.831,9.055,1
748,35.275,-97.486,0,32.95,5,346,-2.526,-0.817,9.244,1
749,35.276,-97.485,0.5,32.95,6,344,-2.584,-0.727,9.26,1
750,35.276,-97.486,359.4,32.25,5,344,-2.521,-0.731,9.38,1
751,35.276,-97.486,359.6,31.83,5,341,-2.581,-0.574,9.362,1
752,35.277,-97.486,359.6,31.13,4,342,-2.708,-0.584,9.271,1
754,35.277,-97.486,1.6,30.32,3,342,-2.837,-0.547,9.261,1
754,35.277,-97.486,1.6,30.32,3,342,-2.837,-0.547,9.261,1
755,35.277,-97.485,3.4,29.76,3,342,-3.475,-0.081,9.261,1
756,35.277,-97.485,6.4,29.201,3,342,-3.594,0.154,9.099,0
757,35.278,-97.485,10.3,28.662,3,338,-3.467,-0.101,9.095,0
758,35.278,-97.485,14.4,28.371,3,339,-2.983,-0.659,8.946,0
759,35.278,-97.485,17.2,28.141,3,338,-2.643,-1.104,9.041,0
760,35.278,-97.485,18.4,27.98,3,334,-2.481,-0.971,8.265,0
761,35.279,-97.485,18.8,27.87,3,335,-2.528,-1.195,8.765,0
762,35.279,-97.485,18.6,27.83,3,335,-2.595,-1.337,9.198,0
763,35.279,-97.485,18.7,27.75,3,334,-2.646,-1.303,9.091,1
764,35.279,-97.485,18.4,27.73,3,334,-2.794,-1.147,8.908,1
765,35.28,-97.485,18.1,27.7,3,333,-2.831,-1.213,9.026,1
766,35.28,-97.484,16.6,27.87,3,332,-2.379,-1.719,9.054,1
767,35.28,-97.484,14,28.01,3,331,-2.076,-2.108,8.97,1
768,35.281,-97.484,11.1,28.29,3,331,-2.243,-1.972,8.852,1
769,35.281,-97.484,8.8,28.33,3,331,-2.38,-1.829,8.799,1
770,35.281,-97.484,6.1,28.65,3,332,-2.403,-1.954,9.01,1
771,35.281,-97.484,4.8,28.74,3,332,-2.245,-2.073,8.887,1
772,35.282,-97.484,3,29.05,4,332,-2.066,-2.154,8.846,1
773,35.282,-97.484,357.9,29.38,3,332,-2.294,-2.152,9.163,1
774,35.282,-97.484,354.9,29.66,3,331,-2.446,-2.072,9.122,1
775,35.282,-97.484,352.5,29.93,3,329,-2.263,-2.097,9.132,1
776,35.283,-97.484,350,30.1,3,328,-2.06,-2.056,9.007,1
777,35.283,-97.484,347.2,30.08,3,329,-2.149,-1.99,9.005,1
778,35.283,-97.485,346,30.34,3,329,-2.471,-1.617,8.983,1
779,35.283,-97.485,344.1,30.51,4,329,-2.794,-1.289,9.211,1
780,35.284,-97.485,343,30.251,3,330,-2.928,-1.191,9.064,1
781,35.284,-97.485,343.1,30.39,3,330,-2.911,-1.243,8.912,1
782,35.284,-97.485,343.4,30.55,3,331,-2.966,-1.171,9.251,1
783,35.285,-97.485,343.6,30.68,3,331,-2.781,-1.316,8.859,1
784,35.285,-97.485,343.5,30.89,3,331,-2.753,-1.421,8.944,1
785,35.285,-97.485,343.2,31.08,3,331,-2.742,-1.362,8.968,1
786,35.285,-97.485,343.1,31.22,3,331,-2.858,-1.322,9.033,1
787,35.286,-97.485,343.2,31.35,3,331,-2.861,-1.318,9.085,1
788,35.286,-97.486,343.3,31.5,3,331,-2.729,-1.324,9.199,1
789,35.286,-97.486,343.2,31.59,3,331,-2.783,-1.216,8.992,1
790,35.286,-97.486,343.1,31.67,3,331,-2.757,-1.216,9.056,1
791,35.287,-97.486,343.1,31.75,3,331,-2.85,-1.192,9.126,1
792,35.287,-97.486,343.2,31.8,3,331,-2.853,-1.249,8.96,1
793,35.287,-97.486,343.4,31.88,3,331,-2.591,-1.408,8.938,1
794,35.288,-97.486,343.3,31.9,3,331,-2.636,-1.283,8.981,1
795,35.288,-97.486,343.2,31.93,3,331,-2.823,-1.052,8.891,1
796,35.288,-97.486,343.4,31.94,3,331,-2.718,-1.137,8.925,1
797,35.288,-97.486,343.5,31.99,3,331,-2.677,-1.181,8.845,1
798,35.289,-97.487,343.7,31.99,3,331,-2.506,-1.371,8.95,1
799,35.289,-97.487,343.5,32.03,3,332,-2.551,-1.375,9.09,1
800,35.289,-97.487,343.3,32.04,3,332,-2.568,-1.411,9.035,1
801,35.289,-97.487,343.1,32.03,3,332,-2.725,-1.205,9.061,1
802,35.29,-97.487,343.1,32.02,3,332,-2.679,-1.331,9.073,1
803,35.29,-97.487,343.3,32.07,3,332,-2.67,-1.267,8.884,1
804,35.29,-97.487,343.2,32.08,3,333,-2.629,-1.352,8.998,1
805,35.291,-97.487,343.2,32.12,3,333,-2.596,-1.298,8.85,1
806,35.291,-97.487,343,32.15,3,333,-2.658,-1.155,9.07,1
807,35.291,-97.487,343.5,32.38,3,333,-2.595,-1.104,8.504,1
808,35.291,-97.488,343.4,31.892,3,333,-2.539,-1.337,9.044,1
809,35.292,-97.488,343.3,32.17,3,333,-2.553,-1.202,8.999,1
810,35.292,-97.488,343.4,32.1,3,332,-2.414,-1.164,9.023,1
811,35.292,-97.488,343.4,32.06,3,331,-2.315,-1.086,9.075,1
812,35.293,-97.488,343.3,31.88,3,331,-2.336,-1.216,9.049,1
814,35.293,-97.488,343.3,31.631,3,331,-2.448,-1.443,9.023,1
814,35.293,-97.488,343.3,31.631,3,331,-2.448,-1.443,9.023,1
815,35.293,-97.488,343.2,31.71,3,330,-2.56,-1.544,8.857,1
816,35.293,-97.488,343.1,31.93,3,330,-2.693,-1.421,8.883,1
817,35.294,-97.488,343,32.181,3,330,-2.793,-1.45,9.117,1
818,35.294,-97.488,343,32.47,3,330,-2.632,-1.483,9.151,1
819,35.294,-97.489,343.1,32.691,3,330,-2.634,-1.342,8.966,1
820,35.294,-97.489,343.2,32.91,3,329,-2.593,-1.404,9.052,1
821,35.295,-97.489,343.3,33.081,3,329,-2.594,-1.355,8.812,1
822,35.295,-97.489,343.3,33.2,3,328,-2.55,-1.364,9.053,1
823,35.295,-97.489,343.4,33.331,3,328,-2.653,-1.223,9.049,1
824,35.296,-97.489,343.4,33.401,3,328,-2.882,-1.166,9.504,0
825,35.296,-97.489,344.2,33.44,3,327,-2.835,-1.116,9.045,0
826,35.296,-97.489,344.9,33.5,3,328,-2.779,-1.088,9.426,0
827,35.296,-97.489,345.8,33.45,3,328,-2.738,-0.779,9.286,0
828,35.297,-97.489,346.7,33.19,3,328,-2.612,-0.904,9.383,0
829,35.297,-97.49,348.7,32.45,3,328,-2.829,-0.532,9.273,0
830,35.298,-97.49,349.2,31.96,4,328,-2.376,-0.227,9.759,0
831,35.298,-97.49,350.3,30.98,5,328,-2.453,-0.39,9.257,0
832,35.298,-97.49,350.3,30.98,5,328,-2.708,-0.913,9.141,0
833,35.298,-97.49,352.3,29.86,5,329,-2.724,-1.059,8.932,0
834,35.299,-97.49,353.4,29.48,4,330,-2.829,-1.26,9.085,0
835,35.299,-97.49,354.1,29.2,4,331,-2.908,-1.337,9.028,0
836,35.299,-97.49,355.3,29.14,4,331,-2.91,-1.221,9.056,0
837,35.299,-97.49,356.8,29.26,4,331,-2.836,-1.065,9.092,0
838,35.3,-97.49,357.3,29.01,5,332,-2.888,-0.776,9.116,1
839,35.3,-97.49,358.4,28.79,5,334,-2.711,-1.317,9.031,1
840,35.3,-97.49,359.8,28.63,4,334,-2.553,-1.481,8.752,1
841,35.3,-97.49,359.9,28.64,4,335,-2.653,-1.408,8.958,1
842,35.301,-97.49,359.9,28.69,3,336,-2.776,-1.374,8.97,1
843,35.301,-97.49,0.1,28.75,3,336,-2.714,-1.366,9.011,1
844,35.301,-97.49,0.4,28.84,3,337,-2.802,-1.478,8.867,1
845,35.302,-97.49,0.4,29.03,3,338,-2.775,-1.697,8.763,1
846,35.302,-97.49,0.2,29.4,3,339,-3.091,-1.872,8.82,1
847,35.302,-97.49,0.3,30.08,3,339,-2.949,-1.968,8.755,1
848,35.302,-97.49,0.3,30.43,3,339,-2.981,-1.877,8.823,1
849,35.303,-97.49,359.9,31.15,4,340,-3.158,-1.734,8.89,1
850,35.303,-97.49,359.2,31.61,4,340,-2.316,-1.057,8.922,1
851,35.303,-97.49,0.2,31.47,3,342,-2.201,-1.077,9.083,1
852,35.303,-97.49,0.4,31.03,3,342,-2.466,-0.691,9.111,1
853,35.304,-97.49,0.9,30.58,3,343,-2.286,-1.098,9.292,1
854,35.304,-97.49,1,30.2,3,343,-2.161,-1.267,9.427,1
855,35.304,-97.49,0.7,29.78,3,344,-2.107,-1.264,9.28,1
856,35.305,-97.49,0.3,29.38,3,344,-2.04,-1.232,9.091,1
857,35.305,-97.49,0,28.98,3,343,-2.146,-1.145,9.094,1
858,35.305,-97.49,0.4,28.35,3,344,-2.354,-1.224,9.256,1
859,35.305,-97.49,0.2,28.74,3,345,-2.326,-1.338,8.923,1
860,35.306,-97.49,359.7,28.13,3,344,-2.183,-1.495,8.976,1
861,35.306,-97.49,359.2,27.86,3,346,-2.42,-1.518,9.054,1
862,35.306,-97.49,358.9,27.87,3,347,-2.345,-1.489,8.954,1
863,35.306,-97.49,358.5,27.9,3,347,-2.804,-1.36,8.94,1
864,35.307,-97.49,358.8,28.06,3,346,-2.802,-1.204,8.737,1
865,35.307,-97.49,359.4,28.22,3,347,-2.771,-1.496,8.906,1
866,35.307,-97.49,359.8,28.5,3,348,-2.661,-1.555,8.945,1
867,35.307,-97.49,359.9,28.78,3,347,-2.697,-1.674,8.826,1
868,35.308,-97.49,359.7,29.14,3,347,-3.012,-1.523,8.974,1
869,35.308,-97.49,359.9,29.62,3,347,-2.819,-1.697,8.831,1
870,35.308,-97.49,0,30.04,3,347,-2.828,-1.598,8.969,1
871,35.308,-97.49,0,30.4,3,347,-2.779,-1.771,8.933,1
872,35.309,-97.49,0,30.76,3,347,-2.792,-1.538,8.864,1
873,35.309,-97.49,359.9,31.03,3,348,-2.662,-1.411,8.963,1
874,35.309,-97.49,0,31.14,3,348,-2.635,-1.418,9.132,1
875,35.31,-97.49,0,31.22,3,348,-2.592,-1.555,9.228,1
876,35.31,-97.49,0,31.36,3,349,-2.807,-1.335,9.085,1
877,35.31,-97.49,0,31.47,3,348,-2.477,-1.134,9.226,1
878,35.31,-97.49,0.3,31.37,3,349,-2.333,-1.448,9.055,1
879,35.311,-97.49,0.1,31.28,3,347,-2.447,-1.441,8.969,1
880,35.311,-97.49,359.8,31.27,3,347,-2.616,-1.363,9.004,1
882,35.311,-97.49,359.8,31.31,3,346,-2.642,-1.408,9.212,1
882,35.311,-97.49,359.8,31.31,3,346,-2.642,-1.408,9.212,1
883,35.311,-97.49,359.9,31.31,3,346,-2.647,-1.407,9.453,1
884,35.312,-97.49,0.2,31.36,3,347,-2.607,-1.462,9.088,1
885,35.312,-97.49,0.1,31.36,3,347,-2.429,-1.413,9.069,1
886,35.312,-97.49,0.1,31.31,3,346,-2.298,-1.275,9.2,1
887,35.313,-97.49,0.1,30.99,3,347,-2.327,-1.341,8.954,1
888,35.313,-97.49,0,30.59,3,348,-2.451,-1.473,8.916,1
889,35.313,-97.49,359.8,30.48,3,347,-2.445,-1.581,9.195,1
890,35.313,-97.49,359.6,30.44,3,346,-2.583,-1.3,9.028,1
891,35.314,-97.49,359.6,30.35,3,348,-2.621,-1.371,8.912,1
892,35.314,-97.49,359.9,30.35,3,347,-2.582,-1.451,8.958,1
893,35.314,-97.49,359.9,30.32,3,348,-2.594,-1.419,8.953,1
894,35.315,-97.49,0,30.3,3,348,-2.59,-1.274,8.881,1
895,35.315,-97.49,0.2,30.27,3,347,-2.646,-1.413,9.34,1
896,35.315,-97.49,0,30.21,3,349,-2.499,-1.448,9.137,1
897,35.316,-97.49,359.9,30.15,3,348,-2.294,-1.427,8.825,1
898,35.316,-97.49,0,30.06,3,347,-2.6,-1.216,8.869,1
899,35.316,-97.49,0,29.82,3,347,-2.388,-1.218,9.025,1
900,35.316,-97.49,0,29.62,3,347,-2.336,-1.398,9.066,1
901,35.317,-97.49,359.9,29.371,3,348,-2.486,-1.251,8.858,1
902,35.317,-97.49,0.3,29.25,3,348,-2.674,-1.272,8.98,1
903,35.317,-97.49,0.3,29.14,3,347,-2.491,-1.427,8.8,1
904,35.317,-97.49,0.1,29.13,3,348,-2.592,-1.518,9.192,1
905,35.318,-97.49,0.1,29.05,3,347,-2.536,-1.467,8.996,1
906,35.318,-97.49,0.1,29.07,3,347,-2.566,-1.544,9.199,1
907,35.318,-97.49,0,29.06,3,347,-2.558,-1.528,9.071,1
908,35.319,-97.49,359.7,28.96,3,347,-2.538,-1.537,8.946,1
909,35.319,-97.49,359.8,28.93,3,348,-2.701,-1.335,9.03,1
910,35.319,-97.49,359.9,28.91,3,348,-2.501,-1.359,9.086,1
911,35.319,-97.49,359.8,28.89,3,348,-2.683,-1.311,9.06,1
912,35.32,-97.49,359.9,28.89,3,349,-2.579,-1.431,9.022,1
913,35.32,-97.49,359.9,28.96,3,350,-2.568,-1.539,8.877,1
914,35.32,-97.49,359.9,29.3,3,350,-2.76,-1.499,8.969,1
915,35.32,-97.49,359.9,28.882,3,350,-2.637,-1.571,8.912,1
916,35.321,-97.49,0,29.55,3,350,-2.602,-1.612,8.88,1
917,35.321,-97.49,359.8,29.73,3,350,-2.561,-1.479,9.075,1
918,35.321,-97.49,359.6,29.82,3,350,-2.722,-1.474,9.037,1
919,35.321,-97.49,359.7,29.93,3,350,-2.763,-1.406,8.987,1
920,35.322,-97.49,0,30.08,3,351,-2.765,-1.52,9.283,1
921,35.322,-97.49,0.1,30.27,3,352,-2.518,-1.61,9.235,1
922,35.322,-97.49,0,30.45,3,351,-2.628,-1.534,9.162,1
923,35.323,-97.49,0,30.63,3,351,-2.627,-1.467,9.031,1
924,35.323,-97.49,0,30.76,3,352,-2.517,-1.553,9.114,1
925,35.323,-97.49,359.9,30.85,3,352,-2.493,-1.502,9.055,1
926,35.323,-97.49,359.9,30.9,3,351,-2.534,-1.399,8.95,1
927,35.324,-97.49,359.9,30.94,3,351,-2.627,-1.386,8.988,1
928,35.324,-97.49,0,30.95,3,351,-2.603,-1.319,8.943,1
929,35.324,-97.49,0.1,30.95,3,351,-2.609,-1.431,8.952,1
930,35.324,-97.49,0.2,30.96,3,352,-2.636,-1.489,8.996,1
931,35.325,-97.49,0.1,30.95,3,352,-2.494,-1.46,8.842,1
932,35.325,-97.49,0.2,30.94,3,351,-2.471,-1.562,8.988,1
933,35.325,-97.49,0.1,30.92,3,350,-2.554,-1.512,8.94,1
934,35.326,-97.49,359.9,30.92,3,351,-2.571,-1.54,9.263,1
935,35.326,-97.49,359.9,30.96,3,351,-2.483,-1.537,9.292,1
936,35.326,-97.49,359.7,30.931,3,353,-2.561,-1.527,9.245,1
937,35.326,-97.49,359.6,30.96,3,352,-2.395,-1.44,8.751,1
938,35.327,-97.49,359.6,30.98,3,352,-2.765,-1.391,8.96,1
939,35.327,-97.49,359.8,31,3,352,-2.66,-1.382,9.149,1
940,35.327,-97.49,0,31.01,3,352,-2.636,-1.388,9.008,1
941,35.328,-97.49,0.4,31.11,3,352,-2.65,-1.427,9.142,1
942,35.328,-97.49,0,31.06,3,352,-2.684,-1.432,9.095,1
943,35.328,-97.49,0,31.08,3,353,-2.549,-1.44,8.985,1
944,35.328,-97.49,0,31.1,3,354,-2.551,-1.423,8.902,1
945,35.329,-97.49,0.1,31.1,3,354,-2.471,-1.504,8.969,1
946,35.329,-97.49,0.1,31.12,3,355,-2.554,-1.496,8.989,1
947,35.329,-97.49,359.8,31.12,3,355,-2.734,-1.431,9.09,1
948,35.33,-97.49,359.8,31.14,3,355,-2.717,-1.477,9.261,1
950,35.33,-97.49,0,31.15,3,355,-2.535,-1.535,9.309,1
950,35.33,-97.49,0,31.15,3,355,-2.535,-1.535,9.309,1
951,35.33,-97.49,0.1,31.15,3,355,-2.549,-1.625,9.183,0
952,35.33,-97.49,0,31.13,3,356,-2.628,-1.339,9.121,0
953,35.331,-97.49,359.9,31.13,3,356,-2.477,-1.458,8.791,0
954,35.331,-97.49,359.8,31.13,3,356,-2.596,-1.424,8.935,0
955,35.331,-97.49,359.7,31.12,3,357,-2.711,-1.211,8.724,0
956,35.331,-97.49,359.9,31.12,3,356,-2.741,-1.347,8.902,0
957,35.332,-97.49,0,31.11,3,357,-2.628,-1.366,8.888,0
958,35.332,-97.49,0.2,31.16,3,358,-2.541,-1.419,9.037,1
959,35.332,-97.49,359.9,31.15,3,358,-2.57,-1.428,9.071,1
960,35.333,-97.49,359.4,31.14,3,359,-2.312,-1.594,8.77,1
961,35.333,-97.49,358.5,31.12,3,357,-2.269,-1.627,8.829,1
962,35.333,-97.49,355.8,31.14,3,356,-2.559,-1.397,8.827,1
963,35.334,-97.49,354.7,31.14,3,355,-2.468,-1.555,8.943,1
964,35.334,-97.49,354,30.87,3,352,-2.376,-1.701,9.062,1
965,35.334,-97.49,352.7,30.82,3,353,-2.33,-1.735,9.067,1
966,35.335,-97.49,350.3,31.12,3,351,-2.271,-1.799,9.309,1
967,35.335,-97.49,348.7,31.11,3,349,-2.232,-1.745,9.177,1
968,35.335,-97.49,347.3,31.12,3,347,-2.378,-1.632,9.081,1
969,35.335,-97.49,346.1,31.12,3,348,-2.457,-1.549,9.061,1
970,35.336,-97.49,345.6,31.32,4,348,-2.464,-1.66,9.126,1
971,35.336,-97.491,344.8,31.64,6,348,-2.702,-1.502,9.278,1
972,35.336,-97.491,342.7,31.091,4,348,-2.638,-1.589,9.365,1
973,35.336,-97.491,342.2,31.011,4,349,-2.624,-1.447,9.051,1
974,35.337,-97.491,341.8,30.842,4,350,-2.682,-1.513,9.202,1
975,35.337,-97.491,341.7,30.722,3,351,-2.85,-1.24,9.184,1
976,35.337,-97.491,341.9,30.574,3,352,-2.842,-1.199,8.939,1
977,35.338,-97.491,342.4,30.433,3,353,-2.652,-1.412,8.747,1
978,35.338,-97.491,342.3,30.452,3,354,-2.494,-1.847,9.14,1
979,35.338,-97.491,341.9,30.541,3,354,-2.438,-1.856,8.985,1
980,35.338,-97.492,341.5,30.691,3,354,-2.809,-1.69,9.178,0
981,35.339,-97.492,341.3,30.831,3,356,-1.929,-1.481,8.385,0
982,35.339,-97.492,341.3,30.961,3,356,-2.585,-1.5,8.599,0
983,35.339,-97.492,341.4,31.1,3,356,-2.608,-1.571,8.828,0
984,35.339,-97.492,341.5,31.26,3,356,-2.512,-1.596,9.077,0
985,35.34,-97.492,341.5,31.38,3,357,-2.394,-1.641,9.168,0
986,35.34,-97.492,341.4,31.43,3,357,-2.379,-1.639,9.038,0
987,35.34,-97.492,341.3,31.44,3,357,-2.415,-1.482,8.825,1
988,35.34,-97.492,341.3,31.46,3,357,-2.412,-1.402,8.977,1
989,35.341,-97.492,341.3,31.43,3,356,-2.534,-1.391,8.974,1
990,35.341,-97.493,341.4,31.39,3,356,-2.442,-1.409,8.872,1
991,35.341,-97.493,341.4,31.38,3,356,-2.392,-1.4,8.951,1
992,35.342,-97.493,341.4,31.37,3,357,-2.487,-1.389,9.231,1
993,35.342,-97.493,341.5,31.4,3,358,-2.455,-1.422,9.085,1
994,35.342,-97.493,341.4,31.41,3,357,-2.499,-1.383,9.003,1
995,35.342,-97.493,341.3,31.44,3,357,-2.514,-1.344,9.094,1
996,35.343,-97.493,341.3,31.46,3,358,-2.31,-1.229,9.287,1
997,35.343,-97.493,341.2,31.26,3,358,-2.523,-1.019,9.192,1
998,35.343,-97.493,341.4,30.99,3,358,-2.696,-1.314,9.523,0
999,35.343,-97.494,341.9,31.06,3,357,-2.842,-1.059,9.275,0
1000,35.344,-97.494,342.2,30.97,3,357,-2.302,-0.796,8.65,0
1001,35.344,-97.494,342.8,30.761,3,357,-2.831,-1.087,9.076,0
1002,35.344,-97.494,343.9,30.771,3,358,-2.813,-1.107,8.934,0
1003,35.344,-97.494,344.7,30.882,3,357,-2.871,-1.142,9.097,0
1004,35.345,-97.494,345.6,31.121,3,355,-2.954,-1.019,9.189,0
1005,35.345,-97.494,346.8,31.26,3,355,-3.114,-0.898,9.273,0
1006,35.345,-97.494,348.1,31.38,3,355,-2.784,-0.867,9.382,0
1007,35.346,-97.494,349.1,31.33,3,355,-2.812,-0.94,9.252,0
1008,35.346,-97.494,350,31.16,3,355,-2.892,-1.024,9.105,0
1010,35.346,-97.494,351,31.1,3,355,-2.85,-0.813,9.057,0
1010,35.346,-97.494,351,31.1,3,355,-2.85,-0.813,9.057,0
1011,35.346,-97.494,352.1,30.94,3,355,-2.996,-1.007,8.947,0
1012,35.347,-97.494,353.4,30.72,3,355,-2.94,-1.239,9.106,0
1013,35.347,-97.495,354.3,30.741,3,355,-2.868,-1.227,8.887,0
1014,35.347,-97.495,355,30.811,3,355,-2.873,-1.217,9.062,1
1015,35.347,-97.495,355.9,30.871,3,355,-2.958,-1.166,9.121,1
1016,35.348,-97.495,356.7,30.93,3,356,-2.959,-1.113,9.009,1
1017,35.348,-97.495,357.6,30.98,3,356,-2.991,-1.063,8.974,1
1018,35.348,-97.495,358.8,30.951,3,356,-2.75,-1.231,9.092,1
1019,35.349,-97.495,359.4,30.96,3,357,-2.636,-1.433,8.981,1
1020,35.349,-97.495,0.4,31.141,3,357,-2.855,-1.525,9.596,0
1021,35.349,-97.495,359.8,30.79,3,357,-2.59,-1.567,9.178,0
1022,35.349,-97.495,0.4,30.911,3,357,-2.282,-1.653,9.367,0
1023,35.35,-97.495,359.7,30.94,3,358,-2.465,-1.679,8.927,0
1024,35.35,-97.495,359.7,30.95,3,358,-2.521,-1.704,9.289,0
1025,35.351,-97.495,359.6,30.911,3,359,-2.601,-1.773,9.445,0
1026,35.351,-97.495,359.5,30.911,3,360,-2.422,-1.605,8.803,0
1027,35.351,-97.495,359.5,30.91,3,360,-2.504,-1.487,8.945,0
1028,35.351,-97.495,359.5,30.891,3,361,-2.56,-1.511,8.944,0
1029,35.352,-97.495,359.6,30.851,3,361,-2.582,-1.418,9.067,0
1030,35.352,-97.495,359.6,30.861,3,362,-2.311,-1.462,8.97,0
1031,35.352,-97.495,359.5,30.84,3,361,-2.476,-1.585,9.074,0
1032,35.352,-97.495,359.6,30.82,3,362,-2.441,-1.505,8.888,0
1033,35.353,-97.495,359.6,30.781,3,363,-2.479,-1.374,8.674,1
1034,35.353,-97.495,359.6,30.761,3,363,-2.424,-1.566,9.132,1
1035,35.353,-97.495,359.5,30.751,3,363,-2.382,-1.43,9.065,1
1036,35.354,-97.495,359.5,30.751,3,363,-2.521,-1.389,8.859,1
1037,35.354,-97.495,359.8,30.72,3,362,-2.647,-1.377,8.823,1
1038,35.354,-97.495,359.8,30.96,3,362,-2.551,-1.498,8.78,1
1039,35.354,-97.495,359.9,30.85,3,363,-2.457,-1.679,9.004,1
1040,35.355,-97.495,359.7,30.88,3,364,-2.694,-1.447,9.023,1
1041,35.355,-97.495,359.7,30.89,3,364,-2.808,-1.583,9.187,1
1042,35.355,-97.495,359.8,30.92,3,365,-2.58,-1.425,8.706,1
1043,35.356,-97.495,359.8,30.94,3,365,-2.588,-1.52,8.973,1
1044,35.356,-97.495,359.6,30.931,3,365,-2.389,-1.504,8.65,1
1045,35.356,-97.495,359.4,30.97,3,366,-2.508,-1.594,9.21,1
1046,35.356,-97.495,359.2,31.03,3,366,-2.557,-1.433,9.136,0
1047,35.357,-97.495,359.3,30.99,3,366,-2.685,-1.356,9.05,0
1048,35.357,-97.495,359.3,30.98,3,367,-2.674,-1.692,9.318,0
1049,35.357,-97.495,359.3,30.95,3,366,-2.795,-1.487,9.173,0
