time,lat,lng,bearing,spd,acc,alt,accx,accy,accz,stable,
0,35.262,-97.474,323.5,8.39,13.653,328,-0.296,2.743,9.155,1
1,35.262,-97.474,324.3,9.61,13.653,328,-0.283,2.762,9.198,1
2,35.262,-97.474,323.8,10.98,15.17,326,-0.315,2.722,9.158,1
3,35.262,-97.474,323.8,12.31,15.17,326,-0.318,2.666,9.185,1
4,35.262,-97.474,323.6,13.5,15.17,326,-0.275,2.599,9.182,1
5,35.262,-97.474,324.7,14.03,15.17,326,-0.236,2.034,9.36,1
6,35.262,-97.475,324,14.88,15.17,326,-0.271,1.816,9.397,1
7,35.262,-97.475,324.5,15.1,15.17,326,-0.308,1.809,9.427,1
9,35.263,-97.475,325,15.51,15.17,326,-0.38,1.79,9.409,1
10,35.263,-97.475,324.4,15.81,15.17,326,-0.448,1.694,9.412,1
11,35.263,-97.475,324.3,16.19,16.687,325,-0.437,1.75,9.454,1
12,35.263,-97.475,322.7,16.67,16.687,326,-0.378,1.907,9.381,1
13,35.263,-97.475,322.9,17.01,15.17,326,-0.355,1.897,9.351,1
14,35.263,-97.475,322.7,17.55,15.17,327,-0.256,1.718,9.44,1
15,35.263,-97.475,323.1,17.86,15.17,327,-0.148,1.773,9.435,1
16,35.263,-97.476,324,18.11,13.653,327,-0.233,1.762,9.414,1
17,35.264,-97.476,323.5,18.6,13.653,326,-0.169,1.749,9.428,1
18,35.264,-97.476,323.7,18.93,13.653,325,-0.116,1.735,9.439,1
19,35.264,-97.476,324.1,19.2,13.653,325,-0.072,1.75,9.474,1
20,35.264,-97.476,324,19.64,13.653,324,-0.036,1.747,9.49,1
21,35.264,-97.476,324.7,19.9,13.653,324,-0.002,1.733,9.368,1
22,35.264,-97.476,325.2,20.26,13.653,324,0.01,1.739,9.426,1
23,35.264,-97.476,325.6,20.41,13.653,324,0.017,1.723,9.417,1
24,35.265,-97.477,326,20.83,13.653,324,0.029,1.73,9.457,1
25,35.265,-97.477,326.8,21.13,13.653,324,-0.005,1.72,9.494,1
26,35.265,-97.477,327.2,21.23,13.653,324,-0.065,1.715,9.465,1
27,35.265,-97.477,327.8,21.53,13.653,322,-0.003,1.712,9.486,1
28,35.265,-97.477,328.5,21.59,13.653,323,0.05,1.688,9.411,1
29,35.265,-97.477,329,21.73,13.653,323,0.09,1.7,9.462,1
30,35.266,-97.477,329.8,21.83,13.653,323,0.086,1.688,9.435,1
31,35.266,-97.477,330.2,21.9,13.653,323,0.083,1.681,9.459,1
32,35.266,-97.478,331.3,22.14,13.653,322,-0.019,1.792,9.42,1
33,35.266,-97.478,331.8,22.29,13.653,322,-0.023,1.836,9.456,1
34,35.266,-97.478,332.4,22.73,13.653,322,-0.025,1.84,9.386,1
35,35.266,-97.478,332.4,22.73,13.653,322,-0.003,1.871,9.388,1
36,35.267,-97.478,333.6,23.25,13.653,321,0.112,1.848,9.395,1
37,35.267,-97.478,333.6,23.25,13.653,321,0.204,1.842,9.375,1
38,35.267,-97.478,335.4,23.55,13.653,321,0.087,1.471,9.488,1
39,35.267,-97.478,335.4,23.54,15.17,321,0.019,1.4,9.483,1
40,35.267,-97.478,336.2,23.5,15.17,322,-0.045,1.544,9.473,1
41,35.268,-97.479,336.6,23.58,15.17,322,0.018,1.403,9.482,1
42,35.268,-97.479,337.4,23.46,15.17,322,0.055,1.438,9.48,1
43,35.268,-97.479,338,23.14,15.17,322,0.041,1.51,9.442,1
44,35.268,-97.479,338.1,23.11,15.17,323,0.036,1.518,9.427,1
45,35.268,-97.479,338.6,23,15.17,323,0.023,1.397,9.476,1
46,35.269,-97.479,338.7,22.82,15.17,323,0.131,1.324,9.543,1
47,35.269,-97.479,339.3,22.76,15.17,323,0.184,1.466,9.445,1
48,35.269,-97.479,340.1,22.46,15.17,323,0.093,1.49,9.426,1
49,35.269,-97.479,341.4,22.55,13.653,322,0.015,1.275,9.472,1
50,35.269,-97.479,342.3,22.5,13.653,323,-0.088,1.353,9.415,1
51,35.27,-97.479,342.7,22.39,13.653,324,-0.241,1.292,9.501,1
52,35.27,-97.479,343.1,22.3,13.653,324,-0.269,1.183,9.469,1
53,35.27,-97.48,342.7,22.04,13.653,324,-0.265,1.172,9.526,1
54,35.27,-97.48,343.1,21.88,13.653,324,-0.294,1.175,9.549,1
55,35.27,-97.48,342.9,21.71,13.653,323,-0.305,1.172,9.585,1
56,35.27,-97.48,343.1,21.55,15.17,323,-0.361,1.177,9.573,1
57,35.271,-97.48,342.9,21.31,15.17,323,-0.354,1.493,9.473,1
58,35.271,-97.48,342.8,21.2,13.653,323,-0.37,1.638,9.453,1
59,35.271,-97.48,342.4,21.49,15.17,324,-0.37,1.412,9.497,1
60,35.271,-97.48,342.4,21.51,15.17,325,-0.331,1.374,9.535,1
61,35.271,-97.48,342.1,21.66,13.653,325,-0.33,1.474,9.474,1
62,35.272,-97.48,342.7,21.85,13.653,324,-0.335,1.605,9.463,1
63,35.272,-97.48,342.7,22.09,15.17,325,-0.349,1.45,9.505,1
64,35.272,-97.48,342.9,22.19,15.17,326,-0.354,1.413,9.541,1
65,35.272,-97.48,344.6,21.94,15.17,327,-0.386,1.385,9.527,1
66,35.273,-97.481,343.7,22.12,15.17,327,-0.34,1.344,9.536,1
67,35.273,-97.481,343.6,22.13,15.17,327,-0.314,1.23,9.611,1
68,35.273,-97.481,342.5,21.83,15.17,327,-0.308,1.189,9.605,1
69,35.273,-97.481,343.3,21.63,15.17,328,-0.314,1.179,9.578,1
70,35.273,-97.481,343.6,21.29,15.17,327,-0.286,1.262,9.565,1
71,35.273,-97.481,344.4,21.26,15.17,327,-0.306,0.823,9.69,1
72,35.274,-97.481,344,20.42,15.17,327,-0.315,0.503,9.798,1
73,35.274,-97.481,343.8,19.22,15.17,327,-0.334,0.412,9.791,1
74,35.274,-97.481,344.3,17.96,15.17,327,-0.317,0.357,9.778,1
75,35.274,-97.481,343.9,16.59,15.17,325,-0.32,-0.326,9.94,1
76,35.274,-97.481,344.7,14.54,15.17,326,-0.357,-0.492,9.978,0
77,35.274,-97.481,347.9,13.72,15.17,326,-0.435,-0.463,9.97,0
78,35.274,-97.481,346.7,11.82,15.17,325,-0.376,-0.487,10.01,0
79,35.275,-97.481,349.8,9.97,15.17,325,-0.296,-0.299,9.945,0
80,35.275,-97.481,354.8,8.11,15.17,323,-0.264,0.308,9.769,0
81,35.275,-97.481,352.9,6.19,15.17,323,-0.299,0.696,9.669,0
82,35.275,-97.481,343.6,3.83,15.17,323,-0.345,0.829,9.64,0
83,35.275,-97.481,343.4,3.06,15.17,322,-0.318,1.029,9.606,0
84,35.275,-97.481,344.6,2.38,13.653,322,-0.297,1.406,9.512,0
85,35.275,-97.481,346.2,2.16,13.653,322,-0.271,1.556,9.467,0
86,35.275,-97.481,343.5,2.05,13.653,321,-0.255,1.219,9.549,0
87,35.275,-97.481,346.8,1.86,13.653,320,-0.244,0.862,9.636,0
88,35.275,-97.481,5.8,0.78,13.653,319,-0.249,1.077,9.582,0
92,35.275,-97.481,5.8,0.78,13.653,319,-0.238,1.669,9.442,1
93,35.275,-97.481,5.8,0.78,13.653,319,-0.229,1.68,9.442,1
94,35.275,-97.481,5.8,0.78,13.653,319,-0.229,1.679,9.44,1
95,35.275,-97.481,5.8,0.78,13.653,319,-0.234,1.676,9.444,1
96,35.275,-97.481,5.8,0.78,13.653,319,-0.227,1.682,9.439,1
97,35.275,-97.481,5.8,0.78,13.653,319,-0.226,1.684,9.441,1
98,35.275,-97.481,5.8,0.78,13.653,319,-0.239,1.679,9.444,1
99,35.275,-97.481,5.8,0.78,13.653,319,-0.236,1.675,9.441,1
100,35.275,-97.481,5.8,0.78,13.653,319,-0.226,1.683,9.44,1
101,35.275,-97.481,5.8,0.78,13.653,319,-0.224,1.684,9.436,1
102,35.275,-97.481,5.8,0.78,13.653,319,-0.238,1.675,9.439,1
103,35.275,-97.481,5.8,0.78,13.653,319,-0.241,1.678,9.444,1
104,35.275,-97.481,5.8,0.78,13.653,319,-0.232,1.679,9.442,1
105,35.275,-97.481,5.8,0.78,13.653,319,-0.231,1.678,9.445,1
106,35.275,-97.481,5.8,0.78,13.653,319,-0.23,1.682,9.443,1
107,35.275,-97.481,5.8,0.78,13.653,319,-0.231,1.681,9.44,1
108,35.275,-97.481,5.8,0.78,13.653,319,-0.23,1.681,9.442,1
109,35.275,-97.481,5.8,0.78,13.653,319,-0.229,1.683,9.442,1
110,35.275,-97.481,5.8,0.78,13.653,319,-0.232,1.679,9.441,1
111,35.275,-97.481,5.8,0.78,13.653,319,-0.225,1.68,9.441,1
112,35.275,-97.481,5.8,0.78,13.653,319,-0.225,1.741,9.426,1
113,35.275,-97.481,5.8,0.78,13.653,319,-0.228,2.359,9.282,1
114,35.275,-97.481,326.9,0.42,13.653,320,-0.228,2.021,9.359,1
115,35.275,-97.481,337.9,0.93,13.653,317,-0.226,2.59,9.209,1
116,35.275,-97.481,333.5,1.52,13.653,318,-0.221,3.092,9.069,1
117,35.275,-97.481,339.8,2.46,13.653,318,-0.233,3.22,9.04,1
118,35.275,-97.481,348.1,4.01,13.653,318,-0.282,3.509,8.975,1
119,35.275,-97.481,344.2,6.51,13.653,317,-0.38,3.813,8.931,1
120,35.275,-97.481,343.4,7.76,13.653,316,-0.449,3.714,8.965,1
121,35.275,-97.481,340.1,9.46,13.653,314,-0.419,3.571,8.966,1
122,35.275,-97.481,343.2,12.57,13.653,314,-0.488,3.52,8.994,1
123,35.275,-97.482,341.3,13.5,13.653,315,-0.386,3.218,9.085,1
124,35.275,-97.482,342.6,15.44,15.17,311,-0.382,2.636,9.194,1
125,35.276,-97.482,342.7,17.29,13.653,312,-0.441,2.28,9.314,1
126,35.276,-97.482,342.6,17.88,13.653,313,-0.406,2.3,9.305,1
127,35.276,-97.482,343.4,18.47,15.17,315,-0.386,2.323,9.205,1
128,35.276,-97.482,343,19.14,15.17,315,-0.285,2.457,9.321,1
129,35.276,-97.482,342.6,19.81,15.17,315,0.041,2.387,9.068,1
130,35.276,-97.482,343.4,20.64,13.653,315,0.133,2.366,9.069,1
131,35.277,-97.482,343.4,21.21,13.653,314,-0.131,2.343,9.09,1
132,35.277,-97.482,343.4,21.88,13.653,315,-0.247,2.347,9.285,1
133,35.277,-97.482,342.7,22.12,13.653,318,-0.306,2.289,9.277,1
134,35.277,-97.482,342.3,22.73,13.653,321,-0.208,1.978,9.36,1
135,35.277,-97.482,342.6,23.76,13.653,321,-0.215,1.46,9.43,1
136,35.278,-97.482,342.7,23.71,13.653,321,-0.289,0.824,9.512,1
137,35.278,-97.482,343.3,23.49,13.653,322,-0.264,0.946,9.558,1
138,35.278,-97.482,342.3,22.19,13.653,324,-0.264,1.187,9.547,1
139,35.278,-97.483,342.7,22.21,13.653,324,-0.245,1.26,9.556,1
140,35.278,-97.483,342.5,21.66,15.17,324,-0.216,1.312,9.574,1
141,35.279,-97.483,342.8,21.36,15.17,324,-0.186,1.429,9.553,1
142,35.279,-97.483,341.9,21.12,15.17,323,-0.156,1.543,9.51,1
143,35.279,-97.483,342.3,21.13,13.653,326,-0.136,1.848,9.409,1
144,35.279,-97.483,342.6,21.3,13.653,327,-0.125,1.774,9.386,1
145,35.279,-97.483,342.7,21.58,15.17,327,-0.115,1.751,9.346,1
146,35.28,-97.483,342.4,22.27,13.653,328,-0.162,1.867,9.339,1
147,35.28,-97.483,343.2,22.39,15.17,324,-0.116,1.478,9.436,1
148,35.28,-97.483,343.6,22.25,15.17,325,-0.124,1.398,9.547,1
149,35.28,-97.483,343.7,21.88,15.17,326,-0.284,1.569,9.466,1
150,35.28,-97.483,343.5,22.26,15.17,327,-0.328,1.465,9.556,1
151,35.281,-97.483,343.7,21.93,15.17,327,-0.317,1.49,9.527,1
152,35.281,-97.484,344,22.06,15.17,327,-0.298,1.452,9.477,1
153,35.281,-97.484,343.6,21.88,15.17,327,-0.188,1.5,9.487,1
154,35.281,-97.484,342.6,22.11,15.17,327,-0.183,1.331,9.519,1
155,35.281,-97.484,343.6,21.42,15.17,327,-0.247,1.22,9.55,1
156,35.282,-97.484,343.6,21.23,15.17,326,-0.33,1.366,9.526,1
157,35.282,-97.484,343.3,21.09,15.17,328,-0.323,1.614,9.524,1
158,35.282,-97.484,343.6,21.12,15.17,327,-0.269,1.613,9.488,1
159,35.282,-97.484,344.4,21.45,15.17,326,-0.347,1.798,9.5,1
160,35.282,-97.484,343.9,21.81,15.17,324,-0.327,2.125,9.431,1
161,35.283,-97.484,343.4,21.8,15.17,324,-0.297,2.167,9.241,1
162,35.283,-97.484,342.9,22.35,13.653,325,-0.295,2.456,9.268,1
163,35.283,-97.484,343.3,23.73,13.653,323,-0.312,2.777,9.255,1
164,35.283,-97.484,342.8,24.37,13.653,324,-0.467,2.846,8.907,1
165,35.283,-97.484,342.6,26.9,13.653,324,-0.565,3.05,9.121,1
166,35.284,-97.485,341.9,27.52,13.653,324,-0.609,2.897,9.139,1
167,35.284,-97.485,341.4,28.78,13.653,324,-0.525,2.746,9.309,1
168,35.284,-97.485,341.6,29.56,13.653,324,-0.063,2.597,9.137,1
169,35.284,-97.485,340.3,30.48,13.653,325,0.188,2.643,9.145,1
170,35.285,-97.485,339.7,31.66,15.17,325,0.189,2.652,9.232,1
171,35.285,-97.485,342.5,32.97,15.17,325,-0.48,2.596,9.175,1
172,35.285,-97.485,342.5,34.93,13.653,324,-0.998,2.56,9.209,1
173,35.286,-97.485,341.1,36.05,13.653,325,-0.478,2.504,9.247,1
174,35.286,-97.485,341.1,37.07,13.653,328,0.406,2.5,9.288,1
175,35.286,-97.486,342.4,37.64,13.653,328,0.384,1.615,9.465,1
176,35.287,-97.486,343,37.66,13.653,327,0.106,1.08,9.595,1
177,35.287,-97.486,343.1,37.08,13.653,327,-0.076,1.08,9.672,1
178,35.287,-97.486,343.2,37.09,13.653,326,-0.15,1.068,9.587,1
179,35.287,-97.486,343.2,36.6,13.653,326,-0.13,1.055,9.532,1
180,35.288,-97.486,343.2,35.7,13.653,324,0.105,1.082,9.701,1
181,35.288,-97.486,343.6,35.48,13.653,325,-0.12,1.082,9.569,1
183,35.288,-97.486,343.7,34.79,13.653,326,-0.27,1.089,9.575,1
184,35.289,-97.487,343.7,34.65,13.653,324,-0.256,1.09,9.575,1
185,35.289,-97.487,344,34.3,13.653,324,-0.28,1.075,9.608,1
186,35.289,-97.487,343.8,33.64,13.653,324,-0.114,1.076,9.55,1
187,35.29,-97.487,343.7,33.15,13.653,325,-0.087,1.104,9.592,1
188,35.29,-97.487,343.3,32.68,15.17,325,-0.175,1.133,9.629,1
189,35.29,-97.487,343.1,32,13.653,325,-0.161,1.117,9.555,1
190,35.29,-97.487,343.4,31.87,13.653,324,-0.152,1.117,9.528,1
191,35.291,-97.487,343.2,31.09,13.653,323,-0.149,1.196,9.485,1
192,35.291,-97.487,343.2,30.78,13.653,323,-0.266,1.482,9.453,1
193,35.291,-97.487,343.2,30.57,13.653,328,-0.184,1.541,9.529,1
194,35.291,-97.488,343.2,30.76,13.653,329,-0.17,1.608,9.413,1
195,35.292,-97.488,343.6,30.83,13.653,329,-0.137,1.653,9.344,1
196,35.292,-97.488,343.5,31.07,13.653,329,-0.187,1.654,9.412,1
197,35.292,-97.488,343.4,31.18,13.653,329,-0.243,1.646,9.354,1
198,35.293,-97.488,343.1,31.4,13.653,329,-0.212,1.801,9.423,1
199,35.293,-97.488,343.1,31.75,13.653,329,-0.216,1.834,9.381,1
200,35.293,-97.488,343.2,32.11,13.653,329,-0.205,1.753,9.392,1
201,35.293,-97.488,343.1,32.44,13.653,329,-0.213,1.671,9.443,1
202,35.294,-97.488,343,32.8,13.653,330,-0.128,1.602,9.416,1
203,35.294,-97.488,343,32.94,13.653,330,-0.023,1.582,9.494,1
204,35.294,-97.489,343.3,33.03,13.653,330,-0.152,1.529,9.478,1
205,35.294,-97.489,343.4,33.23,13.653,330,-0.237,1.511,9.54,1
206,35.295,-97.489,343.2,33.32,13.653,330,-0.124,1.457,9.455,1
207,35.295,-97.489,343.2,33.34,13.653,330,0.003,1.402,9.353,1
208,35.295,-97.489,343.7,33.38,13.653,330,0.044,1.439,9.556,1
209,35.296,-97.489,344,33.34,13.653,329,-0.152,1.416,9.615,1
210,35.296,-97.489,344.1,33.32,13.653,327,0.124,1.458,9.627,1
211,35.296,-97.489,344.6,33.36,13.653,319,0.353,1.475,9.682,1
212,35.297,-97.489,345.6,33.4,13.653,320,0.416,1.476,9.562,1
213,35.297,-97.489,346.5,33.63,13.653,320,0.436,1.491,9.536,1
214,35.297,-97.49,347.7,33.32,13.653,324,0.4,1.539,9.673,1
215,35.297,-97.49,349.6,33.23,13.653,325,0.488,1.552,9.666,1
216,35.298,-97.49,350.6,33.28,13.653,326,0.35,1.543,9.401,1
217,35.298,-97.49,352.2,33.18,13.653,328,0.24,1.599,9.433,1
218,35.298,-97.49,352.7,33.43,13.653,330,0.168,1.627,9.404,1
219,35.299,-97.49,353.7,33.19,13.653,329,0.389,1.654,9.485,1
220,35.299,-97.49,354.9,33.11,13.653,329,0.287,1.663,9.533,1
221,35.299,-97.49,356.3,33.01,13.653,330,0.206,1.679,9.425,1
222,35.299,-97.49,357.3,33.06,13.653,330,0.353,1.72,9.411,1
223,35.3,-97.49,358.3,33.12,13.653,330,0.194,1.713,9.422,1
224,35.3,-97.49,359.2,33.1,13.653,330,-0.038,1.684,9.378,1
225,35.3,-97.49,0,33.01,13.653,331,-0.114,1.682,9.369,1
226,35.301,-97.49,0.1,32.92,13.653,332,-0.171,1.653,9.286,1
227,35.301,-97.49,359.9,32.93,15.17,334,-0.231,1.649,9.397,1
228,35.302,-97.49,359.9,32.8,15.17,334,-0.205,1.614,9.411,1
229,35.302,-97.49,359.6,32.87,15.17,334,-0.194,1.631,9.458,1
230,35.302,-97.49,0,33.43,16.687,334,-0.184,1.629,9.449,1
231,35.302,-97.49,0,33.33,16.687,335,-0.127,1.59,9.474,1
232,35.303,-97.49,0.1,33.43,16.687,335,-0.16,1.568,9.445,1
233,35.303,-97.49,0.2,33.61,15.17,336,-0.092,1.591,9.448,1
234,35.303,-97.49,0.7,33.7,16.687,336,0.013,1.487,9.396,1
235,35.304,-97.49,0.8,33.7,16.687,336,-0.102,1.396,9.478,1
236,35.304,-97.49,1,33.4,15.17,337,-0.367,1.329,9.527,1
237,35.304,-97.49,0.7,33.43,15.17,337,-0.485,1.263,9.542,1
238,35.305,-97.49,0.4,33.31,15.17,338,-0.447,1.211,9.61,1
239,35.305,-97.49,0.2,33.08,15.17,338,-0.324,1.169,9.52,1
240,35.305,-97.49,0.3,32.95,15.17,339,-0.325,1.178,9.589,1
241,35.305,-97.49,0.1,31.98,15.17,339,-0.541,1.191,9.608,1
242,35.306,-97.49,359.6,31.95,15.17,339,-0.697,1.22,9.569,1
243,35.306,-97.49,358.7,31.79,15.17,339,-0.433,1.233,9.529,1
244,35.306,-97.49,359.2,31.41,15.17,338,0.124,1.281,9.531,1
245,35.307,-97.49,359.5,31.57,15.17,338,0.126,1.414,9.496,1
246,35.307,-97.49,359.8,31.24,15.17,337,-0.083,1.44,9.515,1
247,35.307,-97.49,359.7,31.03,15.17,337,-0.007,1.458,9.445,1
248,35.307,-97.49,0.1,31.12,15.17,338,-0.126,1.483,9.462,1
249,35.308,-97.49,0.4,31.48,15.17,338,-0.233,1.487,9.488,1
250,35.308,-97.49,359.9,31.12,15.17,338,-0.164,1.498,9.518,1
251,35.308,-97.49,0.1,31.28,15.17,338,-0.102,1.495,9.537,1
252,35.309,-97.49,0.4,31.24,16.687,338,-0.176,1.487,9.539,1
253,35.309,-97.49,0.1,31.03,15.17,337,-0.198,1.503,9.527,1
254,35.309,-97.49,0,31.01,16.687,337,-0.179,1.483,9.495,1
255,35.309,-97.49,0,31,16.687,336,-0.195,1.502,9.507,1
256,35.31,-97.49,359.9,30.93,16.687,336,-0.078,1.503,9.555,1
257,35.31,-97.49,359.9,30.87,16.687,337,-0.167,1.482,9.502,1
258,35.31,-97.49,359.9,30.85,16.687,337,-0.111,1.523,9.54,1
259,35.31,-97.49,359.4,30.12,16.687,336,-0.139,1.53,9.531,1
260,35.311,-97.49,359.7,30.46,16.687,337,-0.055,1.562,9.467,1
261,35.311,-97.49,0.1,30.74,16.687,338,-0.095,1.554,9.451,1
262,35.311,-97.49,0.4,30.87,16.687,339,-0.209,1.551,9.478,1
263,35.312,-97.49,0.2,30.93,16.687,338,-0.138,1.586,9.503,1
265,35.312,-97.49,0.2,30.88,16.687,338,-0.2,1.575,9.515,1
266,35.312,-97.49,0.1,30.71,16.687,338,-0.218,1.641,9.46,1
267,35.312,-97.49,0,30.66,16.687,338,-0.229,1.678,9.42,1
268,35.313,-97.49,359.8,30.64,15.17,338,-0.247,1.732,9.445,1
269,35.313,-97.49,359.8,30.82,15.17,338,-0.133,1.791,9.461,1
270,35.313,-97.49,359.8,30.82,15.17,338,-0.157,1.802,9.386,1
271,35.314,-97.49,359.9,31.17,15.17,337,-0.204,1.811,9.47,1
272,35.314,-97.49,0,31.43,15.17,338,-0.227,1.776,9.391,1
273,35.314,-97.49,359.8,31.51,15.17,338,-0.225,1.727,9.451,1
274,35.314,-97.49,359.4,31.47,15.17,338,-0.103,1.675,9.436,1
275,35.315,-97.49,359.6,31.71,16.687,339,-0.112,1.661,9.43,1
276,35.315,-97.49,359.8,31.83,16.687,340,-0.105,1.629,9.556,1
277,35.315,-97.49,359.6,31.48,16.687,340,-0.059,1.307,9.506,1
278,35.315,-97.49,0,31.34,16.687,340,-0.047,1.188,9.598,1
279,35.316,-97.49,0.3,31.07,16.687,339,-0.26,1.163,9.566,1
280,35.316,-97.49,0.3,30.84,15.17,340,-0.174,1.173,9.583,1
281,35.316,-97.49,0.4,30.34,15.17,339,-0.307,1.508,9.546,1
282,35.317,-97.49,0.1,30.22,16.687,339,-0.276,1.692,9.373,1
283,35.317,-97.49,0,30.27,16.687,339,-0.186,1.84,9.363,1
284,35.317,-97.49,359.8,30.51,16.687,339,-0.242,1.975,9.377,1
285,35.317,-97.49,359.6,30.59,16.687,339,-0.151,2.142,9.351,1
286,35.318,-97.49,359.5,30.98,16.687,339,-0.178,2.087,9.351,1
287,35.318,-97.49,359.4,31.37,16.687,340,-0.018,2.007,9.374,1
288,35.318,-97.49,359.7,31.86,16.687,340,-0.162,1.887,9.308,1
289,35.319,-97.49,359.7,32.14,16.687,340,-0.085,1.837,9.42,1
290,35.319,-97.49,359.8,32.4,15.17,339,-0.105,1.747,9.312,1
291,35.319,-97.49,0.1,32.83,15.17,340,-0.183,1.707,9.398,1
292,35.319,-97.49,0.3,33.14,15.17,341,-0.275,1.591,9.192,1
293,35.32,-97.49,0,33.38,15.17,341,-0.131,1.638,9.408,1
294,35.32,-97.49,0.7,33.41,15.17,343,-0.187,1.626,9.524,1
295,35.32,-97.49,0.7,33.44,15.17,344,-0.124,1.569,9.487,1
296,35.321,-97.49,0,33.71,15.17,344,-0.136,1.525,9.487,1
297,35.321,-97.49,0,33.79,15.17,343,-0.191,1.482,9.481,1
298,35.321,-97.49,0.1,33.88,15.17,343,-0.156,1.472,9.512,1
299,35.322,-97.49,359.9,33.46,16.687,343,-0.243,1.476,9.535,1
300,35.322,-97.49,359.8,33.5,16.687,342,-0.212,1.487,9.533,1
301,35.322,-97.49,359.6,33.43,16.687,342,-0.109,1.498,9.536,1
302,35.323,-97.49,0.1,33.68,16.687,342,-0.151,1.519,9.554,1
303,35.323,-97.49,0,33.62,16.687,342,-0.13,1.543,9.54,1
304,35.323,-97.49,0,33.46,16.687,343,-0.104,1.53,9.534,1
305,35.323,-97.49,0.1,33.47,15.17,342,-0.211,1.532,9.48,1
306,35.324,-97.49,0.3,33.48,15.17,343,-0.249,1.522,9.461,1
307,35.324,-97.49,0.3,33.44,15.17,342,-0.252,1.542,9.516,1
308,35.324,-97.49,0,33.43,15.17,343,-0.262,1.555,9.492,1
309,35.325,-97.49,359.8,33.15,15.17,342,-0.223,1.537,9.406,1
310,35.325,-97.49,359.7,33.02,15.17,342,-0.202,1.583,9.525,1
311,35.325,-97.49,359.6,33.1,15.17,341,-0.138,1.578,9.461,1
312,35.326,-97.49,359.7,33.19,15.17,341,-0.141,1.569,9.473,1
313,35.326,-97.49,359.8,33.2,16.687,342,-0.183,1.571,9.481,1
314,35.326,-97.49,359.8,33.15,16.687,343,-0.066,1.567,9.472,1
315,35.326,-97.49,359.6,32.98,16.687,343,-0.044,1.581,9.536,1
316,35.327,-97.49,359.9,33.08,16.687,343,-0.134,1.563,9.468,1
317,35.327,-97.49,0.2,33.31,16.687,344,-0.161,1.568,9.493,1
318,35.327,-97.49,0.1,33.18,16.687,345,-0.153,1.547,9.468,1
319,35.328,-97.49,0.3,33.45,16.687,345,-0.127,1.563,9.493,1
320,35.328,-97.49,0,33.08,16.687,345,-0.15,1.557,9.418,1
321,35.329,-97.49,359.9,32.9,16.687,345,-0.172,1.567,9.436,1
322,35.329,-97.49,359.9,33.08,16.687,345,-0.163,1.587,9.545,1
323,35.329,-97.49,359.7,32.87,16.687,345,-0.164,1.572,9.463,1
324,35.329,-97.49,359.8,32.96,16.687,345,-0.157,1.586,9.445,1
325,35.33,-97.49,359.9,32.95,16.687,345,-0.111,1.455,9.506,1
326,35.33,-97.49,359.9,32.82,16.687,345,-0.123,1.229,9.548,1
327,35.33,-97.49,0,32.52,16.687,345,-0.2,1.173,9.566,1
328,35.331,-97.49,359.9,32.18,16.687,344,-0.12,1.195,9.515,1
331,35.331,-97.49,0.3,31.29,16.687,343,-0.19,1.253,9.597,1
332,35.332,-97.49,0.5,31.16,16.687,343,-0.143,1.204,9.519,1
333,35.332,-97.49,0.3,30.95,16.687,344,-0.073,1.203,9.597,1
334,35.332,-97.49,0.4,29.89,16.687,343,-0.262,0.419,9.791,1
335,35.333,-97.49,359.9,28.82,18.204,343,-0.227,0.185,9.779,1
336,35.333,-97.49,359.1,28.07,16.687,343,-0.135,0.956,9.584,1
337,35.333,-97.49,358.3,27.31,16.687,345,-0.167,1.421,9.393,1
338,35.333,-97.49,357.4,27.01,16.687,346,-0.174,1.738,9.442,1
339,35.333,-97.49,356.5,26.69,15.17,346,-0.024,1.802,9.42,1
340,35.334,-97.49,354.9,26.9,15.17,346,-0.144,1.906,9.414,1
341,35.334,-97.49,354.5,26.4,15.17,345,-0.341,1.982,9.432,1
342,35.334,-97.49,353.5,27.4,15.17,345,-0.411,1.977,9.374,1
343,35.334,-97.49,350.9,28.27,13.653,345,-0.376,1.881,9.366,1
344,35.335,-97.49,349.9,28.46,13.653,346,-0.36,1.418,9.483,1
345,35.335,-97.49,348.4,28.25,13.653,344,-0.129,1.345,9.557,1
346,35.335,-97.49,347.1,27.95,13.653,344,-0.006,1.527,9.543,1
347,35.335,-97.49,346.3,28.13,13.653,344,-0.407,1.607,9.479,1
348,35.336,-97.49,344.8,27.96,13.653,343,-0.445,1.278,9.635,1
349,35.336,-97.491,343.4,27.53,13.653,344,-0.272,1.414,9.648,1
350,35.336,-97.491,342.4,27.28,13.653,345,-0.124,1.503,9.651,1
351,35.336,-97.491,341.7,26.95,13.653,345,0.04,1.666,9.558,1
352,35.337,-97.491,341.5,27.14,13.653,347,0.081,1.9,9.503,1
354,35.337,-97.491,341.4,27.3,13.653,348,0.156,1.989,9.443,1
355,35.337,-97.491,342,27.58,13.653,348,0.022,2.029,9.432,1
356,35.337,-97.491,342.4,27.96,13.653,348,-0.254,1.996,9.337,1
357,35.338,-97.491,342.3,28.14,13.653,349,-0.292,2.025,9.291,1
358,35.338,-97.491,342,28.25,13.653,350,-0.331,2.119,9.18,1
359,35.338,-97.491,342,28.84,13.653,349,-0.305,2.167,9.374,1
360,35.338,-97.491,342.1,29.13,13.653,349,-0.322,2.091,9.338,1
361,35.339,-97.492,341.3,29.68,13.653,348,-0.19,2.049,9.255,1
362,35.339,-97.492,341.2,29.98,13.653,350,-0.1,2.059,9.135,1
363,35.339,-97.492,341.3,30.44,13.653,350,-0.174,2.08,9.177,1
364,35.339,-97.492,341.3,30.9,13.653,351,-0.167,2.116,9.365,1
365,35.34,-97.492,341.3,31.56,13.653,352,-0.115,2.084,9.407,1
366,35.34,-97.492,341.4,32.09,13.653,352,-0.155,1.436,9.446,1
367,35.34,-97.492,341.6,32,13.653,352,-0.222,1.184,9.616,1
368,35.34,-97.492,341.3,31.44,13.653,353,-0.117,1.11,9.552,1
369,35.341,-97.492,341.6,31.12,13.653,354,-0.089,1.12,9.543,1
370,35.341,-97.493,341.6,30.6,13.653,355,-0.113,1.12,9.522,1
371,35.341,-97.493,341.8,30.18,13.653,355,-0.275,1.108,9.538,1
372,35.341,-97.493,341.8,29.99,13.653,354,-0.253,1.139,9.626,1
373,35.342,-97.493,341.3,29.56,13.653,354,-0.33,1.13,9.572,1
374,35.342,-97.493,341.4,28.9,13.653,355,-0.206,1.376,9.505,1
375,35.342,-97.493,341.4,28.9,13.653,355,-0.143,1.724,9.482,1
376,35.342,-97.493,341.2,28.64,13.653,356,-0.121,1.694,9.537,1
377,35.343,-97.493,341.7,28.97,13.653,355,-0.066,1.274,9.299,1
378,35.343,-97.493,341.5,29.15,13.653,355,-0.046,1.3,9.485,1
379,35.343,-97.494,341.8,28.81,13.653,355,-0.164,1.537,9.39,1
380,35.343,-97.494,342,29,13.653,355,0.051,1.574,9.504,1
381,35.344,-97.494,342.1,29.25,13.653,355,0.262,1.257,9.502,1
382,35.344,-97.494,342.9,29.16,13.653,355,0.376,1.233,9.434,1
383,35.344,-97.494,343.3,28.86,13.653,355,0.158,1.417,9.472,1
384,35.344,-97.494,344.9,28.8,13.653,354,-0.054,1.471,9.598,1
385,35.345,-97.494,345.5,29.05,13.653,354,0.18,1.441,9.573,1
386,35.345,-97.494,346.3,29.24,13.653,354,0.27,1.282,9.772,1
387,35.345,-97.494,347.7,29.19,13.653,353,0.416,1.336,9.742,1
388,35.345,-97.494,348.8,29,13.653,353,0.294,1.375,9.721,1
389,35.346,-97.494,349.8,28.77,13.653,353,0.295,1.38,9.646,1
390,35.346,-97.494,350.5,28.76,13.653,353,0.059,1.37,9.571,1
391,35.346,-97.494,351.8,28.47,13.653,353,0.133,1.373,9.542,1
392,35.347,-97.494,352.5,28.34,13.653,353,0.186,1.361,9.472,1
393,35.347,-97.494,353.5,27.92,13.653,353,0.07,1.544,9.462,1
394,35.347,-97.494,354.1,27.66,13.653,353,0.229,1.676,9.464,1
395,35.347,-97.495,355.1,27.54,13.653,354,0.14,1.763,9.394,1
396,35.347,-97.495,356.1,27.69,13.653,354,0.216,1.808,9.419,1
397,35.348,-97.495,356.9,27.78,13.653,356,0.158,1.913,9.408,1
398,35.348,-97.495,357.8,27.94,13.653,356,-0.035,1.939,9.421,1
399,35.348,-97.495,358,28.01,13.653,354,0.05,1.967,9.391,1
400,35.349,-97.495,358.9,28.66,15.17,353,-0.07,2.024,9.517,1
401,35.349,-97.495,359.7,29.43,13.653,354,-0.082,1.873,9.4,1
402,35.349,-97.495,359.2,29.63,13.653,354,-0.22,1.711,9.478,1
403,35.35,-97.495,359.5,29.73,15.17,354,-0.291,1.527,9.506,1
404,35.35,-97.495,359.5,29.33,15.17,354,-0.271,1.43,9.529,1
405,35.35,-97.495,359.7,29.37,15.17,354,-0.371,1.521,9.438,1
406,35.35,-97.495,359.6,29.28,15.17,354,-0.267,1.3,9.558,1
407,35.351,-97.495,0.1,29.12,15.17,354,-0.296,1.319,9.544,1
408,35.351,-97.495,0,28.98,15.17,355,-0.427,1.274,9.564,1
409,35.351,-97.495,359.8,28.62,15.17,355,-0.365,1.615,9.483,1
410,35.351,-97.495,359.9,28.72,15.17,355,-0.321,1.759,9.362,1
411,35.352,-97.495,359.6,28.71,15.17,355,-0.382,1.528,9.512,1
412,35.352,-97.495,359.7,28.66,15.17,355,-0.294,1.476,9.409,1
413,35.352,-97.495,359.7,28.52,15.17,356,-0.224,1.511,9.469,1
414,35.352,-97.495,359.9,28.24,15.17,356,-0.278,1.509,9.52,1
415,35.353,-97.495,359.7,27.9,16.687,356,-0.36,1.502,9.52,1
416,35.353,-97.495,359.8,27.94,15.17,356,-0.397,1.446,9.501,1
417,35.353,-97.495,359.6,27.59,15.17,357,-0.386,1.528,9.463,1
418,35.353,-97.495,359.5,27.7,15.17,357,-0.323,1.59,9.482,1
419,35.354,-97.495,1.1,28.29,16.687,357,-0.326,1.649,9.518,1
420,35.354,-97.495,359.5,27.3,13.653,359,-0.43,1.733,9.451,1
421,35.354,-97.495,359.4,27.5,13.653,360,-0.324,1.713,9.418,1
422,35.354,-97.495,359.5,27.68,15.17,360,-0.303,1.769,9.426,1
423,35.355,-97.495,359.6,27.94,15.17,361,-0.284,1.798,9.411,1
424,35.355,-97.495,359.5,28.13,15.17,361,-0.264,1.803,9.432,1
425,35.355,-97.495,359.6,28.27,15.17,362,-0.289,1.81,9.467,1
426,35.355,-97.495,359.6,28.41,15.17,362,-0.206,1.8,9.462,1
427,35.356,-97.495,359.7,28.59,15.17,362,-0.214,1.796,9.461,1
429,35.356,-97.495,359.6,28.73,16.687,362,-0.241,1.61,9.451,1
430,35.356,-97.495,359.5,28.73,16.687,363,-0.171,1.608,9.503,1
431,35.356,-97.495,359.5,28.74,15.17,363,-0.061,1.584,9.476,1
432,35.357,-97.495,359.7,28.79,15.17,363,-0.204,1.427,9.475,1
433,35.357,-97.495,359.6,28.72,15.17,364,-0.258,1.325,9.483,1
434,35.357,-97.495,359.5,28.47,15.17,363,-0.218,1.309,9.585,1
435,35.358,-97.495,359.8,28.59,15.17,364,-0.208,1.557,9.466,1
436,35.358,-97.495,359.6,28.41,16.687,364,-0.225,1.611,9.485,1
437,35.358,-97.495,359.5,28.09,15.17,365,-0.245,1.557,9.432,1
438,35.358,-97.495,359.6,28.04,15.17,365,-0.305,1.488,9.46,1
439,35.359,-97.495,359.6,27.91,15.17,365,-0.318,1.608,9.64,1
440,35.359,-97.495,359.3,27.97,15.17,365,-0.218,1.566,9.464,1
441,35.359,-97.495,359.1,27.84,15.17,365,-0.094,1.596,9.464,1
442,35.359,-97.495,358.8,27.54,16.687,364,-0.071,1.663,9.445,1
443,35.36,-97.495,359,27.64,16.687,365,-0.055,1.693,9.421,1
444,35.36,-97.495,359.3,27.8,15.17,364,-0.033,1.703,9.397,1
445,35.36,-97.495,359.3,27.75,15.17,364,-0.237,2.139,9.375,1
446,35.36,-97.495,359,28.09,15.17,364,-0.183,2.147,9.503,1
447,35.361,-97.495,359,28.46,15.17,364,-0.105,2.115,9.482,1
448,35.361,-97.495,358.9,28.87,15.17,363,-0.026,2.377,9.394,1
449,35.361,-97.495,359,29.47,15.17,365,-0.068,2.31,9.256,1
450,35.361,-97.495,359.1,30.01,15.17,365,-0.237,2.184,9.49,1
451,35.362,-97.495,359,30.09,15.17,365,-0.389,2.03,9.38,1
452,35.362,-97.495,358.8,30.37,15.17,366,-0.212,2.001,9.258,1
453,35.362,-97.495,358.9,30.8,15.17,367,-0.191,1.98,9.163,1
454,35.362,-97.495,359,31.33,15.17,368,-0.238,1.975,9.241,1
455,35.363,-97.495,359.2,31.79,15.17,367,-0.212,1.922,9.236,1
456,35.363,-97.495,359.2,31.99,15.17,368,-0.339,1.493,9.386,1
457,35.363,-97.495,359.3,32.15,15.17,369,-0.254,1.271,9.378,1
458,35.364,-97.495,359.2,32.17,15.17,369,-0.074,1.156,9.177,1
459,35.364,-97.495,359.6,31.98,13.653,369,0.077,1.192,9.367,1
460,35.364,-97.495,0.3,31.86,13.653,368,-0.005,1.219,9.433,1
461,35.365,-97.495,0.7,31.83,4.551,367,-0.245,1.236,9.601,1
462,35.365,-97.495,0.7,31.86,4.551,367,-0.356,1.266,9.772,1
463,35.365,-97.495,0.5,31.62,6.068,367,-0.526,1.244,9.77,1
464,35.365,-97.495,359.9,31.28,4.551,366,-0.492,1.264,9.734,1
465,35.366,-97.495,359.9,31.24,4.551,365,-0.465,1.336,9.831,1
466,35.366,-97.495,359.7,31.06,4.551,365,-0.294,1.398,9.693,1
467,35.366,-97.495,359.5,30.64,6.068,365,-0.234,1.574,9.608,1
468,35.367,-97.495,359.7,30.51,6.068,366,-0.317,1.546,9.519,1
469,35.367,-97.495,359.5,30.26,6.068,366,-0.338,1.591,9.48,1
470,35.367,-97.495,359.5,29.98,6.068,366,-0.299,1.702,9.418,1
471,35.367,-97.495,359.3,29.93,6.068,367,-0.21,1.725,9.453,1
472,35.368,-97.495,359.6,30.11,6.068,366,-0.355,1.78,9.439,1
473,35.368,-97.495,359.4,30.13,6.068,367,-0.371,1.812,9.457,1
474,35.368,-97.495,359.3,30.19,6.068,368,-0.303,1.786,9.443,1
475,35.368,-97.495,359.1,30.15,7.585,368,-0.301,1.719,9.391,1
476,35.369,-97.495,359,30.19,7.585,369,-0.24,1.67,9.47,1
477,35.369,-97.495,358.7,29.52,9.102,370,-0.178,1.618,9.364,1
478,35.369,-97.495,359.3,30.23,7.585,370,-0.217,1.602,9.337,1
479,35.37,-97.495,359.5,30.28,7.585,370,-0.399,1.6,9.323,1
480,35.37,-97.495,359.4,30.31,6.068,371,-0.512,1.602,9.385,1
481,35.37,-97.495,359.1,30.29,6.068,368,-0.417,1.624,9.486,1
482,35.371,-97.495,359.1,30.04,6.068,369,-0.395,1.351,9.553,1
483,35.371,-97.495,359.2,29.96,6.068,371,-0.415,1.515,9.479,1
484,35.371,-97.495,359.3,29.98,4.551,370,-0.404,1.552,9.386,1
485,35.371,-97.495,359.4,29.94,6.068,370,-0.425,1.56,9.423,1
486,35.372,-97.495,359.4,29.87,4.551,371,-0.538,1.547,9.458,1
487,35.372,-97.495,359.3,29.86,4.551,369,-0.44,1.559,9.507,1
488,35.372,-97.495,359.1,29.82,4.551,369,-0.39,1.573,9.541,1
489,35.372,-97.495,359.3,29.83,4.551,370,-0.359,1.572,9.466,1
490,35.373,-97.495,359.3,29.73,6.068,371,-0.354,1.558,9.493,1
491,35.373,-97.495,359.4,29.88,6.068,372,-0.356,1.562,9.462,1
492,35.373,-97.495,359.4,29.84,7.585,373,-0.344,1.585,9.473,1
493,35.374,-97.495,359.6,29.7,6.068,373,-0.192,1.598,9.423,1
494,35.374,-97.495,359.7,29.73,6.068,374,-0.252,1.607,9.46,1
495,35.374,-97.495,359.6,29.74,6.068,374,-0.332,1.557,9.464,1
496,35.374,-97.495,359.7,29.7,6.068,374,-0.379,1.56,9.509,1
497,35.375,-97.495,359.6,29.56,6.068,375,-0.38,1.306,9.544,1
498,35.375,-97.495,359.4,29.35,7.585,375,-0.319,1.626,9.641,1
499,35.375,-97.495,359.3,28.98,9.102,375,-0.248,1.705,9.616,1
500,35.375,-97.495,359.5,29.09,9.102,376,-0.188,1.679,9.654,1
501,35.376,-97.495,359.5,29.08,10.619,376,-0.265,1.527,9.534,1
502,35.376,-97.495,359.8,29.07,10.619,377,-0.166,1.662,9.367,1
503,35.376,-97.495,359.7,28.72,7.585,376,-0.197,1.853,9.301,1
504,35.376,-97.495,359.6,28.69,7.585,377,-0.291,1.638,9.391,1
505,35.377,-97.495,359.7,28.53,9.102,376,-0.165,1.338,9.392,1
507,35.377,-97.495,0,28.66,9.102,376,-0.303,1.282,9.643,1
508,35.377,-97.495,0,28.22,7.585,376,-0.227,1.208,9.469,1
509,35.377,-97.495,0.2,27.99,7.585,372,-0.17,1.197,9.471,1
510,35.378,-97.495,0.1,27.45,6.068,372,-0.279,1.066,9.119,1
511,35.378,-97.495,359.8,27.01,7.585,373,-0.506,1.166,9.529,1
512,35.378,-97.495,359.6,26.57,7.585,373,-0.439,1.323,9.472,1
513,35.378,-97.495,359.7,26.82,7.585,370,-0.386,1.483,9.321,1
514,35.379,-97.495,359.6,26.85,7.585,370,-0.388,1.907,9.338,1
515,35.379,-97.495,359.1,27.02,7.585,370,-0.306,1.993,9.266,1
516,35.379,-97.495,359.6,28.13,7.585,370,-0.36,1.976,9.374,1
517,35.379,-97.495,359.6,28.46,7.585,371,-0.267,1.783,9.55,1
518,35.38,-97.495,359.7,29.32,6.068,369,-0.285,1.701,9.552,1
519,35.38,-97.495,359.3,29.09,6.068,369,-0.294,1.719,9.623,1
520,35.38,-97.495,359.3,29.09,7.585,369,-0.148,1.693,9.437,1
521,35.38,-97.495,0.1,29.68,6.068,371,0.011,1.708,9.472,1
522,35.381,-97.495,0.6,29.72,6.068,371,0.033,1.704,9.455,1
523,35.381,-97.495,0.6,29.72,9.102,371,-0.202,1.656,9.44,1
524,35.381,-97.495,1.5,30.4,6.068,371,-0.407,1.584,9.301,1
525,35.382,-97.495,1.5,30.4,9.102,371,-0.403,1.339,9.333,1
526,35.382,-97.495,0.3,30.61,7.585,371,-0.441,1.244,9.422,1
527,35.382,-97.495,0.3,30.6,10.619,371,-0.326,1.206,9.358,1
528,35.382,-97.495,0.2,31.22,12.136,369,-0.345,1.214,9.407,1
529,35.383,-97.495,359.2,30.3,7.585,369,0.004,1.227,9.488,1
530,35.383,-97.495,359.2,30.3,9.102,370,-0.104,1.224,9.512,1
531,35.383,-97.495,0.1,31.13,9.102,370,-0.197,1.191,9.463,1
532,35.384,-97.495,359.9,30.56,7.585,369,-0.275,1.209,9.541,1
533,35.384,-97.495,359.9,30.77,7.585,370,-0.218,1.254,9.698,1
534,35.384,-97.495,359.7,30.79,6.068,368,-0.212,1.27,9.818,1
535,35.384,-97.495,359.7,30.78,6.068,368,-0.068,1.262,9.721,1
536,35.385,-97.495,0.1,30.8,6.068,368,-0.1,1.274,9.817,0
537,35.385,-97.495,0,30.5,6.068,367,-0.215,1.285,9.8,0
538,35.385,-97.495,0.1,30.28,6.068,367,-0.111,1.255,9.709,0
539,35.385,-97.495,0.3,29.88,7.585,366,0.032,1.243,9.628,0
540,35.386,-97.495,0.3,29.88,9.102,366,0.224,1.256,9.602,0
541,35.386,-97.495,2,29.29,6.068,368,0.268,1.15,9.408,0
542,35.386,-97.495,3.2,28.93,6.068,368,0.088,1.155,9.462,0
543,35.386,-97.495,4.2,28.13,6.068,368,-0.014,1.183,9.513,0
544,35.387,-97.495,4.3,27.81,6.068,369,-0.306,1.149,9.42,0
545,35.387,-97.495,3.8,27.76,6.068,368,-0.156,1.189,9.524,1
546,35.387,-97.495,3.2,27.27,6.068,367,-0.257,1.192,9.655,1
547,35.387,-97.495,2.4,27.2,7.585,367,-0.401,1.202,9.657,1
548,35.388,-97.495,1.3,27.02,7.585,366,-0.149,1.483,9.328,1
549,35.388,-97.495,0.9,27.17,7.585,366,-0.03,1.739,9.854,0
550,35.388,-97.495,0.3,27.23,9.102,366,-0.043,1.853,9.38,0
551,35.389,-97.495,359.6,27.6,6.068,365,-0.15,1.925,9.376,0
552,35.389,-97.495,359.5,28.25,6.068,363,-0.181,1.932,9.5,0
553,35.389,-97.495,359,28.19,6.068,362,-0.204,1.404,9.728,0
554,35.389,-97.495,358.9,28.05,6.068,363,0.108,1.339,9.542,0
555,35.39,-97.495,358.3,27.6,6.068,362,-0.074,1.264,9.454,0
556,35.39,-97.495,357.9,27.05,6.068,363,-0.14,0.968,9.783,0
557,35.39,-97.495,357.6,26.19,6.068,362,0.071,0.613,9.602,0
558,35.39,-97.495,357.7,24.37,6.068,363,0.126,-0.33,9.864,1
559,35.391,-97.495,357.8,22.43,6.068,364,0.137,-0.139,9.941,1
560,35.391,-97.495,357.5,20.57,4.551,364,-0.022,0.232,9.735,0
561,35.391,-97.495,358,20.52,6.068,364,0.004,1.265,9.5,0
562,35.391,-97.495,357.9,21.85,4.551,365,-0.125,2.738,9.255,0
563,35.391,-97.495,0.2,22.8,6.068,364,0.572,1.946,9.307,0
564,35.392,-97.495,1.9,22.76,4.551,364,0.27,1.434,9.557,0
565,35.392,-97.495,1.9,22.76,6.068,364,0.017,1.036,9.585,0
566,35.392,-97.495,3.4,21.95,6.068,364,-0.39,-0.15,9.947,0
567,35.392,-97.495,3.7,22.07,7.585,363,1.154,-0.064,10.031,0
568,35.392,-97.495,3.7,19,7.585,364,3.146,-0.792,9.651,0
569,35.392,-97.495,27.7,15.66,4.551,365,3.645,0.482,9.787,0
570,35.393,-97.495,33.7,15.11,6.068,366,4.243,0.937,9.965,0
571,35.393,-97.494,68.1,14.32,6.068,366,4.198,1.027,9.787,0
572,35.393,-97.494,87,13.79,4.551,367,3.76,1.086,9.917,0
573,35.393,-97.494,102.9,13.2,4.551,366,3.269,1.144,9.878,0
574,35.393,-97.494,122.3,12.53,4.551,367,2.822,1.135,9.781,0
575,35.392,-97.494,138,11.63,6.068,367,2.514,1.138,9.694,0
576,35.392,-97.494,138,11.62,6.068,367,2.02,1.16,9.717,0
577,35.392,-97.494,165.2,10.32,6.068,367,1.74,1.169,9.669,0
578,35.392,-97.494,165.2,10.31,7.585,368,1.364,1.177,9.625,0
579,35.392,-97.494,166.4,11.04,12.136,369,1.027,1.198,9.638,0
580,35.392,-97.494,186.3,9.59,9.102,368,0.7,1.352,9.619,0
581,35.392,-97.494,209.6,7.61,7.585,365,0.598,1.361,9.571,0
582,35.392,-97.494,214,6.94,7.585,365,0.302,0.724,9.727,0
583,35.392,-97.494,227.8,4.88,6.068,365,-0.205,0.755,9.679,0
584,35.392,-97.494,232.1,4.04,6.068,366,-0.497,0.876,9.637,0
585,35.392,-97.494,234.3,3.8,6.068,366,-0.59,2.368,9.302,1
586,35.392,-97.494,234.3,3.8,9.102,366,-0.255,3.48,9.028,1
588,35.392,-97.494,241.5,5.72,7.585,366,0.207,3.296,9.051,1
589,35.392,-97.494,245.3,6.38,7.585,366,0.738,3.429,9.007,1
590,35.392,-97.494,260.6,8.62,6.068,365,1.335,3.41,8.923,1
591,35.392,-97.494,273.1,10.51,6.068,366,1.182,4.119,8.652,1
592,35.392,-97.495,279.2,13.42,6.068,367,0.56,3.962,8.715,1
593,35.392,-97.495,280.9,15.46,6.068,369,-0.085,3.154,9.013,1
594,35.392,-97.495,279.7,16.76,4.551,369,-0.164,2.575,9.09,1
595,35.392,-97.495,279,17.59,4.551,371,-0.024,1.696,9.34,1
596,35.392,-97.495,278.9,17.8,6.068,371,-0.198,1.889,9.284,1
597,35.392,-97.496,277.8,18.75,6.068,370,-0.543,2.357,9.009,1
598,35.392,-97.496,277.2,19.59,4.551,370,-0.414,2.512,9.222,1
599,35.392,-97.496,276.9,20.28,6.068,368,-0.252,2.499,9.233,1
600,35.392,-97.496,276.8,21.98,4.551,366,-0.083,2.442,9.176,1
601,35.392,-97.496,276.1,22.9,6.068,366,-0.502,2.21,9.276,1
602,35.392,-97.497,275.4,23.43,7.585,365,-0.523,1.713,9.27,1
603,35.392,-97.497,274.7,24.08,6.068,365,-0.13,1.728,9.454,1
604,35.392,-97.497,273,24.41,6.068,360,0.052,1.346,9.407,1
605,35.392,-97.497,272.7,24.31,6.068,361,0.07,1.268,9.611,1
606,35.392,-97.498,271.5,24.42,6.068,361,-0.036,1.266,9.631,1
607,35.392,-97.498,270.5,24.62,4.551,361,-0.43,1.29,9.77,1
608,35.392,-97.498,270,24.38,4.551,358,-0.319,1.308,9.818,1
609,35.392,-97.499,270,24.38,7.585,358,-0.324,1.379,9.764,1
610,35.392,-97.499,269.5,24.14,6.068,357,-0.117,1.574,9.625,1
611,35.392,-97.499,269.8,24.17,6.068,358,-0.229,1.739,9.474,1
