time,lat,lng,bearing,spd,acc,alt,accx,accy,accz,stable,
0,35.262,-97.474,323.6,10.55,3,333,-0.057,4.562,9.216,0
1,35.262,-97.474,323.5,11.81,3,333,-0.001,4.42,9.1,0
2,35.262,-97.474,323.5,13,3,333,-0.11,4.513,8.975,0
3,35.262,-97.474,323.7,14.16,3,333,-0.056,3.918,9.039,0
4,35.262,-97.475,323.9,14.88,3,333,-0.057,3.578,9.291,0
5,35.262,-97.475,324.1,15.14,3,333,-0.057,3.585,9.602,0
6,35.263,-97.475,324.1,15.51,3,332,-0.246,3.587,9.451,0
7,35.263,-97.475,323.9,15.84,3,332,-0.321,3.416,9.484,0
8,35.263,-97.475,323.5,16.14,3,332,-0.321,3.627,9.202,0
9,35.263,-97.475,323.2,16.53,3,332,-0.232,3.829,9.337,0
10,35.263,-97.475,323.1,17.05,3,331,-0.118,3.742,9.329,0
11,35.263,-97.475,323.1,17.53,3,331,-0.102,3.627,9.361,0
12,35.263,-97.475,323.3,17.82,3,331,-0.012,3.55,9.356,0
13,35.263,-97.476,323.7,18.17,3,330,-0.172,3.611,9.361,0
14,35.264,-97.476,323.6,18.55,3,330,-0.088,3.577,9.085,0
15,35.264,-97.476,323.7,18.94,3,329,0.034,3.709,9.473,0
16,35.264,-97.476,323.9,19.26,3,329,0.135,3.522,9.158,0
17,35.264,-97.476,324.2,19.59,3,329,0.053,3.641,9.491,0
18,35.264,-97.476,324.5,19.9,3,328,0.123,3.667,9.352,0
19,35.264,-97.476,325,20.21,3,328,0.151,3.674,9.406,0
20,35.264,-97.476,325.6,20.54,3,328,0.148,3.592,9.301,0
21,35.265,-97.477,326.2,20.83,3,326,0.176,3.554,9.175,0
22,35.265,-97.477,326.7,21.05,3,326,0.2,3.47,9.321,0
23,35.265,-97.477,327.5,21.3,3,326,0.104,3.452,9.416,0
24,35.265,-97.477,327.8,21.44,3,326,0.128,3.66,9.41,0
25,35.265,-97.477,328.4,21.59,3,326,0.187,3.585,9.148,0
26,35.265,-97.477,329,21.71,3,326,0.291,3.504,9.24,0
27,35.266,-97.477,329.7,21.85,3,326,0.287,3.486,9.305,0
28,35.266,-97.477,330.5,21.98,3,327,0.096,3.662,9.221,0
29,35.266,-97.478,331.3,22.07,3,326,0.092,3.756,9.099,0
30,35.266,-97.478,331.8,22.29,3,326,0.193,3.63,9.364,0
31,35.266,-97.478,332.2,22.551,3,326,0.123,3.75,9.389,0
33,35.266,-97.478,332.7,22.84,3,326,0.064,3.795,9.273,0
34,35.267,-97.478,333.3,23.13,3,326,0.388,3.737,9.376,0
35,35.267,-97.478,333.9,23.4,3,325,0.302,3.687,9.046,0
36,35.267,-97.478,335,23.63,3,326,0.084,3.242,9.319,0
37,35.267,-97.478,335.8,23.631,3,326,0.155,3.311,9.297,0
38,35.267,-97.478,336.5,23.47,3,326,0.072,3.417,9.379,0
39,35.268,-97.479,336.7,23.33,3,326,0.227,3.187,9.198,0
40,35.268,-97.479,337.1,23.28,3,327,0.238,3.357,9.174,0
41,35.268,-97.479,337.8,23.1,3,328,0.16,3.406,9.174,0
42,35.268,-97.479,337.9,23.09,3,329,0.169,3.303,9.419,0
43,35.268,-97.479,338.9,23.03,3,329,0.106,3.082,9.33,0
44,35.269,-97.479,339.6,23,3,329,0.226,3.363,9.271,0
45,35.269,-97.479,340.1,22.75,3,329,0.314,3.344,9.194,0
46,35.269,-97.479,341.3,22.66,3,331,0.25,3.251,9.318,0
47,35.269,-97.479,342.1,22.68,3,330,0.086,3.08,9.17,0
48,35.269,-97.479,342.6,22.58,3,330,-0.025,3.3,9.141,0
49,35.27,-97.479,343,22.41,3,329,-0.135,3.059,9.457,0
50,35.27,-97.479,343,22.36,3,329,-0.132,2.974,9.256,0
51,35.27,-97.48,343,22.171,3,328,-0.109,3.041,9.464,0
52,35.27,-97.48,343.1,21.961,3,328,-0.236,3.144,9.438,0
53,35.27,-97.48,343.1,21.781,3,328,-0.225,3.089,9.342,0
54,35.27,-97.48,343.3,21.55,3,328,-0.184,3.043,9.36,0
55,35.271,-97.48,343.3,21.35,3,328,-0.223,3.392,9.38,0
56,35.271,-97.48,343.3,21.54,3,325,-0.307,3.531,9.31,0
57,35.271,-97.48,343.2,21.86,3,326,-0.182,3.303,9.255,0
58,35.271,-97.48,343.2,21.78,3,327,-0.198,3.248,9.633,0
59,35.272,-97.48,343.2,21.86,3,326,-0.154,3.283,9.381,0
60,35.272,-97.48,343.2,22.091,3,326,-0.224,3.396,9.439,0
61,35.272,-97.48,343.2,22.25,3,326,-0.281,3.357,9.313,0
62,35.272,-97.48,343.2,22.25,3,326,-0.297,3.307,9.296,0
63,35.272,-97.48,343.2,22.23,3,326,-0.208,3.176,9.381,0
64,35.273,-97.481,343.2,22.22,3,325,-0.202,3.115,9.552,0
65,35.273,-97.481,343.1,22.12,3,325,-0.163,2.94,9.42,0
66,35.273,-97.481,343.1,21.9,3,325,-0.195,3.107,9.367,0
67,35.273,-97.481,343.3,21.67,3,325,-0.232,3.111,9.389,0
68,35.273,-97.481,343.3,21.35,3,324,-0.121,2.996,9.676,0
69,35.274,-97.481,343.4,21.12,3,324,-0.226,2.522,9.549,0
70,35.274,-97.481,343.4,20.31,3,324,-0.181,2.308,9.665,0
71,35.274,-97.481,343.4,19.24,3,322,-0.257,2.338,9.643,0
72,35.274,-97.481,343.4,18.02,3,322,-0.265,2.244,9.752,0
73,35.274,-97.481,343.5,16.58,3,323,-0.201,1.337,9.868,0
74,35.274,-97.481,343.5,14.54,3,323,-0.301,1.246,9.894,0
75,35.274,-97.481,343.1,13.28,3,324,-0.374,1.412,9.831,0
76,35.274,-97.481,342.6,10.17,3,324,-0.31,1.349,9.946,0
77,35.275,-97.481,342.2,8.0102,3,325,-0.22,1.647,9.924,0
78,35.275,-97.481,342,6.1301,3,325,0.283,1.801,9.003,0
79,35.275,-97.481,342.9,4.7005,3,324,-0.066,2.486,9.386,0
80,35.275,-97.481,342.9,3.84,3,324,-0.189,2.714,9.509,0
81,35.275,-97.481,343.2,3.0604,3,324,-0.226,2.986,9.415,0
82,35.275,-97.481,343.4,2.431,3,324,-0.15,3.312,9.466,0
83,35.275,-97.481,343.2,2.2204,3,324,-0.148,3.462,9.329,0
84,35.275,-97.481,343.7,2.04,3,324,-0.161,3.108,9.369,0
85,35.275,-97.481,343.7,2.04,3,324,-0.172,2.642,9.53,0
86,35.275,-97.481,344.1,0.64,3,325,-0.1,3.092,9.424,0
87,35.275,-97.481,344.1,0.64,3,325,-0.079,3.48,9.348,0
88,35.275,-97.481,344.1,0.64,3,325,-0.085,3.543,9.324,0
89,35.275,-97.481,344.1,0.64,3,325,-0.086,3.569,9.335,0
90,35.275,-97.481,344.1,0.64,3,325,-0.103,3.57,9.383,0
91,35.275,-97.481,344.1,0.64,3,325,-0.113,3.56,9.288,0
92,35.275,-97.481,344.1,0.64,3,325,-0.078,3.554,9.3,0
93,35.275,-97.481,344.1,0.64,3,325,-0.077,3.562,9.308,0
94,35.275,-97.481,344.1,0.64,3,325,-0.078,3.551,9.313,0
95,35.275,-97.481,344.1,0.64,3,325,-0.094,3.544,9.333,0
97,35.275,-97.481,0,0,3,323,-0.08,3.555,9.302,0
98,35.275,-97.481,0,0,3,323,-0.078,3.549,9.301,0
99,35.275,-97.481,0,0,3,323,-0.088,3.546,9.322,0
100,35.275,-97.481,0,0,3,323,-0.073,3.556,9.332,0
101,35.275,-97.481,0,0,3,323,-0.094,3.547,9.345,0
102,35.275,-97.481,0,0,3,323,-0.095,3.574,9.314,0
103,35.275,-97.481,0,0,3,323,-0.085,3.552,9.329,0
104,35.275,-97.481,0,0,3,323,-0.097,3.552,9.334,0
105,35.275,-97.481,0,0,3,323,-0.09,3.555,9.326,0
106,35.275,-97.481,0,0,3,323,-0.087,3.54,9.334,0
107,35.275,-97.481,0,0,3,323,-0.074,3.548,9.325,0
108,35.275,-97.481,0,0,3,323,-0.083,3.544,9.35,0
109,35.275,-97.481,0,0,3,323,-0.08,3.552,9.332,1
110,35.275,-97.481,0,0,3,323,-0.07,3.658,9.274,1
111,35.275,-97.481,0,0,3,323,-0.026,4.214,9.151,0
112,35.275,-97.481,0,0,3,323,-0.085,3.813,9.249,0
113,35.275,-97.481,343.5,1.03,3,323,-0.058,4.972,8.831,0
114,35.275,-97.481,343.5,1.36,3,323,-0.017,5.023,8.927,0
115,35.275,-97.481,348.5,2.2911,3,323,0.009,5.123,8.951,0
116,35.275,-97.481,349.2,3.652,3,323,-0.085,5.391,8.902,0
117,35.275,-97.481,343.1,5.7828,3,323,-0.122,5.787,8.946,0
118,35.275,-97.481,344.2,8.6513,3,322,-0.437,5.56,8.936,0
119,35.275,-97.481,342.4,11.521,3,321,-0.243,5.418,8.88,0
120,35.275,-97.482,344.1,13.171,3,320,-0.371,5.302,8.756,0
121,35.275,-97.482,342.8,16.172,3,321,-0.093,4.945,8.844,0
122,35.276,-97.482,342.8,17.272,3,320,-0.247,4.264,8.772,0
123,35.276,-97.482,342.8,17.862,3,320,-0.144,3.92,9.392,0
124,35.276,-97.482,343,18.401,3,320,-0.114,4.085,9.314,0
125,35.276,-97.482,342.7,18.992,3,320,-0.173,4.336,9.363,0
126,35.276,-97.482,342.7,19.742,3,321,0.14,4.406,9.248,0
127,35.276,-97.482,343.2,20.472,3,322,0.225,4.172,8.973,0
128,35.277,-97.482,343.5,21.141,3,323,-0.134,4.545,9.742,0
129,35.277,-97.482,343.4,21.841,3,324,-0.082,4.195,9.133,0
130,35.277,-97.482,343.1,22.511,3,324,-0.175,4.127,9.185,0
131,35.277,-97.482,342.8,23.162,3,325,-0.094,4.269,9.213,0
132,35.277,-97.482,342.7,23.701,3,326,-0.076,3.456,9.285,0
133,35.278,-97.482,342.7,23.661,3,327,-0.219,3.114,9.068,0
134,35.278,-97.482,342.7,23.25,3,327,-0.193,2.441,9.444,0
135,35.278,-97.483,342.4,22.122,3,328,-0.193,3.027,9.636,0
136,35.278,-97.483,342.7,21.89,3,329,-0.277,3.225,9.341,0
137,35.278,-97.483,342.6,21.61,3,329,-0.148,3.367,9.014,0
138,35.279,-97.483,342.6,21.35,3,329,-0.051,3.139,9.456,0
139,35.279,-97.483,342.6,21.15,3,330,-0.022,3.483,9.227,0
140,35.279,-97.483,342.7,21.09,3,330,0.082,3.588,9.167,0
141,35.279,-97.483,342.9,21.31,3,330,0.208,3.726,9.678,0
142,35.279,-97.483,343.1,21.631,3,330,0.032,3.576,9.241,0
143,35.279,-97.483,343.2,21.87,3,330,0.052,3.806,9.449,0
144,35.28,-97.483,343.3,22.16,3,330,-0.034,3.573,9.401,0
145,35.28,-97.483,343.5,22.35,3,330,-0.035,3.266,9.467,0
146,35.28,-97.483,343.8,22.13,3,330,-0.092,3.394,9.385,0
147,35.28,-97.483,343.9,22.05,3,330,-0.244,3.662,9.59,0
148,35.28,-97.483,343.8,22.13,3,330,-0.144,3.264,9.168,0
149,35.281,-97.483,343.7,21.94,3,329,-0.09,3.401,9.385,0
150,35.281,-97.484,343.6,21.94,3,329,0.071,3.094,9.292,0
151,35.281,-97.484,343.8,21.81,3,329,-0.18,3.371,9.37,0
152,35.281,-97.484,343.9,21.79,3,329,-0.147,3.106,9.384,0
153,35.281,-97.484,344.1,21.46,3,329,-0.258,3.273,9.217,0
154,35.282,-97.484,344,21.16,3,329,-0.132,3.41,9.429,0
155,35.282,-97.484,343.9,21.16,3,329,-0.05,3.395,9.22,0
156,35.282,-97.484,343.9,21.29,3,329,-0.085,3.621,9.168,0
158,35.282,-97.484,343.8,21.43,3,330,-0.159,3.883,8.827,0
159,35.282,-97.484,343.7,21.83,3,330,-0.029,3.798,9.115,0
160,35.282,-97.484,343.6,22.5,3,330,-0.021,4.15,8.888,0
161,35.283,-97.484,343.6,23.16,3,331,-0.014,4.487,9.17,0
162,35.283,-97.484,343.6,24.17,3,331,-0.105,4.509,8.97,0
163,35.283,-97.484,343.4,25.431,3,331,-0.4,4.892,9.138,0
164,35.283,-97.484,342.7,26.89,3,331,-0.473,4.507,9.06,0
165,35.284,-97.485,342,28.38,3,331,-0.176,4.807,8.956,0
166,35.284,-97.485,341.4,29.67,3,331,-0.013,4.471,9.008,0
167,35.284,-97.485,341.1,30.76,3,331,0.414,4.512,9.068,0
168,35.284,-97.485,341.7,31.86,3,332,0.408,4.51,9.216,0
169,35.285,-97.485,342.6,32.97,3,332,-0.149,4.494,9.294,0
170,35.285,-97.485,343.1,34.03,3,332,-0.739,4.417,9.011,0
171,35.285,-97.485,342.5,35.11,3,332,-0.88,4.514,8.938,0
172,35.286,-97.485,341.2,36.11,3,332,0.639,4.42,9.114,0
173,35.286,-97.485,341,37.02,3,332,0.673,3.459,9.208,0
174,35.286,-97.486,342.3,38,3,331,0.386,2.973,9.383,0
175,35.287,-97.486,343,37.74,3,332,0.023,2.889,9.63,0
176,35.287,-97.486,343.2,37.19,3,332,0.012,2.937,9.502,0
177,35.287,-97.486,343.2,36.65,3,332,0.03,2.894,9.482,0
178,35.288,-97.486,343.1,36.17,3,332,0.187,2.958,9.566,0
179,35.288,-97.486,343.5,35.19,3,332,-0.03,2.951,9.401,0
180,35.288,-97.486,343.5,34.71,3,332,-0.111,2.919,9.376,0
181,35.289,-97.487,343.3,34.24,3,333,-0.097,3.028,9.445,0
182,35.289,-97.487,343.2,33.78,3,334,-0.091,3.036,9.369,0
183,35.289,-97.487,343.1,33.31,3,334,0.135,2.922,9.355,0
184,35.29,-97.487,343.2,32.82,3,334,-0.064,2.975,9.398,0
185,35.29,-97.487,343.3,32.38,3,335,-0.07,3.112,9.576,0
186,35.29,-97.487,343.3,31.93,3,335,-0.003,2.979,9.316,0
187,35.29,-97.487,343.1,31.49,3,335,-0.036,2.995,9.484,0
188,35.291,-97.487,343.3,31.09,3,335,-0.001,3.006,9.487,0
189,35.291,-97.487,343.3,30.77,3,336,-0.104,3.385,9.688,0
190,35.291,-97.487,342.9,30.673,3,336,0.124,3.177,9.203,0
191,35.291,-97.488,343.3,30.82,3,336,0.004,3.459,9.129,0
192,35.292,-97.488,343.3,30.83,3,336,0.09,3.444,9.161,0
193,35.292,-97.488,343.4,31.04,3,335,0.088,3.529,9.062,0
194,35.292,-97.488,343.3,31.23,3,335,-0.094,3.413,9.326,0
195,35.293,-97.488,343.2,31.4,3,335,-0.015,3.579,9.495,0
196,35.293,-97.488,343.2,31.77,3,335,-0.078,3.692,9.077,0
197,35.293,-97.488,343.1,32.23,3,335,-0.053,3.663,9.16,0
198,35.293,-97.488,343.1,32.56,3,334,-0.023,3.593,9.257,0
199,35.294,-97.488,343,32.8,3,334,0.13,3.45,9.185,0
200,35.294,-97.488,343.1,33.01,3,333,0.321,3.395,9.311,0
201,35.294,-97.489,343.3,33.17,3,333,0.205,3.507,9.311,0
202,35.295,-97.489,343.4,33.261,3,332,-0.138,3.53,9.419,0
203,35.295,-97.489,343.3,33.401,3,332,0.002,3.415,9.312,0
204,35.295,-97.489,343.3,33.43,3,332,0.23,3.204,9.455,0
205,35.295,-97.489,343.6,33.461,3,331,0.128,3.39,9.353,0
206,35.296,-97.489,344.1,33.541,3,331,-0.016,3.383,9.598,0
207,35.296,-97.489,344.4,33.5,3,331,0.175,3.288,9.408,0
208,35.296,-97.489,344.9,33.45,3,331,0.561,3.207,9.557,0
209,35.297,-97.489,345.9,33.42,3,331,0.631,3.297,9.554,0
210,35.297,-97.489,347.2,33.34,3,331,0.484,3.355,9.698,0
211,35.297,-97.49,348.3,33.27,3,330,0.587,3.287,9.93,0
212,35.297,-97.49,349.7,33.161,3,331,0.644,3.345,9.368,0
213,35.298,-97.49,350.9,33.032,3,331,0.526,3.39,9.081,0
214,35.298,-97.49,352.3,32.883,3,332,0.428,3.497,9.117,0
215,35.298,-97.49,353.1,32.782,3,332,0.285,3.474,9.385,0
216,35.299,-97.49,353.9,32.732,3,332,0.618,3.509,9.115,0
217,35.299,-97.49,354.9,32.752,3,333,0.525,3.558,9.549,0
219,35.299,-97.49,356.3,32.732,3,333,0.355,3.607,9.283,0
220,35.299,-97.49,357.2,32.722,3,333,0.477,3.692,9.174,0
221,35.3,-97.49,358.3,32.772,3,333,0.381,3.609,9.166,0
222,35.3,-97.49,359.3,32.862,3,334,0.186,3.513,9.214,0
223,35.3,-97.49,359.9,32.872,3,334,0.073,3.548,8.948,0
224,35.301,-97.49,0.1,32.941,3,335,0.043,3.527,9.22,0
225,35.301,-97.49,0.1,33.001,3,335,-0.076,3.592,9.191,0
226,35.301,-97.49,0,33.09,3,335,-0.056,3.513,9.237,0
227,35.302,-97.49,0,33.14,3,335,0.041,3.452,9.33,0
228,35.302,-97.49,359.9,33.21,3,335,0.026,3.485,9.196,0
229,35.302,-97.49,359.9,33.3,3,335,0.04,3.496,9.137,0
230,35.302,-97.49,0,33.36,3,336,0.019,3.425,9.337,0
231,35.303,-97.49,0.1,33.39,3,336,0.014,3.455,9.194,0
232,35.303,-97.49,0.2,33.45,3,336,0.214,3.343,9.199,0
233,35.303,-97.49,0.5,33.49,3,336,0.046,3.304,9.266,0
234,35.304,-97.49,0.9,33.44,3,336,-0.273,3.207,9.276,0
235,35.304,-97.49,0.9,33.29,3,336,-0.379,3.131,9.503,0
236,35.304,-97.49,0.5,33.09,3,336,-0.296,3.042,9.427,0
237,35.305,-97.49,0.1,32.85,3,336,-0.157,2.962,9.45,0
238,35.305,-97.49,0.1,32.52,3,336,-0.209,3.017,9.435,0
239,35.305,-97.49,0,32.23,3,336,-0.36,3.05,9.366,0
240,35.306,-97.49,359.2,31.57,3,335,-0.596,3.108,9.388,0
241,35.306,-97.49,358.5,31.33,3,334,-0.245,3.085,9.433,0
242,35.306,-97.49,358.4,31.07,3,334,0.305,3.153,9.433,0
243,35.307,-97.49,359.3,30.94,3,334,0.33,3.211,9.186,0
244,35.307,-97.49,359.7,30.9,3,334,0.047,3.354,9.339,0
245,35.307,-97.49,359.7,30.89,3,334,0.119,3.3,9.279,0
246,35.307,-97.49,0.1,30.88,3,334,0.062,3.411,9.298,0
247,35.308,-97.49,0,30.9,3,334,-0.001,3.375,9.413,0
248,35.308,-97.49,359.9,30.92,3,333,0.021,3.397,9.41,0
249,35.308,-97.49,359.9,30.94,3,333,-0.033,3.387,9.349,0
250,35.309,-97.49,0.1,30.92,3,333,0.019,3.442,9.462,0
251,35.309,-97.49,0.1,30.91,3,333,-0.03,3.372,9.362,0
252,35.309,-97.49,0,30.89,3,333,0.017,3.338,9.465,0
253,35.309,-97.49,359.9,30.87,3,333,0.05,3.333,9.286,0
254,35.31,-97.49,359.9,30.85,3,334,0.049,3.351,9.271,0
255,35.31,-97.49,359.9,30.78,3,334,0.015,3.377,9.364,0
256,35.31,-97.49,359.8,30.73,3,334,-0.059,3.354,9.409,0
257,35.31,-97.49,359.8,30.7,3,334,0.113,3.451,9.169,0
258,35.311,-97.49,359.8,30.68,3,334,0.194,3.465,9.478,0
259,35.311,-97.49,0,30.67,3,334,0.041,3.409,9.385,0
260,35.311,-97.49,0.1,30.66,3,334,-0.005,3.388,9.192,0
261,35.312,-97.49,0.1,30.64,3,335,0.078,3.453,9.458,0
262,35.312,-97.49,0.1,30.641,3,335,-0.047,3.518,9.287,0
263,35.312,-97.49,0.1,30.621,3,335,0.019,3.492,9.229,0
264,35.312,-97.49,0,30.66,3,336,-0.098,3.518,9.501,0
265,35.313,-97.49,359.9,30.76,3,336,-0.07,3.645,9.237,0
266,35.313,-97.49,359.8,30.901,3,336,-0.021,3.761,9.174,0
267,35.313,-97.49,0,31.091,3,336,0.023,3.606,8.957,0
268,35.314,-97.49,0,31.32,3,337,-0.027,3.694,9.348,0
269,35.314,-97.49,359.9,31.511,3,337,-0.152,3.693,9.311,0
270,35.314,-97.49,359.8,31.691,3,337,0,3.571,9.302,0
271,35.314,-97.49,359.7,31.821,3,337,0.173,3.549,9.402,0
272,35.315,-97.49,359.7,31.871,3,338,0.041,3.531,9.336,0
273,35.315,-97.49,359.9,31.961,3,338,0.121,3.399,9.27,0
274,35.315,-97.49,0,31.971,3,338,0.087,3.121,9.353,0
276,35.316,-97.49,0.1,31.651,3,338,0.082,2.94,9.641,0
277,35.316,-97.49,0.3,31.201,3,338,-0.003,2.986,9.234,0
278,35.316,-97.49,0.3,30.751,3,339,0.126,3.036,9.327,0
279,35.316,-97.49,0.3,30.341,3,339,-0.085,3.495,8.98,0
280,35.317,-97.49,0.1,30.191,3,339,-0.001,3.517,9.014,0
281,35.317,-97.49,359.9,30.345,3,340,-0.008,3.697,9.253,0
282,35.317,-97.49,359.8,30.551,3,340,-0.02,3.896,9.235,0
283,35.317,-97.49,359.7,30.941,3,340,0.036,4.023,9.111,0
284,35.318,-97.49,359.7,31.461,3,341,0.142,3.854,9.236,0
285,35.318,-97.49,359.7,31.991,3,341,0.197,3.796,9.23,0
286,35.318,-97.49,359.9,32.371,3,341,0.057,3.674,9.196,0
287,35.319,-97.49,0,32.681,3,342,0.141,3.713,9.314,0
288,35.319,-97.49,0,32.921,3,342,0.083,3.507,9.183,0
289,35.319,-97.49,0.2,33.12,3,342,-0.104,3.643,9.235,0
290,35.32,-97.49,0.2,33.28,3,342,-0.057,3.47,9.21,0
291,35.32,-97.49,0,33.36,3,342,-0.013,3.503,9.417,0
292,35.32,-97.49,359.3,33.25,3,342,-0.044,3.49,9.388,0
293,35.32,-97.49,359.9,33.35,3,342,0.062,3.476,9.3,0
294,35.321,-97.49,359.9,33.65,3,342,0.031,3.324,9.299,0
295,35.321,-97.49,0,33.7,3,341,-0.076,3.314,9.255,0
296,35.321,-97.49,359.9,33.66,3,341,-0.052,3.399,9.347,0
297,35.322,-97.49,359.9,33.59,3,342,-0.136,3.391,9.462,0
298,35.322,-97.49,359.7,33.55,3,342,0.056,3.305,9.404,0
299,35.323,-97.49,359.9,33.5,3,342,-0.016,3.264,9.473,0
300,35.323,-97.49,359.9,33.49,3,342,-0.02,3.393,9.586,0
301,35.323,-97.49,0,33.47,3,342,0.036,3.395,9.384,0
302,35.323,-97.49,0.1,33.43,3,343,0.058,3.461,9.226,0
303,35.324,-97.49,0.2,33.37,3,343,-0.052,3.46,9.655,0
304,35.324,-97.49,0.1,33.34,3,343,-0.03,3.43,9.264,0
305,35.324,-97.49,0,33.28,3,344,-0.164,3.407,9.428,0
306,35.325,-97.49,359.9,33.26,3,344,0.016,3.515,9.202,0
307,35.325,-97.49,359.8,33.22,3,343,-0.058,3.421,9.173,0
308,35.325,-97.49,359.7,33.22,3,343,0.021,3.462,9.2,0
309,35.326,-97.49,359.8,33.22,3,344,0.06,3.522,9.251,0
310,35.326,-97.49,359.8,33.22,3,344,-0.055,3.421,9.314,0
311,35.326,-97.49,359.8,33.2,3,344,0.078,3.355,9.355,0
312,35.326,-97.49,359.8,33.19,3,344,0.146,3.351,9.465,0
313,35.327,-97.49,0,33.17,3,344,-0.122,3.508,9.48,0
314,35.327,-97.49,0.1,33.15,3,344,-0.023,3.34,9.342,0
315,35.327,-97.49,0.1,33.12,3,344,0.023,3.505,9.226,0
316,35.328,-97.49,0.1,33.04,3,344,-0.048,3.437,9.353,0
317,35.328,-97.49,0,33.08,3,344,-0.023,3.41,9.264,0
318,35.328,-97.49,0,33.07,3,345,-0.091,3.441,9.413,0
319,35.329,-97.49,0,33.1,3,345,0.053,3.374,9.442,0
320,35.329,-97.49,359.9,33.11,3,345,0.013,3.386,9.408,0
321,35.329,-97.49,359.9,33.1,3,346,0.023,3.51,9.327,0
322,35.329,-97.49,359.9,33.1,3,345,0.076,3.317,9.314,0
323,35.33,-97.49,0,33.09,3,345,0.028,3.067,9.599,0
324,35.33,-97.49,0,32.81,3,346,-0.12,2.994,9.688,0
325,35.33,-97.49,359.9,32.38,3,346,-0.068,3.056,9.561,0
326,35.331,-97.49,359.9,31.98,3,346,0.11,3.119,9.358,0
327,35.331,-97.49,0.1,31.6,3,346,0.011,3.036,9.343,0
328,35.331,-97.49,0.2,31.22,3,347,-0.143,2.994,9.334,0
329,35.331,-97.49,0,30.86,3,347,-0.058,3.055,9.454,0
330,35.332,-97.49,359.9,30.54,3,347,-0.011,3.116,9.478,0
331,35.332,-97.49,359.9,30.141,3,347,0.003,2.479,9.619,0
332,35.332,-97.49,359.9,29.47,3,347,-0.155,2.101,9.687,0
333,35.332,-97.49,359.2,28,3,348,0.118,2.654,9.418,0
334,35.333,-97.49,358.6,26.75,3,348,0.093,3.125,9.248,0
336,35.333,-97.49,358,26.4,3,348,0.025,3.596,9.235,0
337,35.333,-97.49,357,26.47,3,348,0.19,3.622,9.224,0
338,35.333,-97.49,355.9,26.78,3,348,0.131,3.668,9.43,0
339,35.334,-97.49,355,27.03,3,347,-0.1,3.761,9.191,0
340,35.334,-97.49,353.5,27.501,3,348,-0.257,3.89,9.571,0
341,35.334,-97.49,352.5,27.4,3,348,-0.248,3.885,9.305,0
342,35.334,-97.49,350.8,28.26,3,348,-0.242,3.497,9.439,0
343,35.335,-97.49,349.3,28.47,3,348,-0.165,3.231,9.387,0
344,35.335,-97.49,348,28.14,3,348,0.221,3.376,9.458,0
345,35.335,-97.49,347.1,27.91,3,349,-0.202,3.573,9.194,0
346,35.335,-97.49,346.4,27.86,3,349,-0.411,3.238,9.658,0
347,35.336,-97.49,344.7,27.89,3,349,-0.238,3.107,9.721,0
348,35.336,-97.491,343.3,27.45,3,349,-0.056,3.389,9.473,0
349,35.336,-97.491,342.2,27.231,3,350,0.109,3.424,9.472,0
350,35.336,-97.491,341.6,27.072,3,350,0.223,3.596,9.552,0
351,35.337,-97.491,341.4,27.033,3,351,0.254,3.864,9.321,0
352,35.337,-97.491,341.6,27.273,3,352,0.383,3.92,9.382,0
353,35.337,-97.491,342,27.454,3,352,0.028,3.923,9.076,0
354,35.337,-97.491,342.3,27.745,3,352,-0.133,3.821,8.926,0
355,35.338,-97.491,342.1,27.944,3,352,-0.244,3.975,9.326,0
356,35.338,-97.491,342,28.282,3,352,-0.128,3.954,8.966,0
357,35.338,-97.491,341.7,28.653,3,353,-0.28,3.914,9.301,0
358,35.338,-97.491,341.5,29.112,3,353,-0.016,4.137,9.287,0
359,35.339,-97.492,341.2,29.932,3,355,0.038,4.049,9.231,0
360,35.339,-97.492,341.3,30.46,3,355,0.216,3.934,9.044,0
361,35.339,-97.492,341.3,30.97,3,355,0.028,3.977,9.152,0
362,35.34,-97.492,341.3,31.53,3,354,0.142,3.963,9.224,0
363,35.34,-97.492,341.4,32.02,3,354,0.068,3.654,9.348,0
364,35.34,-97.492,341.5,31.97,3,353,-0.14,3.011,9.598,0
365,35.34,-97.492,341.3,31.52,3,354,-0.021,3.01,9.424,0
366,35.341,-97.492,341.4,31.06,3,353,0.056,2.976,9.248,0
367,35.341,-97.493,341.6,30.65,3,353,0.065,2.957,9.538,0
368,35.341,-97.493,341.7,30.21,3,354,-0.045,3.011,9.412,0
369,35.341,-97.493,341.7,29.81,3,353,-0.183,3.039,9.281,0
370,35.342,-97.493,341.5,29.4,3,354,-0.167,2.958,9.388,0
371,35.342,-97.493,341.4,29.01,3,354,-0.1,2.933,9.482,0
372,35.342,-97.493,341.3,28.75,3,354,0.055,3.387,9.39,0
373,35.342,-97.493,341.3,28.91,3,354,-0.012,3.716,9.069,0
374,35.343,-97.493,341.4,29.24,3,354,-0.004,3.254,9.245,0
375,35.343,-97.493,341.5,29.16,3,354,0.194,3.125,9.335,0
376,35.343,-97.493,341.9,28.97,3,354,0.02,3.402,9.292,0
377,35.343,-97.494,341.8,29.07,3,354,-0.122,3.416,9.537,0
378,35.344,-97.494,342,29.18,3,353,0.276,2.846,8.878,0
379,35.344,-97.494,342.8,29.172,3,352,0.404,2.937,9.352,0
380,35.344,-97.494,343.9,28.951,3,352,0.356,3.1,9.478,0
381,35.344,-97.494,345,29.002,3,351,0.168,3.292,9.473,0
382,35.345,-97.494,345.4,29.071,3,351,0.367,3.3,9.512,0
383,35.345,-97.494,346.4,29.201,3,350,0.362,3.152,9.627,0
384,35.345,-97.494,347.4,29.131,3,350,0.673,3.216,9.588,0
385,35.345,-97.494,348.9,28.94,3,350,0.259,3.212,9.468,0
386,35.346,-97.494,349.9,28.75,3,350,0.448,3.233,9.582,0
387,35.346,-97.494,351,28.53,3,351,0.324,3.212,9.431,0
388,35.346,-97.494,351.9,28.311,3,351,0.305,3.174,9.344,0
389,35.346,-97.494,352.6,28.081,3,351,0.449,3.159,9.39,0
390,35.347,-97.494,353.6,27.811,3,351,0.179,3.275,9.473,0
391,35.347,-97.494,354.2,27.66,3,352,0.443,3.416,9.254,0
392,35.347,-97.495,355.2,27.75,3,352,0.347,3.674,9.476,0
393,35.347,-97.495,356.2,27.891,3,352,0.4,3.633,9.221,0
394,35.348,-97.495,357.2,28.101,3,352,0.418,3.673,9.18,0
395,35.348,-97.495,358.1,28.361,3,353,0.238,3.792,9.26,0
396,35.348,-97.495,358.6,28.671,3,353,0.217,3.781,9.314,0
397,35.349,-97.495,359,29.011,3,353,0.18,3.894,9.491,0
398,35.349,-97.495,359.1,29.485,3,354,-0.184,3.419,9.171,0
399,35.349,-97.495,359.6,29.701,3,354,0.024,3.601,9.496,0
401,35.349,-97.495,359.6,29.881,3,355,-0.121,3.484,9.457,0
402,35.35,-97.495,359.6,29.891,3,355,0.008,3.086,9.856,0
403,35.35,-97.495,359.8,29.601,3,356,-0.266,3.394,9.379,0
404,35.35,-97.495,359.7,29.521,3,356,-0.157,3.083,9.323,0
405,35.35,-97.495,359.6,29.361,3,356,-0.309,3.075,9.495,0
406,35.351,-97.495,359.7,28.941,3,356,-0.177,3.006,9.643,0
407,35.351,-97.495,359.7,28.601,3,356,-0.304,3.389,9.412,0
408,35.351,-97.495,359.6,28.311,3,357,-0.095,3.679,8.864,0
409,35.351,-97.495,359.6,28.441,3,357,-0.374,3.578,9.563,0
410,35.352,-97.495,359.6,28.601,3,357,-0.112,3.397,8.812,0
411,35.352,-97.495,359.5,28.421,3,358,0.012,3.53,9.224,0
412,35.352,-97.495,359.6,28.271,3,358,-0.07,3.449,9.762,0
413,35.352,-97.495,359.7,28.171,3,358,-0.155,3.37,9.47,0
414,35.353,-97.495,359.8,28.041,3,358,-0.305,3.169,9.533,0
415,35.353,-97.495,359.7,27.871,3,359,-0.288,3.271,9.306,0
416,35.353,-97.495,359.6,27.641,3,359,-0.074,3.547,9.244,0
417,35.353,-97.495,359.5,27.571,3,359,-0.348,3.588,8.996,0
418,35.354,-97.495,359.6,27.571,3,359,-0.307,3.683,9.398,0
419,35.354,-97.495,359.7,27.55,3,359,-0.169,3.572,9.156,0
420,35.354,-97.495,359.5,27.731,3,360,-0.121,3.615,9.408,0
421,35.354,-97.495,359.6,27.81,3,360,-0.015,3.565,9.226,0
422,35.355,-97.495,359.6,27.981,3,360,-0.101,3.758,9.758,0
423,35.355,-97.495,359.6,28.18,3,360,0.104,3.781,9.125,0
424,35.355,-97.495,359.6,28.371,3,361,0.033,3.618,9.279,0
425,35.356,-97.495,359.7,28.721,3,361,0.016,3.522,9.229,0
426,35.356,-97.495,359.7,28.821,3,361,-0.173,3.519,9.224,0
427,35.356,-97.495,359.5,28.81,3,361,-0.09,3.345,9.538,0
428,35.356,-97.495,359.5,28.811,3,361,0.03,3.476,9.643,0
429,35.357,-97.495,359.7,28.771,3,361,0.151,3.31,9.645,0
430,35.357,-97.495,359.5,28.581,3,361,-0.131,2.98,9.656,0
431,35.357,-97.495,359.4,28.25,3,362,0.09,3.288,9.346,0
432,35.358,-97.495,359.4,27.97,3,362,-0.022,3.334,9.404,0
433,35.358,-97.495,359.3,27.96,3,362,0.027,3.527,8.947,0
434,35.358,-97.495,359.4,27.991,3,362,0.007,3.438,9.319,0
435,35.358,-97.495,359.5,27.94,3,362,-0.117,3.432,9.231,0
436,35.359,-97.495,359.4,27.83,3,362,-0.127,3.566,9.157,0
437,35.359,-97.495,359.2,27.771,3,363,-0.086,3.374,9.442,0
438,35.359,-97.495,359,27.751,3,363,0.022,3.445,9.052,0
439,35.359,-97.495,359,27.731,3,363,0.182,3.379,9.392,0
440,35.36,-97.495,359.2,27.78,3,363,0.13,3.603,9.121,0
441,35.36,-97.495,359.3,27.911,3,363,0.102,3.637,9.055,0
442,35.36,-97.495,359.5,27.96,3,364,-0.008,3.929,9.276,0
443,35.36,-97.495,359.3,28.471,3,364,0.108,4.097,9.098,0
444,35.361,-97.495,359.2,28.981,3,365,0.034,4.117,9.058,0
445,35.361,-97.495,359.2,29.402,3,365,0.086,4.207,9.75,0
446,35.361,-97.495,359.4,30.022,3,366,0.246,4.116,9.565,0
447,35.361,-97.495,359.5,30.672,3,366,-0.056,3.908,9.248,0
448,35.362,-97.495,359.5,31.182,3,367,-0.125,3.958,9.004,0
449,35.362,-97.495,359.3,31.226,3,367,0.091,3.766,8.636,0
450,35.362,-97.495,359.2,31.464,3,368,0.104,3.877,8.541,0
451,35.362,-97.495,359.3,31.742,3,369,0.063,3.786,9.093,0
452,35.363,-97.495,359.4,32.111,3,370,-0.163,3.704,8.96,0
453,35.363,-97.495,359.5,32.42,3,370,0.039,3.346,8.873,0
454,35.363,-97.495,359.4,32.41,3,370,0.203,2.989,8.728,0
455,35.364,-97.495,359.4,32.16,3,370,-0.1,3.119,9.067,0
456,35.364,-97.495,359.6,31.931,3,370,0.23,2.774,7.918,0
457,35.364,-97.495,0.1,31.792,3,369,0.047,2.971,8.662,0
458,35.365,-97.495,0.6,31.703,3,368,-0.035,3.085,9.376,0
459,35.365,-97.495,0.6,31.602,3,368,-0.143,3.166,9.887,0
460,35.365,-97.495,0.4,31.501,3,367,-0.683,3.322,10.449,0
461,35.365,-97.495,0,31.25,3,367,-0.054,3.138,9.739,0
463,35.366,-97.495,359.7,30.98,3,367,-0.193,3.138,8.672,0
464,35.366,-97.495,359.4,30.69,3,367,0.124,3.517,9.374,0
465,35.366,-97.495,359.3,30.471,3,367,0.077,3.391,9.589,0
466,35.366,-97.495,359.5,30.251,3,368,-0.085,3.434,9.087,0
467,35.367,-97.495,359.5,30.132,3,368,-0.103,3.563,9.42,0
468,35.367,-97.495,359.4,30.032,3,369,0.179,3.525,9.16,0
469,35.367,-97.495,359.3,30.002,3,369,0.085,3.586,9.034,0
470,35.368,-97.495,359.5,30.072,3,370,-0.121,3.803,9.346,0
471,35.368,-97.495,359.5,30.112,3,370,-0.257,3.814,9.239,0
472,35.368,-97.495,359.3,30.222,3,371,-0.088,3.73,9.662,0
473,35.368,-97.495,359.2,30.322,3,371,-0.132,3.49,9.128,0
474,35.369,-97.495,359.1,30.352,3,372,-0.145,3.568,9.291,0
475,35.369,-97.495,359.1,30.342,3,372,0.002,3.247,9.263,0
476,35.369,-97.495,359.3,30.312,3,373,0.101,3.613,9.271,0
477,35.369,-97.495,359.5,30.261,3,373,-0.38,3.524,8.967,0
478,35.37,-97.495,359.5,30.241,3,373,-0.376,3.274,9.348,0
479,35.37,-97.495,359.3,30.26,3,374,-0.417,3.375,9.316,0
480,35.37,-97.495,359.2,30.29,3,374,-0.116,3,9.362,0
481,35.371,-97.495,359.2,30.21,3,374,-0.474,3.376,9.535,0
482,35.371,-97.495,359.2,29.96,3,374,-0.366,3.516,9.334,0
483,35.371,-97.495,359.2,29.93,3,375,-0.224,3.46,9.372,0
484,35.372,-97.495,359.4,29.92,3,375,-0.281,3.383,9.32,0
485,35.372,-97.495,359.2,29.85,3,375,-0.176,3.511,9.019,0
486,35.372,-97.495,359.2,29.83,3,375,-0.323,3.529,8.958,0
487,35.372,-97.495,359.2,29.8,3,375,-0.231,3.464,9.005,0
488,35.373,-97.495,359.3,29.75,3,375,-0.101,3.522,9.356,0
489,35.373,-97.495,359.3,29.71,3,375,-0.156,3.478,9.514,0
490,35.373,-97.495,359.6,29.54,3,376,-0.144,3.563,9.513,0
491,35.373,-97.495,359.4,29.7,3,376,0.043,3.551,9.482,0
492,35.374,-97.495,359.6,29.71,3,376,0.087,3.669,9.106,0
493,35.374,-97.495,359.7,29.71,3,376,-0.085,3.497,8.876,0
494,35.374,-97.495,359.7,29.68,3,376,-0.148,3.29,9.298,0
495,35.375,-97.495,359.8,29.332,3,377,-0.24,3.116,9.248,0
496,35.375,-97.495,359.5,29.3,3,377,-0.143,3.667,9.447,0
497,35.375,-97.495,359.4,29.331,3,378,-0.074,3.536,9.632,0
498,35.375,-97.495,359.5,29.221,3,378,-0.078,3.47,9.374,0
499,35.376,-97.495,359.6,29.153,3,378,-0.168,3.341,9.648,0
500,35.376,-97.495,359.6,28.863,3,379,-0.056,3.45,9.039,0
501,35.376,-97.495,359.7,28.793,3,380,0.095,3.964,9.219,0
502,35.376,-97.495,359.9,29.012,3,380,-0.011,3.519,9.535,0
503,35.377,-97.495,359.9,28.962,3,381,-0.073,3.056,9.675,0
504,35.377,-97.495,0.1,28.691,3,381,0.064,3.182,9.465,0
505,35.377,-97.495,359.9,28.241,3,382,0.192,3.244,9.159,0
506,35.377,-97.495,359.9,27.83,3,382,0.013,3.055,9.609,0
507,35.378,-97.495,0,27.46,3,381,-0.097,2.861,8.656,0
508,35.378,-97.495,0,27.13,3,381,-0.365,2.916,9.2,0
509,35.378,-97.495,359.9,26.84,3,380,-0.076,3.043,9.176,0
510,35.378,-97.495,359.7,26.71,3,380,-0.2,3.457,8.983,0
511,35.379,-97.495,359.7,26.841,3,380,-0.217,3.844,9.425,0
512,35.379,-97.495,359.7,27.351,3,379,-0.123,3.901,8.779,0
513,35.379,-97.495,359.7,28.062,3,379,-0.159,3.892,9.331,0
514,35.379,-97.495,359.6,28.651,3,378,-0.006,3.806,9.485,0
515,35.38,-97.495,359.6,29.061,3,378,0.119,3.559,9.227,0
516,35.38,-97.495,359.7,29.301,3,378,-0.098,3.715,9.539,0
517,35.38,-97.495,359.8,29.52,3,377,0.153,3.471,9.137,0
518,35.38,-97.495,0.1,29.77,3,377,0.175,3.633,9.134,0
519,35.381,-97.495,0.6,29.96,3,377,0.107,3.494,8.971,0
520,35.381,-97.495,1.3,30.21,3,377,-0.084,3.598,9.229,0
521,35.381,-97.495,1.5,30.4,3,377,-0.164,3.592,9.179,0
522,35.382,-97.495,0.9,30.67,3,376,-0.272,3.138,9.38,0
523,35.382,-97.495,0.7,30.6,3,376,-0.255,3.094,9.19,0
525,35.382,-97.495,0.1,30.572,3,375,-0.122,3.072,9.296,0
526,35.382,-97.495,359.8,30.576,3,374,0.001,3.181,9.175,0
527,35.383,-97.495,359.5,30.618,3,372,0.227,3.038,9.38,0
528,35.383,-97.495,359.8,30.599,3,371,-0.085,2.999,9.839,0
529,35.383,-97.495,0,30.678,3,370,-0.087,3.171,9.502,0
530,35.384,-97.495,0,30.769,3,369,-0.154,2.983,9.799,0
531,35.384,-97.495,359.9,30.848,3,368,0.125,3.169,9.616,0
532,35.384,-97.495,359.7,30.888,3,366,0.089,3.351,9.668,0
533,35.384,-97.495,359.6,30.854,3,366,0.266,3.148,9.544,0
534,35.385,-97.495,359.2,31.141,3,365,0.096,3.138,9.524,0
535,35.385,-97.495,359.9,30.82,3,365,-0.012,3.261,9.82,0
536,35.385,-97.495,0.1,30.27,3,365,0.161,3.122,9.637,0
537,35.385,-97.495,0.1,29.841,3,365,0.411,3.029,9.216,0
538,35.386,-97.495,0.5,29.601,4,366,0.574,3.158,9.36,0
539,35.386,-97.495,1.6,29.231,4,366,0.482,2.903,9.702,0
540,35.386,-97.495,2.8,28.75,4,366,0.277,3.01,9.142,0
541,35.386,-97.495,3.8,28.39,4,366,-0.086,3.068,9.259,0
542,35.387,-97.495,4.4,28.06,4,366,0.236,3,9.258,0
543,35.387,-97.495,4.1,27.74,4,366,-0.064,2.983,8.811,0
544,35.387,-97.495,3.7,27.71,4,365,-0.009,3.146,9.501,0
545,35.387,-97.495,3,27.36,4,365,-0.188,2.93,9.077,0
546,35.388,-97.495,0.6,26.67,3,365,-0.125,3.452,9.484,0
547,35.388,-97.495,0.2,26.97,3,365,-0.218,3.31,9.704,0
548,35.388,-97.495,0.2,27.23,3,365,0.166,3.755,9.562,0
549,35.389,-97.495,0,27.65,3,364,0.081,3.703,9.663,0
550,35.389,-97.495,359.6,28.14,3,365,-0.025,3.571,9.394,0
551,35.389,-97.495,359.1,28.25,3,365,-0.116,3.25,9.394,0
552,35.389,-97.495,358.7,27.91,3,365,0.339,3.153,9.571,0
553,35.39,-97.495,359,27.1,3,365,0.134,3.063,9.316,0
554,35.39,-97.495,358.1,27.25,3,365,-0.058,2.614,9.241,0
555,35.39,-97.495,357.6,26.54,3,364,0.215,1.889,9.567,0
556,35.39,-97.495,357.5,25.15,3,364,0.174,1.302,9.678,0
557,35.391,-97.495,357.6,23.15,3,363,0.267,1.072,9.791,0
558,35.391,-97.495,357.6,21.17,3,364,0.173,2.278,9.3,0
559,35.391,-97.495,357.8,20.43,3,364,-0.118,3.972,9.695,0
560,35.391,-97.495,357.9,21.12,3,363,0.322,5.227,8.65,0
561,35.391,-97.495,359.2,22.67,3,363,0.89,3.517,9.08,0
562,35.392,-97.495,1.2,22.68,3,362,0.47,3.069,9.519,0
563,35.392,-97.495,3.2,22.64,3,363,-0.029,1.771,9.826,0
564,35.392,-97.495,2.2,21.611,3,363,0.012,1.621,9.176,0
565,35.392,-97.495,2.2,20.22,4,363,1.789,1.691,9.988,0
566,35.392,-97.495,9.3,17.29,3,363,3.651,1.346,9.003,0
567,35.392,-97.495,21.8,16.402,3,362,4.119,2.37,9.565,0
568,35.393,-97.495,40.7,15,3,363,4.606,2.605,9.67,0
569,35.393,-97.494,61.1,14.55,3,363,4.007,2.733,9.507,0
570,35.393,-97.494,68.1,13.96,3,363,3.733,2.731,9.831,0
571,35.393,-97.494,84.7,13.071,3,363,3.18,2.867,9.657,0
572,35.393,-97.494,95.5,11.715,3,362,2.722,2.72,9.805,0
573,35.393,-97.494,123.4,11.271,3,362,2.308,2.907,9.647,0
574,35.392,-97.494,144.8,11.272,3,363,1.973,2.964,9.399,0
575,35.392,-97.494,159.7,10.334,3,364,1.55,3.075,9.498,0
576,35.392,-97.494,172.4,9.7605,3,363,1.208,3.006,9.374,0
577,35.392,-97.494,183.6,9.2004,3,363,1.011,3.159,9.584,0
578,35.392,-97.494,196.2,8.3622,3,363,0.685,3.189,9.467,0
579,35.392,-97.494,205.9,7.8531,3,364,0.555,2.912,9.384,0
580,35.392,-97.494,216.3,7.1625,3,364,0.135,2.063,9.766,0
581,35.392,-97.494,224.8,5.6026,3,364,-0.347,2.732,9.603,0
582,35.392,-97.494,231.2,4.3602,3,364,-0.516,2.99,9.52,0
583,35.392,-97.494,234.3,3.5101,3,365,-0.472,5.39,8.834,0
585,35.392,-97.494,239,4.1303,3,365,0.01,5.217,9.03,0
586,35.392,-97.494,245.6,6.1318,3,366,0.429,5.283,8.794,0
587,35.392,-97.494,254.8,7.4236,3,366,1.161,5.311,8.49,0
588,35.392,-97.494,264.1,8.8318,3,367,1.476,5.901,8.275,0
589,35.392,-97.494,267.6,10.24,3,367,1.126,5.962,8.477,0
590,35.392,-97.495,276.1,11.83,3,367,0.159,5.158,8.654,0
591,35.392,-97.495,280.3,15.61,3,367,-0.324,4.825,8.631,0
592,35.392,-97.495,280.1,16.92,3,367,-0.039,3.872,9.125,0
593,35.392,-97.495,279.4,17.84,3,367,-0.155,3.246,9.143,0
594,35.392,-97.495,279.6,17.94,3,367,-0.358,3.926,9.263,0
595,35.392,-97.496,278.5,18.42,3,367,-0.315,4.299,9.159,0
596,35.392,-97.496,277.2,19.471,3,366,-0.126,4.332,9.069,0
597,35.392,-97.496,276.7,20.61,3,368,-0.107,4.459,9.088,0
598,35.392,-97.496,276.8,21.701,3,366,-0.205,4.204,9.106,0
599,35.392,-97.496,277.2,22.762,3,366,-0.485,3.758,9.137,0
600,35.392,-97.497,276,23.612,3,366,-0.156,3.513,9.533,0
601,35.392,-97.497,273.8,23.941,3,366,0.084,3.213,9.419,0
602,35.392,-97.497,272.5,24.321,3,366,0.025,3.226,9.539,0
603,35.392,-97.498,271.5,24.44,3,366,0.114,3.146,9.529,0
604,35.392,-97.498,271.2,24.581,3,365,-0.386,3.212,9.588,0
605,35.392,-97.498,270.7,24.592,3,364,-0.362,3.225,9.593,0
606,35.392,-97.498,269.9,24.502,3,364,-0.184,3.164,9.624,0
607,35.392,-97.499,269.7,24.36,3,363,-0.023,3.199,9.7,0
608,35.392,-97.499,269.7,24.14,3,364,-0.003,3.588,9.353,0
609,35.392,-97.499,269.7,24.32,3,365,-0.138,3.737,9.51,0
