time,lat,lng,bearing,spd,acc,alt,accx,accy,accz,stable,
0,35.235,-97.423,358.9,20.11,3,340,-2.935,-0.122,8.801,1
1,35.236,-97.423,359.1,19.92,3,340,-2.926,-0.15,8.959,1
2,35.236,-97.424,359.4,19.8,3,339,-2.88,-0.286,8.736,1
3,35.236,-97.424,359.4,19.7,3,340,-2.877,-0.295,8.888,1
4,35.236,-97.424,359.5,19.72,3,340,-2.943,-0.304,9.173,1
5,35.236,-97.424,359.5,19.78,3,340,-2.909,-0.374,9.021,1
6,35.237,-97.424,359.6,19.76,3,340,-2.951,-0.374,9.033,1
7,35.237,-97.424,359.6,19.59,3,340,-2.829,-0.431,9.1,1
8,35.237,-97.424,359.5,19.43,3,340,-2.946,-0.307,9.245,1
9,35.237,-97.424,359.6,19.31,3,340,-2.876,-0.275,9.055,1
10,35.237,-97.424,359.5,19.08,3,340,-3.163,-0.437,9.063,1
11,35.237,-97.424,359.5,19.16,3,341,-3.449,-0.589,8.94,1
12,35.238,-97.424,359.4,19.471,3,341,-3.545,-0.57,8.781,1
13,35.238,-97.424,359.9,19.99,3,340,-3.452,-0.72,8.928,1
14,35.238,-97.424,359.8,20.431,3,340,-3.504,-0.833,9.096,1
15,35.238,-97.424,359.8,20.911,3,340,-3.188,-0.682,9.044,1
16,35.238,-97.424,359.6,21.201,3,341,-3.301,-0.676,9.223,1
17,35.239,-97.424,359.4,21.28,3,342,-2.933,-0.417,9.055,1
18,35.239,-97.424,359.5,21.071,3,342,-2.79,-0.389,9.153,1
19,35.239,-97.424,359.5,20.691,3,342,-2.92,-0.398,9.198,1
20,35.239,-97.424,359.5,20.531,3,342,-2.988,-0.414,9.032,1
21,35.239,-97.424,359.6,20.401,3,343,-3.167,-0.538,9.451,1
22,35.24,-97.424,359.6,20.401,3,343,-3.219,-0.588,9.162,1
23,35.24,-97.424,359.6,20.511,3,343,-3.163,-0.51,9.002,1
24,35.24,-97.424,359.6,20.591,3,343,-3.283,-0.674,9.301,1
25,35.24,-97.424,359.5,20.671,3,344,-3.187,-0.546,9.077,1
26,35.24,-97.424,359.5,20.761,3,344,-3.136,-0.535,8.938,1
27,35.241,-97.424,359.4,20.88,3,344,-3.095,-0.427,8.766,1
28,35.241,-97.424,359.4,21,3,344,-3.201,-0.499,9.068,1
29,35.241,-97.424,359.4,21.14,3,344,-3.184,-0.513,8.813,1
30,35.241,-97.424,359.5,21.29,3,344,-2.892,-0.354,8.971,1
32,35.241,-97.424,359.8,21.18,3,344,-2.833,-0.268,8.958,1
32,35.241,-97.424,359.8,21.18,3,344,-2.833,-0.268,8.958,1
33,35.242,-97.424,0,20.91,3,343,-2.818,-0.317,8.858,1
34,35.242,-97.424,0,20.841,3,343,-2.784,-0.154,8.951,1
35,35.242,-97.424,0.1,20.63,3,343,-2.69,-0.285,9.252,1
36,35.242,-97.424,359.9,20.441,3,343,-2.635,-0.374,9.275,1
37,35.242,-97.424,359.5,20.242,3,342,-2.85,-0.524,9.109,1
38,35.242,-97.424,359.3,20.352,3,342,-3.082,-0.502,9.133,1
39,35.243,-97.424,359,20.702,3,342,-3.242,-0.391,9.049,1
40,35.243,-97.424,359.4,21.121,3,342,-3.077,-0.211,8.991,1
41,35.243,-97.424,359.7,21.321,3,341,-2.918,-0.215,9.147,1
42,35.243,-97.424,359.8,21.291,3,341,-3.052,-0.258,9.497,1
43,35.243,-97.424,0.1,21.18,3,341,-3.107,-0.114,9.391,0
44,35.244,-97.424,0.5,21.25,3,340,-3.175,-0.092,8.916,0
45,35.244,-97.424,1.2,21.39,3,340,-3.128,-0.258,9.107,0
46,35.244,-97.424,1.4,21.55,3,339,-3.018,-0.414,8.923,0
47,35.244,-97.424,1.2,21.61,3,339,-3.013,-0.204,9.15,0
48,35.244,-97.424,1.2,21.55,3,339,-3.04,-0.252,9.139,0
49,35.245,-97.424,1.4,21.41,3,339,-2.959,-0.115,9.111,0
50,35.245,-97.424,1.9,21.18,3,339,-3.122,-0.521,9.356,0
51,35.245,-97.424,1.9,21.151,3,339,-3.121,-0.474,9.096,1
52,35.245,-97.424,2,21.073,3,339,-2.984,-0.339,9.212,1
53,35.245,-97.424,2.2,20.774,3,340,-2.788,-0.14,9.31,1
54,35.245,-97.423,2.4,20.134,3,341,-2.716,-0.294,9.249,1
55,35.246,-97.423,2.4,19.562,3,341,-2.688,-0.392,9.102,1
56,35.246,-97.423,2.2,19.061,3,341,-2.307,-0.102,9.133,1
57,35.246,-97.423,2.2,18.44,3,341,-2.2,0.187,8.894,1
58,35.246,-97.423,2.1,17.25,3,341,-2.088,0.359,9.302,1
59,35.246,-97.423,2.5,16.3,3,342,-1.527,0.473,9.459,1
60,35.246,-97.423,0.1,15.831,3,343,-2.285,-0.225,9.245,1
61,35.247,-97.423,1.8,13.922,3,344,-1.549,0.075,9.659,1
62,35.247,-97.423,0.9,12.98,3,344,-1.484,0.357,9.507,1
63,35.247,-97.423,0.3,10.96,3,345,-1.235,0.448,9.642,1
64,35.247,-97.423,0,9.3612,3,344,-1.318,0.584,9.649,1
65,35.247,-97.423,359.5,7.6702,3,344,-1.264,0.66,9.704,1
66,35.247,-97.423,359.1,5.9219,3,343,-1.134,0.7,9.817,1
67,35.247,-97.423,359.6,3.9692,3,343,-1.74,0.346,9.595,1
68,35.247,-97.423,359.6,2.4907,3,344,-1.816,0.276,9.537,1
69,35.247,-97.423,359.6,1.5901,3,343,-2.119,0.137,9.415,1
70,35.247,-97.423,359.6,1.5901,3,343,-2.156,0.124,9.395,1
71,35.247,-97.423,359.6,1.5901,3,343,-2.643,-0.17,9.281,1
72,35.247,-97.423,359.6,1.5901,3,343,-2.694,-0.2,9.2,1
73,35.247,-97.423,359.6,1.5901,3,343,-2.734,-0.214,9.242,1
74,35.247,-97.423,359.6,1.5901,3,343,-2.726,-0.219,9.237,1
75,35.247,-97.423,359.6,1.5901,3,343,-2.735,-0.209,9.2,1
76,35.247,-97.423,359.6,1.5901,3,343,-2.736,-0.215,9.231,1
77,35.247,-97.423,359.6,1.5901,3,343,-2.74,-0.213,9.232,1
78,35.247,-97.423,359.6,1.5901,3,343,-2.729,-0.216,9.231,1
79,35.247,-97.423,0,0,3,342,-2.722,-0.215,9.226,1
80,35.247,-97.423,0,0,3,342,-2.724,-0.218,9.215,1
81,35.247,-97.423,0,0,3,342,-2.734,-0.205,9.19,1
82,35.247,-97.423,0,0,3,342,-2.724,-0.218,9.261,1
83,35.247,-97.423,0,0,3,342,-2.718,-0.217,9.202,1
84,35.247,-97.423,0,0,3,342,-2.726,-0.22,9.241,1
85,35.247,-97.423,0,0,3,342,-2.733,-0.209,9.198,1
86,35.247,-97.423,0,0,3,342,-2.71,-0.228,9.236,1
87,35.247,-97.423,0,0,3,342,-2.723,-0.221,9.248,1
88,35.247,-97.423,0,0,3,342,-2.716,-0.218,9.223,1
89,35.247,-97.423,0,0,3,342,-2.722,-0.226,9.25,1
90,35.247,-97.423,0,0,3,342,-2.73,-0.214,9.209,1
92,35.247,-97.423,0,0,3,342,-2.718,-0.224,9.251,1
92,35.247,-97.423,0,0,3,342,-2.718,-0.224,9.251,1
93,35.247,-97.423,0,0,3,342,-2.743,-0.22,9.234,1
94,35.247,-97.423,0,0,3,342,-2.743,-0.213,9.194,1
95,35.247,-97.423,0,0,3,342,-2.737,-0.231,9.251,1
96,35.247,-97.423,0,0,3,342,-2.745,-0.209,9.232,1
97,35.247,-97.423,0,0,3,342,-2.723,-0.242,9.237,1
98,35.247,-97.423,0,0,3,342,-2.744,-0.214,9.221,1
99,35.247,-97.423,0,0,3,342,-2.72,-0.225,9.22,1
100,35.247,-97.423,0,0,3,342,-3.007,-0.375,9.107,1
101,35.247,-97.423,0,0,3,342,-3.721,-0.802,8.773,1
102,35.247,-97.423,0.5,1.5403,3,342,-4.622,-1.318,8.478,1
103,35.247,-97.423,359.7,3.9508,3,342,-4.675,-1.433,8.35,1
104,35.247,-97.423,358.5,6.3813,3,342,-4.57,-1.276,8.466,1
105,35.247,-97.423,359,8.6026,3,342,-4.043,-1.189,8.692,1
106,35.247,-97.423,358.6,10.342,3,342,-4.124,-1.147,8.67,1
107,35.247,-97.423,358.4,12.133,3,342,-4.163,-1.19,8.644,1
108,35.248,-97.423,358.1,13.923,3,342,-4.156,-1.079,8.461,1
109,35.248,-97.423,358.1,15.602,3,341,-3.884,-0.947,8.675,1
110,35.248,-97.423,357.8,16.872,3,340,-3.486,-1.043,8.945,1
111,35.248,-97.423,356.8,17.821,3,340,-3.522,-1.053,8.918,1
112,35.248,-97.423,356.2,18.47,3,339,-3.777,-0.822,9.198,1
113,35.248,-97.424,355.7,19.44,3,340,-3.929,-0.595,9.036,0
114,35.249,-97.424,356.4,20.15,3,340,-3.753,-0.415,9.258,0
115,35.249,-97.424,357.2,20.621,3,340,-3.539,-0.475,8.854,0
116,35.249,-97.424,357.8,20.872,3,340,-3.504,-0.736,9.268,0
117,35.249,-97.424,357.8,21.144,3,341,-3.5,-0.653,8.648,0
118,35.249,-97.424,357.8,21.453,3,341,-3.562,-0.609,8.538,0
119,35.25,-97.424,358,21.842,3,342,-3.277,-0.359,8.644,0
120,35.25,-97.424,358.3,22.081,3,342,-3.297,-0.371,8.894,0
121,35.25,-97.424,358.5,22.19,3,342,-3.073,-0.214,9.062,0
122,35.25,-97.424,359,22.18,3,341,-3.103,-0.22,9.246,1
123,35.25,-97.424,359.3,22.201,3,341,-3.052,-0.46,8.949,1
124,35.251,-97.424,359.1,22.481,3,341,-2.883,-0.388,9.307,1
125,35.251,-97.424,359.3,22.613,3,340,-2.922,-0.518,9.348,0
126,35.251,-97.424,359.5,22.512,3,339,-3.168,-0.536,9.295,0
127,35.251,-97.424,359.5,22.59,3,339,-3.035,-0.462,9.186,0
128,35.251,-97.424,359.6,22.68,3,339,-2.788,-0.378,9.194,0
129,35.252,-97.424,359.7,22.43,3,339,-3.08,-0.493,9.303,0
130,35.252,-97.424,359.6,22.163,3,339,-3.072,-0.325,9.577,0
131,35.252,-97.424,359.7,22.016,3,340,-2.923,-0.14,9.227,0
132,35.252,-97.424,0,21.43,3,340,-2.917,-0.15,9.173,0
133,35.252,-97.424,0.3,20.639,3,341,-2.871,-0.024,9.382,0
134,35.253,-97.424,1,19.128,3,342,-2.741,-0.111,9.096,0
135,35.253,-97.424,1,18.328,3,343,-2.472,-0.165,9.315,0
136,35.253,-97.424,0.8,16.796,3,343,-1.951,0.238,9.47,0
137,35.253,-97.424,0.9,15.276,3,343,-2.61,-0.141,9.155,0
138,35.253,-97.424,1.1,14.553,3,344,-2.91,-0.404,8.914,1
139,35.253,-97.424,1,14.543,3,344,-3.203,-0.647,9.009,1
140,35.254,-97.424,0.5,14.642,3,344,-3.152,-0.674,8.952,1
141,35.254,-97.424,0.1,14.562,3,345,-2.762,-0.397,9.085,1
142,35.254,-97.424,359.8,14.182,3,345,-2.965,-0.397,8.959,1
143,35.254,-97.424,359.8,13.912,3,345,-2.795,-0.263,9.097,1
144,35.254,-97.424,359.9,13.641,3,345,-3.115,-0.502,9.156,1
145,35.254,-97.424,359.9,13.611,3,346,-3.152,-0.541,8.931,1
147,35.254,-97.424,359.9,13.601,3,346,-3.128,-0.464,8.789,1
147,35.254,-97.424,359.9,13.601,3,346,-3.128,-0.464,8.789,1
148,35.254,-97.424,359.6,13.71,3,346,-3.298,-0.55,8.908,1
149,35.255,-97.424,359.4,14.01,3,346,-3.331,-0.569,8.969,1
150,35.255,-97.424,359.5,14.5,3,346,-3.665,-0.758,8.997,1
151,35.255,-97.424,359.4,15.35,3,346,-3.793,-0.829,8.723,1
152,35.255,-97.424,359.2,16.27,3,347,-3.634,-0.793,8.856,1
153,35.255,-97.424,358.9,17.161,3,346,-3.729,-0.848,8.783,1
154,35.255,-97.424,358.5,18.111,3,346,-3.652,-0.74,8.906,1
155,35.255,-97.424,358.4,19.062,3,345,-3.594,-0.774,8.714,1
156,35.256,-97.424,358.4,20.015,3,344,-3.588,-0.568,8.779,1
157,35.256,-97.424,358.6,20.975,3,344,-3.131,-0.26,9.13,1
158,35.256,-97.424,359.1,21.464,3,344,-3.119,-0.477,9.175,1
159,35.256,-97.424,359.3,21.784,3,342,-3.036,-0.426,8.956,0
160,35.256,-97.424,359.5,22.105,3,341,-2.732,-0.385,9.444,0
161,35.257,-97.424,359.4,22.205,3,341,-2.728,-0.352,9.062,0
162,35.257,-97.424,359.4,22.176,3,341,-2.782,-0.261,9.092,0
163,35.257,-97.424,359.3,22.235,3,340,-2.981,-0.249,8.957,0
164,35.257,-97.424,359.4,22.455,3,340,-2.866,-0.079,9.2,0
165,35.257,-97.424,359.7,22.486,3,339,-2.765,-0.254,8.972,0
166,35.258,-97.424,359.8,22.445,3,338,-2.579,-0.331,9.23,1
167,35.258,-97.424,359.5,22.445,3,337,-2.644,-0.341,8.906,1
168,35.258,-97.424,359.2,22.415,3,336,-2.649,-0.185,9.417,1
169,35.258,-97.424,359.1,22.385,3,335,-2.742,-0.186,9.272,1
170,35.258,-97.424,359.2,22.397,3,335,-2.683,-0.248,9.135,1
171,35.259,-97.424,359.3,22.398,3,334,-2.799,-0.169,9.457,1
172,35.259,-97.424,359.3,22.397,3,333,-2.756,-0.282,9.62,0
173,35.259,-97.424,359.4,22.387,3,332,-2.711,-0.166,9.612,0
174,35.259,-97.424,359.3,22.375,3,330,-2.784,-0.126,9.438,0
175,35.259,-97.424,359.4,22.314,3,329,-2.715,-0.027,9.083,0
176,35.26,-97.424,359.5,22.243,3,329,-2.024,0.287,9.414,0
177,35.26,-97.424,359.8,21.743,3,329,-1.684,0.279,9.786,0
178,35.26,-97.424,0.2,20.333,3,328,-2.486,0.07,9.473,0
179,35.26,-97.424,0.6,19.423,3,328,-2.614,-0.183,9.339,0
180,35.26,-97.424,0.7,19.323,3,327,-1.56,0.376,9.763,0
181,35.26,-97.424,0.5,18.232,3,326,-1.204,0.55,10.038,0
182,35.261,-97.424,0.2,16.302,3,326,-2.172,-0.116,9.695,0
183,35.261,-97.424,359.8,14.761,3,327,-2.051,-0.13,9.514,0
184,35.261,-97.424,359.6,14.421,3,326,-1.619,0.444,9.38,0
185,35.261,-97.424,359.5,13.111,3,326,-1.481,0.409,9.728,0
186,35.261,-97.424,0,11.551,3,325,-1.552,0.422,9.754,0
187,35.261,-97.424,0,9.9005,3,325,-1.732,0.247,9.516,0
188,35.261,-97.424,0,8.4201,3,325,-1.874,0.231,9.647,0
189,35.261,-97.424,359.4,7.07,3,324,-1.951,0.283,9.555,0
190,35.261,-97.424,359.7,5.8802,3,325,-1.747,0.368,9.538,1
191,35.261,-97.424,359.5,3.18,3,326,-1.633,0.418,9.625,1
192,35.261,-97.424,359.4,1.94,3,325,-2.414,-0.068,9.363,1
193,35.261,-97.424,359.4,1.5003,3,325,-2.573,-0.133,9.294,1
194,35.261,-97.424,359.6,1.01,3,325,-2.441,-0.047,9.367,1
195,35.261,-97.424,359.6,1.01,3,325,-2.67,-0.199,9.295,1
196,35.261,-97.424,359.6,1.01,3,325,-2.904,-0.342,9.175,1
197,35.261,-97.424,359.6,1.01,3,325,-2.961,-0.366,9.141,1
198,35.261,-97.424,359.6,1.01,3,325,-2.96,-0.374,9.137,1
199,35.261,-97.424,359.6,1.01,3,325,-2.966,-0.369,9.133,1
200,35.261,-97.424,359.6,1.01,3,325,-3.079,-0.44,9.09,1
201,35.261,-97.424,359.6,1.01,3,325,-3.489,-0.687,8.894,1
202,35.262,-97.424,359.2,1.2804,3,326,-4.481,-1.262,8.529,1
203,35.262,-97.424,1.3,3.1904,3,326,-4.854,-1.54,8.324,1
205,35.262,-97.424,0.3,5.6201,3,326,-5.052,-1.674,8.251,1
205,35.262,-97.424,0.3,5.6201,3,326,-5.052,-1.674,8.251,1
206,35.262,-97.424,0,8.1102,3,326,-4.749,-1.533,8.231,1
207,35.262,-97.424,359.8,10.2,3,326,-4.208,-1.223,8.699,1
208,35.262,-97.424,359.6,11.61,3,325,-4.209,-1.237,8.436,1
209,35.262,-97.424,359.3,13.2,3,325,-4.183,-1.101,8.585,1
210,35.262,-97.424,359.6,14.61,3,325,-3.967,-1,8.529,1
211,35.262,-97.424,359.7,15.93,3,325,-3.92,-0.858,9.053,1
212,35.262,-97.424,359.8,16.821,3,325,-3.791,-0.909,8.795,1
213,35.263,-97.424,359.5,17.73,3,324,-3.795,-0.927,8.708,1
214,35.263,-97.424,359.2,18.751,3,323,-3.687,-0.876,8.677,1
215,35.263,-97.424,359,19.781,3,323,-3.809,-0.984,8.759,1
216,35.263,-97.424,359.1,20.842,3,322,-3.098,-0.44,8.971,1
217,35.263,-97.424,359.2,21.153,3,322,-3.302,-0.351,9.025,1
218,35.264,-97.424,359.8,21.522,3,322,-3.563,-0.371,9.101,0
219,35.264,-97.424,0.2,21.98,3,322,-3.472,-0.308,9.254,0
220,35.264,-97.424,1.6,22.38,3,321,-3.303,-0.533,9.034,0
221,35.264,-97.424,1.7,22.63,3,321,-3.293,-0.769,9.07,0
222,35.264,-97.424,1.6,22.89,3,322,-3.109,-0.77,8.859,0
223,35.265,-97.424,0.9,22.92,3,322,-2.899,-0.884,8.82,0
224,35.265,-97.424,359.8,23.12,3,323,-3.331,-0.863,9.282,0
225,35.265,-97.424,359.1,23.29,3,323,-3.285,-0.737,9.217,0
226,35.265,-97.424,359,23.363,3,324,-3.405,-0.638,9.151,0
227,35.265,-97.424,359,23.386,9,324,-3.439,-0.294,9.135,0
228,35.266,-97.424,359.1,23.376,9,325,-3.539,-0.559,8.946,0
229,35.266,-97.424,359.6,23.435,9,325,-3.293,-0.516,8.779,0
230,35.266,-97.424,359.9,23.434,9,326,-3.361,-0.6,8.893,0
231,35.266,-97.424,0.1,23.631,9,326,-3.102,-0.844,8.795,0
232,35.266,-97.424,359.9,23.88,9,326,-3.179,-0.836,8.616,0
233,35.267,-97.424,359.9,24.18,9,325,-3.287,-0.652,8.916,0
234,35.267,-97.424,0,24.541,9,324,-3.517,-0.385,9.365,0
235,35.267,-97.424,0.1,25.002,9,325,-3.162,-0.446,9.318,0
236,35.267,-97.424,0.2,25.28,9,325,-3.092,-0.63,9.385,0
237,35.268,-97.424,0.2,25.29,9,324,-2.972,-0.659,9.146,0
238,35.268,-97.424,0.1,25.26,9,325,-3.188,-0.722,9.393,0
239,35.268,-97.424,0.1,25.14,9,325,-2.995,-0.623,9.071,0
240,35.268,-97.424,0,25.043,9,325,-3.011,-0.617,8.666,0
241,35.268,-97.424,359.9,24.735,9,326,-2.795,-0.383,9.191,0
242,35.269,-97.424,359.9,24.303,9,327,-2.86,-0.523,8.813,0
243,35.269,-97.424,0.2,23.911,9,328,-2.884,-0.502,9.088,0
244,35.269,-97.424,0.4,23.76,9,328,-2.923,-0.42,8.643,0
245,35.269,-97.424,0.3,23.74,9,328,-2.907,-0.47,9.044,0
246,35.27,-97.424,0,23.81,9,327,-2.798,-0.513,8.872,1
247,35.27,-97.424,0,23.822,9,326,-2.982,-0.413,8.51,1
248,35.27,-97.424,0,24.074,9,325,-2.822,-0.158,8.583,1
249,35.27,-97.424,0,24.428,3,324,-2.657,-0.101,9.021,1
250,35.27,-97.424,0,24.55,3,323,-2.891,-0.31,8.897,1
251,35.271,-97.424,359.9,24.703,3,321,-2.726,-0.288,9.181,1
252,35.271,-97.424,0,24.816,3,319,-2.782,-0.15,8.931,1
253,35.271,-97.424,0.2,24.978,3,317,-2.769,0.011,9.185,1
254,35.272,-97.424,0.4,25.158,3,315,-2.697,-0.223,9.586,0
255,35.272,-97.424,0.4,25.308,3,314,-2.453,-0.268,9,0
256,35.272,-97.424,0.4,25.435,3,313,-2.786,-0.362,9.338,0
257,35.272,-97.424,0.3,25.523,3,312,-2.726,-0.26,9.224,0
258,35.272,-97.424,0.1,25.569,3,311,-2.74,-0.275,9.261,0
259,35.273,-97.424,359.9,25.546,3,309,-2.865,-0.244,9.463,0
260,35.273,-97.424,359.8,25.433,3,309,-2.649,-0.257,9.45,0
261,35.273,-97.424,359.5,25.211,3,308,-2.713,-0.071,9.299,0
262,35.273,-97.424,359.5,24.9,3,309,-2.892,-0.175,9.594,0
264,35.274,-97.424,359.6,24.41,3,309,-2.95,0.158,9.654,0
264,35.274,-97.424,359.6,24.41,3,309,-2.95,0.158,9.654,0
265,35.274,-97.424,359.7,24.18,3,309,-2.811,-0.074,9.428,0
266,35.274,-97.424,359.9,23.71,3,308,-2.885,-0.063,9.21,0
267,35.274,-97.424,359.7,23.23,4,308,-1.787,0.597,9.387,0
268,35.274,-97.424,0.1,21.321,3,309,-1.599,0.725,9.703,0
269,35.275,-97.424,0,19.64,3,309,-2.309,0.003,9.138,0
270,35.275,-97.424,0.4,19.091,3,309,-3,-0.282,8.8,0
271,35.275,-97.424,0.2,19.471,3,309,-3.425,-0.726,9.305,0
272,35.275,-97.424,0.3,19.87,3,308,-3.025,-0.368,9.221,1
273,35.275,-97.424,0.8,20.151,3,308,-2.894,-0.324,9.518,0
274,35.275,-97.424,1.3,19.89,3,309,-2.753,-0.259,9.319,0
275,35.276,-97.424,1.1,19.63,3,308,-2.691,-0.369,9.268,0
276,35.276,-97.424,0.6,19.25,3,309,-2.557,-0.314,8.858,0
277,35.276,-97.424,0.3,18.88,3,309,-2.621,-0.466,9.31,0
278,35.276,-97.424,359.9,18.52,3,309,-2.546,-0.352,9.671,0
279,35.276,-97.424,359.6,17.87,3,309,-2.054,0.157,9.984,0
280,35.276,-97.424,359.5,16.421,3,309,-2.703,-0.032,9.292,0
281,35.277,-97.424,0,15.73,3,308,-3.079,-0.525,8.941,0
282,35.277,-97.424,359.9,15.68,3,309,-3.33,-0.701,9.135,0
283,35.277,-97.424,359.9,15.92,3,309,-3.819,-0.954,8.875,0
284,35.277,-97.424,359.6,16.62,3,310,-3.854,-1.006,8.716,0
285,35.277,-97.424,359.4,17.53,3,311,-4.099,-1.221,8.972,0
286,35.277,-97.424,359.2,18.411,3,311,-4.138,-1.053,8.767,0
287,35.278,-97.424,359.1,19.523,3,311,-4.137,-0.949,8.504,1
288,35.278,-97.424,359.6,20.465,3,312,-4.26,-1.014,8.721,1
289,35.278,-97.424,0.3,21.418,3,313,-4.228,-1.197,8.725,1
290,35.278,-97.424,0,22.342,3,314,-4.036,-1.05,8.686,1
291,35.278,-97.424,0.1,23.179,3,314,-3.516,-0.662,8.858,1
292,35.279,-97.424,0.2,23.56,3,315,-3.31,-0.778,9.121,1
293,35.279,-97.424,0.3,23.521,3,316,-3.165,-0.788,8.948,1
294,35.279,-97.424,0.2,23.31,3,317,-3.239,-0.729,8.92,1
295,35.279,-97.424,0,23.13,3,318,-3.225,-0.615,8.823,1
296,35.279,-97.424,359.9,22.929,3,319,-3.226,-0.606,8.557,1
297,35.28,-97.424,359.8,22.876,3,319,-3.211,-0.702,8.754,1
298,35.28,-97.424,359.9,22.903,3,319,-3.317,-0.579,8.9,1
299,35.28,-97.424,0,23.031,3,321,-3.167,-0.48,9.026,1
300,35.28,-97.424,0.1,23.23,3,321,-2.927,-0.487,9.11,1
301,35.28,-97.424,0.2,23.25,3,321,-3.144,-0.551,9.053,1
302,35.281,-97.424,0.1,23.26,3,322,-3.142,-0.734,9.119,1
303,35.281,-97.424,0,23.32,3,321,-3.178,-0.549,9.037,1
304,35.281,-97.424,359.9,23.44,3,321,-2.838,-0.434,9.282,1
305,35.281,-97.424,0.1,23.381,3,324,-2.844,-0.492,9.074,1
306,35.281,-97.424,0.2,23.13,3,324,-2.945,-0.682,9.011,1
307,35.282,-97.424,0,23.05,3,325,-2.921,-0.661,9.14,1
308,35.282,-97.424,359.8,22.98,3,324,-3.066,-0.228,9.043,1
309,35.282,-97.424,359.8,22.95,3,325,-2.97,-0.478,9.094,1
310,35.282,-97.424,0,22.96,3,324,-3.136,-0.545,9.01,1
311,35.283,-97.424,0.2,22.96,3,325,-2.982,-0.58,9.272,1
312,35.283,-97.424,0.3,22.97,3,324,-2.988,-0.529,9.168,1
313,35.283,-97.424,0.1,22.92,3,323,-2.989,-0.523,9.253,1
314,35.283,-97.424,0,22.9,3,323,-3.041,-0.494,9.272,1
315,35.284,-97.424,0,22.93,3,323,-3.008,-0.377,8.996,1
316,35.284,-97.424,0,22.92,3,323,-2.931,-0.407,8.928,1
317,35.284,-97.424,0,22.96,9,322,-2.995,-0.415,8.835,1
318,35.284,-97.424,0,23.07,9,324,-3.121,-0.509,9.251,1
319,35.284,-97.424,0,23.201,9,323,-2.815,-0.6,9.018,1
320,35.285,-97.424,359.8,23.381,9,323,-3.023,-0.329,9.478,1
322,35.285,-97.424,0.1,23.471,9,322,-2.922,-0.417,9.227,1
322,35.285,-97.424,0.1,23.471,9,322,-2.922,-0.417,9.227,1
323,35.285,-97.424,0,23.651,9,321,-3.126,-0.241,9.045,1
324,35.285,-97.424,0,23.761,9,320,-2.895,-0.288,9.064,1
325,35.285,-97.424,359.8,23.981,9,321,-3.057,-0.32,9.512,1
326,35.286,-97.424,0.2,24.08,9,322,-3.162,-0.577,9.15,1
327,35.286,-97.424,0.4,24.28,9,323,-2.967,-0.575,9.022,1
328,35.286,-97.424,0.1,24.41,9,323,-3.018,-0.599,9.32,1
329,35.286,-97.424,0.1,24.39,9,323,-2.941,-0.64,9.18,1
330,35.287,-97.424,359.9,24.25,9,322,-3.079,-0.483,9.214,1
331,35.287,-97.424,359.8,24.24,9,323,-2.968,-0.621,9.083,1
332,35.287,-97.424,0,24.32,9,323,-3.113,-0.739,9.506,0
333,35.287,-97.424,0,24.12,9,323,-2.721,-0.514,8.958,0
334,35.287,-97.424,0,23.641,9,324,-2.663,-0.19,9.199,0
335,35.288,-97.424,0.2,23.071,9,325,-2.614,-0.444,9.561,0
336,35.288,-97.424,0.1,22.561,9,325,-2.668,-0.345,9.451,0
337,35.288,-97.424,0,22.041,9,326,-2.671,-0.389,9.326,0
338,35.288,-97.424,359.8,21.531,9,325,-2.697,-0.245,9.083,0
339,35.288,-97.424,0,21.021,9,325,-2.787,-0.208,9.224,0
340,35.289,-97.424,0.1,20.64,9,325,-2.795,-0.343,9.239,1
341,35.289,-97.424,0.2,20.11,9,323,-2.688,-0.313,9.295,1
342,35.289,-97.424,0.2,19.591,9,324,-2.719,-0.285,9.314,1
343,35.289,-97.424,0.2,19.21,9,324,-2.275,-0.092,9.717,0
344,35.289,-97.424,0,18.411,9,326,-1.756,0.311,9.657,0
345,35.289,-97.424,0.3,16.621,9,325,-1.963,0.396,9.483,0
346,35.29,-97.424,0.9,14.861,9,325,-2.454,-0.085,9.539,0
347,35.29,-97.424,1.6,14.151,9,326,-1.949,0.027,9.432,0
348,35.29,-97.424,2.1,12.831,9,326,-2.375,-0.117,9.454,0
349,35.29,-97.424,1.8,11.501,9,326,-2.656,-0.407,9.131,0
350,35.29,-97.424,1.6,11.001,9,326,-2.641,-0.327,9.293,1
351,35.29,-97.424,1,10.541,9,326,-2.693,-0.33,9.179,1
352,35.29,-97.424,0.3,10.051,9,325,-2.347,-0.137,9.31,1
353,35.29,-97.424,0.3,8.9708,9,325,-2.861,-0.365,9.226,1
354,35.29,-97.424,0,8.4505,9,325,-2.915,-0.335,8.898,1
355,35.29,-97.424,0.1,8.22,9,324,-3.28,-0.82,8.875,1
356,35.29,-97.424,0.3,8.2603,9,324,-3.749,-0.891,8.637,1
357,35.291,-97.424,0.4,8.8803,9,325,-3.703,-0.952,8.756,1
358,35.291,-97.424,0.4,9.611,9,326,-3.725,-0.804,8.919,1
359,35.291,-97.424,0.5,10.29,9,326,-3.757,-0.897,8.676,1
360,35.291,-97.424,0.5,10.99,9,326,-3.974,-1.014,8.458,1
361,35.291,-97.424,0.4,11.87,9,326,-4.011,-1.212,8.64,1
362,35.291,-97.424,0.3,12.931,9,327,-3.962,-1.14,8.887,1
363,35.291,-97.424,359.6,14.11,9,327,-3.863,-1.127,8.528,1
364,35.291,-97.424,359,15.12,9,326,-3.861,-1.137,8.711,1
365,35.291,-97.424,358.6,16.06,9,326,-3.944,-0.996,8.718,1
366,35.292,-97.424,358.7,17.97,9,324,-3.927,-0.581,8.656,1
367,35.292,-97.424,359.8,18.891,9,325,-3.93,-0.854,8.97,1
368,35.292,-97.424,0.3,19.6,9,324,-3.182,-0.573,8.796,1
369,35.292,-97.424,0.4,19.55,9,323,-3.194,-0.804,9.047,1
370,35.293,-97.424,0.4,19.75,9,323,-3.319,-0.92,9.005,1
371,35.293,-97.424,0.5,20.07,9,323,-3.233,-0.846,9.074,1
372,35.293,-97.424,0.2,20.46,9,323,-3.353,-0.929,8.973,1
373,35.293,-97.424,0,20.86,9,323,-3.423,-0.834,8.909,1
374,35.293,-97.424,359.9,21.411,9,323,-3.504,-0.707,8.802,1
375,35.293,-97.424,0,21.931,9,324,-3.441,-0.675,8.834,1
376,35.294,-97.424,0.2,22.331,9,324,-3.197,-0.697,8.892,1
377,35.294,-97.424,0,22.451,9,324,-2.993,-0.718,8.855,1
378,35.294,-97.424,359.9,22.541,9,325,-3.2,-0.669,8.833,1
379,35.294,-97.424,0.1,22.721,9,325,-3.085,-0.693,9.001,1
380,35.294,-97.424,0.2,22.721,9,325,-3.06,-0.478,9.027,1
382,35.295,-97.424,0.2,22.581,9,326,-3.068,-0.648,9.063,1
382,35.295,-97.424,0.2,22.581,9,326,-3.068,-0.648,9.063,1
383,35.295,-97.424,0.1,22.621,9,326,-3.258,-0.717,8.983,1
384,35.295,-97.424,0,22.692,9,327,-3.088,-0.731,8.863,1
385,35.295,-97.424,0.1,22.801,9,327,-3.167,-0.791,8.915,1
386,35.295,-97.424,0.2,22.861,9,327,-3.057,-0.516,9.016,1
387,35.296,-97.424,0.1,22.741,9,328,-2.955,-0.407,9.193,1
388,35.296,-97.424,0,22.521,9,329,-2.891,-0.268,8.841,1
389,35.296,-97.424,0.1,22.311,9,329,-2.948,-0.569,8.888,1
390,35.296,-97.424,0,22.181,9,328,-2.946,-0.522,9.047,1
391,35.297,-97.424,0,22.031,9,329,-3.064,-0.398,9.285,1
392,35.297,-97.424,0.3,21.87,9,330,-2.981,-0.554,8.862,1
393,35.297,-97.424,0.3,21.84,9,329,-2.979,-0.462,9.044,1
394,35.297,-97.424,0.2,21.85,9,335,-2.872,-0.388,8.98,1
395,35.297,-97.424,0.2,21.96,9,333,-3.11,-0.6,9.172,1
396,35.297,-97.424,0.2,22.16,9,333,-3.148,-0.671,8.954,1
397,35.298,-97.424,0.1,22.36,9,332,-3.246,-0.598,9.335,0
398,35.298,-97.424,0.3,22.54,9,332,-3.337,-0.551,9.249,0
399,35.298,-97.424,0.4,22.631,9,331,-3.174,-0.741,8.806,0
400,35.298,-97.424,0.5,22.67,9,331,-3.217,-0.606,9.127,0
401,35.299,-97.424,0.5,22.77,9,331,-3.042,-0.781,8.785,0
402,35.299,-97.424,0.3,22.821,9,331,-3.163,-0.705,8.97,0
403,35.299,-97.424,0.1,22.851,9,331,-2.897,-0.394,8.992,0
404,35.299,-97.424,0.1,22.613,9,336,-2.926,-0.475,8.946,1
405,35.299,-97.424,0.2,22.312,9,334,-2.974,-0.661,8.753,1
406,35.3,-97.424,0.1,22.192,9,334,-3.117,-0.789,9.165,1
407,35.3,-97.424,0.2,22.092,9,334,-3.016,-0.586,9.06,1
408,35.3,-97.424,359.9,22.044,9,335,-3.013,-0.663,8.835,1
409,35.3,-97.424,0,21.862,9,335,-3.006,-0.496,9.185,1
410,35.3,-97.424,0,21.732,9,335,-3.157,-0.463,9.146,1
411,35.301,-97.424,0.3,21.592,9,336,-3.163,-0.679,9.001,1
412,35.301,-97.424,0.4,21.502,9,336,-3.204,-0.76,8.853,1
413,35.301,-97.424,0.3,21.572,9,336,-3.258,-0.781,8.961,1
414,35.301,-97.424,0.1,21.751,9,336,-3.306,-0.695,9.107,1
415,35.301,-97.424,0,21.94,9,336,-3.193,-0.532,9.282,1
416,35.302,-97.424,359.9,22.03,9,336,-3.276,-0.654,9.344,1
417,35.302,-97.424,0.1,22.06,9,336,-3.143,-0.607,8.891,1
418,35.302,-97.424,359.9,22.21,9,341,-3.193,-0.718,8.928,1
419,35.302,-97.424,359.8,22.311,9,340,-3.228,-0.503,8.987,1
420,35.302,-97.424,359.9,22.35,9,339,-3.187,-0.39,8.794,1
421,35.303,-97.424,0.2,22.421,9,339,-3.162,-0.541,9.034,1
422,35.303,-97.424,0.3,22.531,9,340,-3.164,-0.568,9.069,1
423,35.303,-97.424,0.4,22.58,9,340,-3.107,-0.528,8.603,1
424,35.303,-97.424,0.3,22.61,9,340,-3.23,-0.547,9.062,1
425,35.303,-97.424,0.2,22.681,9,341,-2.95,-0.444,9.017,1
426,35.304,-97.424,0.4,22.67,9,341,-2.83,-0.321,8.812,1
427,35.304,-97.424,0.5,22.43,9,341,-3.055,-0.484,9.218,1
428,35.304,-97.424,0.6,22.211,9,342,-3.073,-0.422,9.241,1
429,35.304,-97.424,0.8,22.061,9,342,-2.993,-0.33,8.974,1
430,35.305,-97.424,1.5,21.69,9,342,-3.029,-0.504,9.56,0
431,35.305,-97.424,1.4,21.56,9,342,-3.01,-0.513,9.009,0
432,35.305,-97.424,1,21.47,9,342,-2.813,-0.507,8.814,0
433,35.305,-97.424,0.5,21.41,9,342,-2.926,-0.542,9.01,0
434,35.305,-97.424,0.1,21.4,9,342,-2.865,-0.495,9.307,0
435,35.305,-97.424,359.8,21.39,9,342,-2.994,-0.486,9.029,0
436,35.306,-97.424,359.6,21.38,9,342,-3.039,-0.545,9.108,0
437,35.306,-97.424,359.1,21.41,9,342,-3.19,-0.689,8.881,0
438,35.306,-97.424,358.7,21.64,9,342,-3.306,-0.772,9.026,1
439,35.306,-97.424,358.5,21.95,9,342,-3.541,-0.703,9.112,1
440,35.306,-97.424,358.8,22.33,10,342,-3.322,-0.317,9.019,0
441,35.307,-97.424,359.6,22.45,9,342,-3.318,-0.25,9.053,0
443,35.307,-97.424,0.2,22.68,9,342,-3.298,-0.453,9.13,0
443,35.307,-97.424,0.2,22.68,9,342,-3.298,-0.453,9.13,0
444,35.307,-97.424,0.5,22.911,9,342,-3.166,-0.543,9.059,0
445,35.307,-97.424,0.2,23.05,9,342,-3.319,-0.563,8.959,0
446,35.308,-97.424,0.1,23.22,9,342,-3.127,-0.514,9.089,0
447,35.308,-97.424,359.7,23.21,9,343,-2.763,-0.313,9.217,0
448,35.308,-97.424,359.8,22.87,9,343,-2.807,-0.364,9.086,1
449,35.308,-97.424,0,22.711,9,344,-2.862,-0.374,8.816,1
450,35.308,-97.424,0.2,22.62,9,344,-2.965,-0.395,9.087,1
451,35.309,-97.424,0.3,22.69,9,344,-3.053,-0.448,8.908,1
452,35.309,-97.424,0.2,22.83,9,343,-2.986,-0.465,9.25,1
453,35.309,-97.424,359.9,23.02,9,343,-2.94,-0.537,9.289,1
454,35.309,-97.424,359.5,23.17,9,343,-2.947,-0.497,9.063,1
455,35.309,-97.424,359.3,23.34,3,343,-2.838,-0.305,9.244,1
456,35.31,-97.424,359.4,23.28,3,343,-2.837,-0.015,9.261,1
457,35.31,-97.424,0.4,22.971,3,342,-2.922,-0.334,9.044,1
458,35.31,-97.424,0.6,22.921,3,341,-2.85,-0.483,9.171,1
459,35.31,-97.424,0.4,23.03,3,341,-2.794,-0.437,8.827,1
460,35.31,-97.424,0.2,23.19,3,340,-2.908,-0.571,9.133,1
461,35.311,-97.424,0.1,23.11,3,340,-3.067,-0.238,9.185,0
462,35.311,-97.424,0.5,23.27,3,341,-2.874,-0.397,9.4,0
463,35.311,-97.424,0.2,23.4,3,341,-2.96,-0.559,9.323,0
464,35.311,-97.424,359.9,23.48,3,341,-3.02,-0.454,9.272,0
465,35.311,-97.424,0,23.29,3,340,-3.037,-0.433,9.402,0
466,35.312,-97.424,0.1,23.261,3,339,-3.047,-0.496,9.238,0
467,35.312,-97.424,359.9,23.22,3,340,-3.009,-0.416,9.243,0
468,35.312,-97.424,359.9,23.1,3,341,-2.773,-0.274,9.197,0
469,35.312,-97.424,0.1,22.671,3,341,-2.749,-0.086,9.065,0
470,35.312,-97.424,0.2,22.22,3,341,-2.871,-0.437,9.144,0
471,35.313,-97.424,0.2,22.01,3,340,-3.057,-0.547,9.035,0
472,35.313,-97.424,0,22.07,3,340,-2.939,-0.426,9.203,0
473,35.313,-97.424,359.8,22.15,3,340,-3.035,-0.513,9.067,1
474,35.313,-97.424,0,22.26,3,340,-3.049,-0.506,9.218,1
475,35.313,-97.424,0,22.26,3,339,-2.935,-0.519,9.431,1
476,35.314,-97.424,0.1,22.37,3,340,-2.945,-0.52,9.312,1
477,35.314,-97.424,359.8,22.41,3,339,-3.02,-0.532,9.342,1
478,35.314,-97.424,359.8,22.38,3,339,-3.096,-0.459,9.174,1
479,35.314,-97.424,359.8,22.39,3,340,-3.119,-0.423,9.27,1
480,35.314,-97.424,0.2,22.28,3,339,-3.083,-0.561,9.045,1
481,35.315,-97.424,0.2,22.24,3,338,-3.068,-0.545,9.012,1
482,35.315,-97.424,0.2,22.2,3,337,-3.1,-0.581,9.057,1
483,35.315,-97.424,0.2,22.111,3,338,-3.034,-0.576,9.139,1
484,35.315,-97.424,0.2,22.01,3,338,-3.007,-0.685,9.048,1
485,35.315,-97.424,0,21.941,3,339,-2.985,-0.575,9.091,1
486,35.316,-97.424,359.7,21.83,3,338,-3.062,-0.524,9.188,1
487,35.316,-97.424,359.6,21.78,3,338,-3.151,-0.406,8.885,1
488,35.316,-97.424,0,21.72,3,338,-3.164,-0.562,8.979,1
489,35.316,-97.424,0.4,21.601,3,337,-3.125,-0.686,9.098,1
490,35.317,-97.424,0.2,21.531,3,337,-3.135,-0.698,8.871,1
491,35.317,-97.424,359.9,21.471,3,337,-2.964,-0.538,9.038,1
492,35.317,-97.424,359.9,21.391,3,338,-3.091,-0.361,8.892,1
493,35.317,-97.424,0.1,21.331,3,338,-2.885,-0.315,8.949,1
494,35.317,-97.424,0,21.021,3,338,-2.746,-0.355,9.29,1
495,35.318,-97.424,0,20.5,3,338,-2.672,-0.398,8.991,1
496,35.318,-97.424,0,20.061,3,339,-2.701,-0.42,9.046,1
497,35.318,-97.424,359.8,19.551,3,339,-2.7,-0.291,9.195,1
498,35.318,-97.424,359.9,19.041,3,339,-2.838,-0.284,9.291,1
499,35.318,-97.424,0.2,18.482,3,340,-2.49,-0.163,9.216,1
500,35.318,-97.424,0.5,17.442,3,340,-2.127,0.251,9.476,1
502,35.319,-97.424,1.2,16.172,3,340,-2.658,-0.101,9.282,1
502,35.319,-97.424,1.2,16.172,3,340,-2.658,-0.101,9.282,1
503,35.319,-97.424,1.5,15.612,3,340,-2.687,-0.228,8.924,1
504,35.319,-97.424,1.8,15.042,3,340,-2.728,-0.401,9.166,1
505,35.319,-97.424,1.4,14.232,3,340,-1.51,0.353,9.538,1
506,35.319,-97.424,0.9,12.385,3,340,-1.131,0.546,9.778,1
507,35.319,-97.424,1,9.5812,3,340,-1.974,0.119,9.473,1
508,35.319,-97.424,0.8,8.3209,3,340,-2.936,-0.436,9.196,1
509,35.319,-97.424,0.4,8.0509,3,340,-3.751,-0.721,8.831,1
510,35.319,-97.424,0.1,8.6905,3,340,-3.997,-1.18,8.655,1
511,35.319,-97.424,359.9,9.5708,3,341,-3.987,-1.083,8.649,1
512,35.32,-97.424,359.6,10.531,3,341,-4.095,-1.066,8.628,1
513,35.32,-97.424,359.7,11.582,3,341,-4.021,-0.865,8.785,1
514,35.32,-97.424,359.9,12.331,3,341,-3.989,-0.849,8.67,1
515,35.32,-97.424,359.8,13.252,3,342,-3.964,-0.995,8.837,1
516,35.32,-97.424,359.8,13.972,3,342,-3.917,-1.063,8.855,1
517,35.32,-97.424,359.7,14.732,9,342,-3.96,-1.052,8.803,1
518,35.32,-97.424,359.3,15.683,9,342,-4.023,-1.154,8.704,1
519,35.32,-97.424,359,16.571,9,342,-3.888,-1.063,8.596,1
520,35.321,-97.424,358.8,17.421,9,342,-3.922,-0.944,8.587,1
521,35.321,-97.424,358.9,18.151,9,343,-3.799,-0.924,8.763,1
522,35.321,-97.424,358.8,18.76,9,343,-3.788,-0.767,8.636,1
523,35.321,-97.424,358.7,19.62,9,343,-3.682,-0.635,8.581,1
524,35.321,-97.424,359.4,20.18,9,343,-3.226,-0.334,8.918,1
525,35.322,-97.424,0.1,20.191,9,343,-3.188,-0.587,9.116,1
526,35.322,-97.424,0.3,20.231,9,343,-3.173,-0.604,9,1
527,35.322,-97.424,0.3,20.251,9,344,-3.119,-0.695,8.799,1
528,35.322,-97.424,0.1,20.281,9,344,-3.246,-0.696,8.625,1
529,35.322,-97.424,359.9,20.421,9,345,-3.432,-0.731,9.03,1
530,35.322,-97.424,359.8,20.82,9,345,-3.592,-0.822,8.897,1
531,35.323,-97.424,359.9,21.391,9,346,-3.624,-0.742,8.784,1
532,35.323,-97.424,0,21.991,9,346,-3.59,-0.818,8.747,1
533,35.323,-97.424,0.1,22.43,3,346,-3.568,-0.878,8.899,1
534,35.323,-97.424,0,22.99,3,346,-3.243,-0.654,8.882,1
535,35.323,-97.424,359.9,23.361,3,346,-3.254,-0.652,9.18,1
536,35.324,-97.424,359.8,23.461,3,346,-3.294,-0.802,9.075,1
537,35.324,-97.424,359.8,23.581,3,347,-3.163,-0.557,9.146,1
538,35.324,-97.424,359.9,23.741,3,347,-3.272,-0.403,9.137,1
539,35.324,-97.424,359.8,23.87,3,347,-3.309,-0.618,9.028,1
540,35.325,-97.424,359.7,24.051,3,347,-3.345,-0.615,8.829,1
541,35.325,-97.424,359.6,24.231,3,347,-3.354,-0.653,8.585,1
542,35.325,-97.424,359.9,24.361,3,348,-2.998,-0.471,8.941,1
543,35.325,-97.424,0,24.341,3,347,-3.183,-0.497,8.946,1
544,35.325,-97.424,359.9,24.351,3,348,-3.163,-0.465,8.949,1
545,35.326,-97.424,359.8,24.35,3,347,-3.17,-0.403,9.038,1
546,35.326,-97.424,359.9,24.44,3,347,-3.226,-0.405,9.098,1
547,35.326,-97.424,0.1,24.58,3,347,-2.873,-0.345,9.194,1
548,35.326,-97.424,0.2,24.71,3,347,-2.619,-0.424,9.186,1
549,35.327,-97.424,0.1,24.49,3,346,-2.647,-0.509,8.993,1
550,35.327,-97.424,0,24.04,3,346,-2.793,-0.429,8.99,1
551,35.327,-97.424,0.1,24.08,3,346,-3.053,-0.296,9.211,1
552,35.327,-97.424,0.1,24.06,3,346,-3.093,-0.282,9.428,1
553,35.328,-97.424,0.2,24.14,4,346,-2.972,-0.325,9.137,1
554,35.328,-97.424,0.2,24.09,4,345,-2.987,-0.481,8.987,1
555,35.328,-97.424,0.2,24.14,4,345,-3.062,-0.76,9.164,1
556,35.328,-97.424,359.8,24.24,4,345,-3.086,-0.761,9.466,1
557,35.328,-97.424,359.6,24.39,4,344,-3.135,-0.662,9.06,1
558,35.329,-97.424,359.7,24.491,4,344,-2.857,-0.58,8.854,1
559,35.329,-97.424,359.7,24.381,3,343,-2.942,-0.626,8.948,1
560,35.329,-97.424,359.5,24.491,4,343,-2.795,-0.38,9.115,1
561,35.329,-97.424,359.8,24.301,3,344,-2.63,-0.304,8.973,1
563,35.33,-97.424,359.8,24.114,3,343,-2.768,-0.25,9.32,1
563,35.33,-97.424,359.8,24.114,3,343,-2.768,-0.25,9.32,1
564,35.33,-97.424,0,23.952,3,343,-2.8,-0.415,9.483,1
565,35.33,-97.424,359.9,23.871,3,341,-3.059,-0.497,9.323,1
566,35.33,-97.424,359.7,24,3,341,-3.156,-0.217,9.247,1
567,35.33,-97.424,359.6,24.11,3,342,-3.268,-0.225,9.324,0
568,35.331,-97.424,359,24.14,3,341,-3.142,-0.325,9.111,0
569,35.331,-97.424,358,24.101,3,342,-3.048,-0.636,9.446,0
570,35.331,-97.424,356.3,24.071,3,341,-2.976,-0.741,9.284,0
571,35.331,-97.424,354.8,23.863,3,342,-3.16,-0.442,9.268,0
572,35.332,-97.424,353.9,23.572,3,343,-3.086,-0.56,9.094,0
573,35.332,-97.424,352.8,23.231,3,344,-3.059,-0.48,9.123,0
574,35.332,-97.424,351.8,22.861,3,344,-3.109,-0.458,9.232,0
575,35.332,-97.424,350.9,22.611,3,344,-3.078,-0.665,9.124,0
576,35.332,-97.424,349.5,22.471,3,345,-3.078,-0.578,8.922,1
577,35.333,-97.424,349,22.44,3,345,-2.815,-0.333,8.606,1
578,35.333,-97.424,346.9,22.071,3,346,-2.966,-0.117,9.095,1
579,35.333,-97.424,346.5,21.661,3,345,-2.978,-0.321,9.236,1
580,35.333,-97.424,345.7,21.261,3,345,-2.894,-0.586,8.8,1
581,35.333,-97.424,344.8,21.11,3,345,-3.195,-0.646,9.056,1
582,35.333,-97.424,343.8,21.13,3,345,-3.228,-0.576,8.957,1
583,35.334,-97.424,342.9,21.26,3,346,-3.301,-0.715,8.953,1
584,35.334,-97.424,341.9,21.54,3,345,-3.249,-0.659,8.711,1
585,35.334,-97.424,340.7,21.83,3,344,-3.028,-0.67,9.188,1
586,35.334,-97.425,339.3,21.89,3,345,-2.951,-0.627,9.207,0
587,35.334,-97.425,337.9,21.94,3,345,-3.043,-0.54,9.235,0
588,35.335,-97.425,336.2,21.961,3,345,-2.85,-0.183,9.247,0
589,35.335,-97.425,334.7,21.98,3,345,-2.752,-0.204,9.26,0
590,35.335,-97.425,334.1,21.891,3,346,-2.57,-0.557,9.213,0
591,35.335,-97.425,332.7,21.844,3,346,-2.604,-0.264,9.384,0
592,35.335,-97.425,331,21.794,3,345,-2.708,-0.248,9.308,0
593,35.335,-97.425,330.2,21.774,3,344,-2.873,-0.281,8.996,1
594,35.336,-97.425,329.4,21.941,3,343,-3.365,-0.028,9.299,1
595,35.336,-97.425,328.7,21.92,4,343,-3.248,-0.268,9.203,1
596,35.336,-97.426,329,22.25,4,343,-3.455,-0.424,9.12,1
597,35.336,-97.426,329.1,22.52,4,342,-3.37,-0.349,9.354,0
598,35.336,-97.426,329.5,22.76,4,342,-3.157,-0.494,9.082,0
599,35.336,-97.426,329.7,22.99,3,342,-3.191,-0.462,9.058,0
600,35.337,-97.426,329.4,23.17,3,342,-3.199,-0.385,9.231,0
601,35.337,-97.426,329.8,23.42,3,342,-2.813,-0.274,9.293,0
602,35.337,-97.426,330.4,23.35,3,341,-3.043,-0.346,9.138,0
603,35.337,-97.427,331.2,23.19,3,341,-3.19,-0.05,9.073,0
604,35.337,-97.427,332.6,23.03,3,341,-3.25,-0.337,9.07,0
605,35.338,-97.427,334.6,23.19,3,339,-3.465,-0.191,9.402,0
606,35.338,-97.427,336.3,23.39,3,340,-3.312,-0.441,9.302,0
607,35.338,-97.427,337.9,23.55,3,340,-3.204,-0.265,8.832,0
608,35.338,-97.427,340.5,23.86,3,341,-3.384,-0.132,9.178,0
609,35.339,-97.427,342.3,23.98,3,340,-3.416,-0.16,9.142,0
610,35.339,-97.427,343.9,24.1,3,340,-3.324,-0.245,9.125,0
611,35.339,-97.427,345.5,24.23,3,340,-3.362,-0.167,9.079,0
612,35.339,-97.427,347.3,24.35,3,340,-3.416,-0.116,9.231,0
613,35.339,-97.427,349.1,24.43,3,340,-3.405,-0.123,8.726,1
614,35.34,-97.427,350.6,24.52,3,340,-3.219,-0.179,9.023,1
615,35.34,-97.428,352,24.58,3,340,-3.416,0.192,9.139,1
616,35.34,-97.428,353.9,24.58,3,340,-3.344,0.091,9.215,1
617,35.34,-97.428,355.7,24.8,3,340,-3.232,-0.366,9.266,1
618,35.341,-97.428,356.8,24.84,3,339,-3.231,0.081,9.319,0
619,35.341,-97.428,357.7,24.87,3,339,-2.898,0.203,9.193,0
620,35.341,-97.428,359,24.86,4,339,-3.126,0.258,9.281,0
622,35.341,-97.428,1.7,23.74,3,339,-3.05,0.178,9.077,0
622,35.341,-97.428,1.7,23.74,3,339,-3.05,0.178,9.077,0
623,35.341,-97.428,3.3,23.75,3,339,-3.122,-0.027,9.185,0
624,35.342,-97.428,4.9,23.32,3,339,-3.065,-0.294,9.067,0
625,35.342,-97.428,5.8,23.23,3,338,-3.402,-0.245,8.839,0
626,35.342,-97.427,7.1,23.21,3,338,-3.391,-0.095,8.813,1
627,35.342,-97.427,9.3,23.55,3,338,-3.574,-0.103,9.164,1
628,35.342,-97.427,11.2,23.6,3,337,-3.28,-0.184,8.786,1
629,35.343,-97.427,12.6,23.72,3,338,-3.157,-0.158,9.455,1
630,35.343,-97.427,13.9,23.55,3,338,-3.041,0.159,8.968,1
631,35.343,-97.427,15.5,23.55,3,339,-3.232,-0.014,9.103,1
632,35.343,-97.427,17.6,23.38,3,339,-3.121,-0.271,8.917,1
633,35.343,-97.427,18.7,23.42,3,339,-3.333,-0.21,8.982,1
634,35.344,-97.427,20.2,23.53,3,339,-3.269,-0.375,8.904,1
635,35.344,-97.427,21.7,23.62,3,340,-3.284,-0.248,8.91,1
636,35.344,-97.427,22.8,23.73,3,340,-3.056,-0.196,9.274,1
637,35.344,-97.427,23.7,23.54,3,340,-2.889,-0.616,9.233,1
638,35.344,-97.427,23.7,23.39,3,339,-2.964,-0.631,9.261,1
639,35.345,-97.426,23.5,23.33,3,339,-2.801,-0.414,9.293,1
640,35.345,-97.426,23.5,23.11,3,339,-2.633,-0.206,9.14,1
641,35.345,-97.426,23.6,22.7,3,339,-2.754,-0.3,9.383,1
642,35.345,-97.426,23.6,22.35,3,339,-3,-0.708,9.257,1
643,35.345,-97.426,23,22.36,3,339,-3.049,-0.509,9.141,1
644,35.346,-97.426,22.8,22.53,3,341,-3.371,-0.499,9.174,1
645,35.346,-97.426,23,22.79,3,341,-3.235,-0.448,8.932,1
646,35.346,-97.426,23.4,23.02,3,341,-3.322,-0.823,9.316,1
647,35.346,-97.426,23.6,23.21,3,341,-3.219,-0.541,8.86,1
648,35.346,-97.426,23.5,23.41,3,340,-3.274,-0.718,8.873,1
649,35.347,-97.425,23.2,23.68,3,341,-3.306,-0.754,8.934,1
650,35.347,-97.425,23.1,23.85,3,341,-3.204,-0.465,8.751,1
651,35.347,-97.425,22.7,24.07,3,341,-3.22,-0.446,9.061,1
652,35.347,-97.425,22.6,24.23,3,341,-2.764,-0.144,9.192,1
653,35.347,-97.425,22.2,24.05,3,341,-2.785,-0.266,9.208,0
654,35.348,-97.425,21.5,23.55,3,340,-2.777,-0.338,8.874,0
655,35.348,-97.425,21,23.21,3,341,-2.906,-0.218,8.866,0
656,35.348,-97.425,20.5,23.06,3,341,-2.994,-0.322,9.184,0
657,35.348,-97.425,19.8,22.91,3,341,-2.786,-0.63,9.128,0
658,35.348,-97.425,18.8,22.8,3,341,-2.86,-0.67,9.028,0
659,35.349,-97.425,17.3,22.56,3,341,-3.18,-0.502,9.222,0
660,35.349,-97.424,16.7,22.42,3,341,-3.243,-0.472,9.133,1
661,35.349,-97.424,16.1,22.42,3,342,-3.118,-0.54,9.709,0
662,35.349,-97.424,15.1,22.381,3,342,-3.139,-0.739,9.569,0
663,35.349,-97.424,13.9,22.213,3,342,-3.196,-0.922,9.214,0
664,35.349,-97.424,12.7,22.155,3,342,-3.387,-0.711,9.241,0
665,35.35,-97.424,11.6,22.023,3,342,-3.334,-0.407,8.733,0
666,35.35,-97.424,11.2,21.873,3,343,-3.579,-0.322,9.05,0
667,35.35,-97.424,11.2,21.813,3,343,-3.48,-0.596,8.983,0
668,35.35,-97.424,11.3,21.913,3,345,-3.259,-0.653,9.123,0
669,35.35,-97.424,10.5,21.821,4,345,-2.921,-0.454,9.241,0
670,35.351,-97.424,9.9,21.881,4,346,-2.948,-0.555,9.232,1
671,35.351,-97.424,9.4,21.841,4,346,-3.087,-0.427,8.868,1
672,35.351,-97.424,7.8,21.23,4,346,-3.08,-0.339,8.646,1
673,35.351,-97.424,7.2,21.2,4,346,-2.979,-0.321,8.651,1
674,35.351,-97.424,7.1,21.44,4,346,-3.078,-0.404,8.904,1
