time,lat,lng,bearing,spd,acc,alt,accx,accy,accz,stable,
0,35.194,-97.423,276.6,9.2911,9,322,1.098,2.363,9.282,0
1,35.194,-97.423,283.9,8.1616,4,321,-0.07,6.059,8.044,0
2,35.194,-97.423,283.4,6.4501,4,318,0.576,1.226,9.769,0
3,35.194,-97.424,288.8,4.972,4,319,0.493,0.992,10.429,0
4,35.194,-97.424,285.2,3.6602,3,318,0.575,1.153,10.014,0
5,35.194,-97.424,285.7,2.0412,3,318,0.326,1.149,9.827,0
6,35.194,-97.424,285.7,2.0412,3,318,-0.901,0.918,9.729,0
7,35.194,-97.424,285.7,2.0412,3,318,-0.821,0.858,9.785,1
8,35.194,-97.424,282.9,0.72732,3,318,-0.845,0.923,9.841,1
9,35.194,-97.424,238.9,1.3336,3,318,-0.824,0.91,9.703,1
10,35.194,-97.424,240.9,0.57009,3,318,-0.866,0.926,9.832,1
11,35.194,-97.424,240.9,0.57009,3,318,-0.81,0.913,9.733,1
12,35.194,-97.424,282.5,1.0302,3,318,-0.866,0.927,9.838,1
13,35.194,-97.424,282.5,1.0302,3,318,-0.824,0.906,9.784,1
14,35.194,-97.424,230.4,0.39661,3,318,-0.843,0.908,9.896,1
15,35.194,-97.424,230.4,0.39661,3,318,-0.822,0.907,9.751,1
17,35.194,-97.424,230.4,0.39661,3,318,-0.843,0.916,9.754,1
18,35.194,-97.424,229.5,0.6265,3,317,-0.84,0.922,9.706,1
19,35.194,-97.424,280.7,1.3983,3,317,-0.823,0.901,9.71,1
20,35.194,-97.424,280.7,2.11,3,317,-0.838,0.903,9.693,1
21,35.194,-97.424,280.1,3.0472,9,318,-0.838,0.896,9.689,1
22,35.194,-97.424,279.9,3.1058,13,318,-0.85,0.909,9.891,1
23,35.194,-97.424,279.9,3.1058,13,318,-0.813,0.898,9.751,1
24,35.194,-97.424,279.6,2.1811,24,319,-0.83,0.901,9.695,1
25,35.194,-97.424,279.4,0.86006,31,318,-1.256,0.826,9.862,1
26,35.194,-97.424,0,0,3,318,-1.034,0.863,9.855,1
27,35.194,-97.424,281.8,0.70178,3,318,-1.111,0.93,9.777,1
28,35.194,-97.424,282.6,0.98005,3,318,-0.713,1.022,9.869,0
29,35.194,-97.424,283,1.12,3,318,-0.972,1.102,9.674,0
30,35.194,-97.424,283,1.12,3,318,-2.712,0.876,9.135,0
31,35.194,-97.424,292.9,2.1723,3,319,-2.276,2.194,8.925,0
32,35.194,-97.424,308.8,2.68,3,319,-2.578,4.051,10.698,0
33,35.194,-97.424,325,5.911,3,319,-3.053,3.31,9.557,0
34,35.194,-97.424,356.4,7.4835,3,319,-2.503,0.062,9.428,0
35,35.195,-97.424,13.2,9.7704,3,319,-2.276,0.292,9.43,0
36,35.195,-97.424,13.5,10.081,3,319,-2.056,0.081,9.658,0
37,35.195,-97.424,13.6,13.86,3,319,-1.688,0.254,9.97,0
38,35.195,-97.424,12.5,15.16,3,320,-1.319,-0.136,9.907,0
39,35.195,-97.424,11.6,16.391,3,320,-1.442,-0.455,9.725,0
40,35.195,-97.424,7.5,17.691,3,320,-1.161,-0.678,9.431,0
41,35.195,-97.424,4,18.961,3,320,-0.371,0.044,10.612,0
42,35.196,-97.424,0.8,20.25,3,321,-0.558,1.262,9.357,0
43,35.196,-97.424,359.7,20.881,3,320,-0.672,1.174,9.293,0
44,35.196,-97.424,359.4,20.701,3,321,-0.614,0.462,9.793,0
45,35.196,-97.424,359.4,20.751,3,321,-0.382,0.346,9.76,0
46,35.196,-97.424,359.3,20.801,3,321,-0.284,-0.02,10.059,0
47,35.197,-97.424,358.3,20.91,3,321,-0.552,0.006,9.728,0
48,35.197,-97.424,357,20.82,3,320,-0.763,0.79,9.895,0
49,35.197,-97.424,356.5,21.08,3,320,-0.995,1.166,9.527,0
51,35.197,-97.424,357.3,21.432,3,320,-0.155,0.883,9.362,0
52,35.197,-97.424,358.3,21.49,3,320,0.142,0.699,9.979,0
53,35.197,-97.424,358.4,21.25,3,320,-0.102,0.841,9.951,0
54,35.198,-97.424,359.2,20.621,3,320,-0.192,0.518,9.712,0
55,35.198,-97.424,358.9,20.16,3,320,-0.422,0.762,9.846,0
56,35.198,-97.424,359.6,19.754,3,321,-0.05,0.676,9.698,0
57,35.198,-97.424,359,19.271,3,322,-0.489,0.346,9.833,0
58,35.199,-97.424,359.3,19.091,3,322,-0.005,0.565,9.77,0
59,35.199,-97.424,358.9,18.9,3,321,-0.353,0.834,9.347,0
60,35.199,-97.424,359.1,18.92,3,322,-0.314,0.722,9.95,0
61,35.199,-97.424,359.3,18.73,3,322,-0.623,0.44,9.576,0
62,35.199,-97.424,359.4,18.85,3,322,-0.547,0.619,9.802,0
63,35.199,-97.424,359.6,19.08,3,322,-0.553,0.583,10.091,0
64,35.2,-97.424,359.7,19.33,3,322,-0.56,0.414,9.72,0
65,35.2,-97.424,359.8,19.47,3,322,-0.136,0.708,9.6,0
66,35.2,-97.424,359.7,19.57,3,322,-0.089,0.612,9.765,0
67,35.2,-97.424,359.6,19.44,3,322,-0.087,0.664,10.082,0
68,35.2,-97.424,359.4,19.31,3,322,-0.175,0.518,9.552,0
69,35.2,-97.424,359.2,19.19,3,322,-0.212,0.815,10.036,0
70,35.201,-97.424,359.3,18.89,3,322,-0.173,0.739,10.028,0
71,35.201,-97.424,359.4,18.73,3,322,-0.159,0.865,9.958,0
72,35.201,-97.424,359.7,18.411,3,323,0.022,0.683,9.474,0
73,35.201,-97.424,359.7,18.2,3,323,-0.002,0.782,9.76,0
74,35.201,-97.424,359.7,17.961,3,324,-0.153,0.778,9.524,0
75,35.201,-97.424,359.6,17.72,3,324,0.067,0.489,9.883,0
76,35.202,-97.424,359.1,17.38,3,324,-0.014,0.879,9.596,0
77,35.202,-97.424,359.1,17.1,3,324,-0.072,1.041,9.886,0
78,35.202,-97.424,0.4,16.75,3,324,-0.068,1.146,10.095,0
79,35.202,-97.424,0.8,16.43,3,324,-0.172,0.635,10.501,0
80,35.202,-97.424,1.4,15.96,3,324,0.037,1.046,9.394,0
81,35.202,-97.424,1.2,15.533,3,323,-0.068,0.542,10.18,0
82,35.202,-97.424,0.9,15.142,3,323,0.215,0.297,10.883,0
83,35.203,-97.424,1,14.811,3,324,1.653,1.324,9.747,0
84,35.203,-97.424,1,14.201,3,325,1.402,1.11,10.25,0
85,35.203,-97.424,359.1,12.91,3,325,0.019,0.525,9.855,0
86,35.203,-97.424,358.3,11.742,4,324,0.169,0.36,9.78,0
88,35.203,-97.424,358,10.452,3,324,0,0.704,10.014,0
89,35.203,-97.424,359.7,9.6723,3,324,1.025,1.074,10.402,0
90,35.203,-97.424,359.2,8.8544,3,324,1.655,1.343,10.21,0
91,35.203,-97.424,358.4,7.6238,3,324,1.123,1.176,9.728,0
92,35.203,-97.424,358.5,6.1221,3,324,1.134,1.202,10,0
93,35.203,-97.424,359.1,4.5704,3,324,0.826,1.099,9.959,0
94,35.203,-97.424,0.1,1.7904,3,325,0.645,1.03,10.017,0
95,35.203,-97.424,0.1,1.7904,3,325,0.249,0.944,9.927,0
96,35.203,-97.424,0.1,1.7904,3,325,-1.615,0.937,10.273,0
97,35.203,-97.424,359.9,1.4837,3,324,-0.768,-0.162,9.69,0
98,35.203,-97.424,359.7,1.763,3,323,-0.772,-0.131,9.727,1
99,35.203,-97.424,359.5,2.0631,3,322,-0.788,-0.127,9.684,1
100,35.203,-97.424,359.4,2.3033,3,322,-0.76,-0.148,9.695,0
101,35.203,-97.424,359.2,2.4958,3,322,-0.766,-0.116,9.704,1
102,35.203,-97.424,359.1,2.6209,4,321,-0.787,-0.126,9.681,1
103,35.203,-97.424,359.1,2.6478,8,321,-0.78,-0.158,9.694,1
104,35.203,-97.424,359.1,2.6478,8,321,-0.769,-0.129,9.653,1
105,35.203,-97.424,359.2,2.6099,9,319,-0.757,-0.116,9.732,1
106,35.203,-97.424,359.2,2.6099,9,319,-0.775,-0.122,9.698,1
107,35.203,-97.424,359.2,2.6099,9,319,-0.765,-0.146,9.735,1
108,35.203,-97.424,359.3,2.547,11,318,-0.78,-0.13,9.724,1
109,35.203,-97.424,359.3,2.547,11,318,-0.768,-0.149,9.711,1
110,35.203,-97.424,359.3,2.547,11,318,-0.773,-0.135,9.716,1
111,35.203,-97.424,359.3,2.547,11,318,-0.786,-0.141,9.699,1
112,35.203,-97.424,359.4,2.4462,15,319,-0.788,-0.144,9.729,1
113,35.203,-97.424,359.4,2.4462,15,319,-0.758,-0.164,9.74,1
114,35.203,-97.424,359.3,2.4005,16,317,-0.776,-0.147,9.646,1
115,35.203,-97.424,359.3,2.4005,16,317,-0.788,-0.149,9.643,1
116,35.203,-97.424,359.3,1.28,12,319,-0.778,-0.146,9.664,1
117,35.203,-97.424,359.4,0.95776,5,320,-0.767,-0.148,9.685,1
118,35.203,-97.424,359.4,0.74518,6,322,-0.78,-0.143,9.658,1
119,35.203,-97.424,359.4,0.35805,6,324,-0.779,-0.124,9.691,1
120,35.203,-97.424,0,0.13,7,326,-0.775,-0.139,9.724,1
121,35.203,-97.424,0,0.13,7,326,-0.773,-0.162,9.677,1
122,35.203,-97.424,0,0.13,7,326,-0.792,-0.133,9.632,1
123,35.203,-97.424,0,0.09,7,326,-0.769,-0.143,9.671,1
124,35.203,-97.424,0,0.09,7,326,-0.772,-0.129,9.638,1
125,35.203,-97.424,0,0.09,7,326,-0.771,-0.123,9.673,1
126,35.203,-97.424,0,0.09,7,326,-0.773,-0.122,9.698,1
128,35.203,-97.424,0,0.09,7,326,-0.779,-0.117,9.733,1
129,35.203,-97.424,0,0.09,7,326,-0.787,-0.128,9.646,1
130,35.203,-97.424,0,0.09,7,326,-0.763,-0.141,9.731,1
131,35.203,-97.424,0,0.09,7,326,-0.799,-0.129,9.654,1
132,35.203,-97.424,0,0.09,7,326,-0.773,-0.153,9.698,1
133,35.203,-97.424,0,0.09,7,326,-0.782,-0.117,9.652,1
134,35.203,-97.424,0,0.09,7,326,-0.764,-0.131,9.64,1
135,35.203,-97.424,0,0.09,7,326,-0.782,-0.125,9.648,1
136,35.203,-97.424,0,0.09,7,326,-0.783,-0.145,9.695,1
137,35.203,-97.424,0,0.09,7,326,-0.79,-0.128,9.661,1
138,35.203,-97.424,0,0.09,7,326,-0.771,-0.131,9.651,1
139,35.203,-97.424,0,0.09,7,326,-0.787,-0.128,9.673,1
140,35.203,-97.424,0,0.09,7,326,-0.776,-0.156,9.723,1
141,35.203,-97.424,0,0.09,7,326,-0.768,-0.127,9.695,1
142,35.203,-97.424,0,0.09,7,326,-0.773,-0.119,9.666,1
143,35.203,-97.424,0,0.09,7,326,-0.775,-0.119,9.665,1
144,35.203,-97.424,0,0.09,7,326,-0.783,-0.137,9.665,1
145,35.203,-97.424,0,0.09,7,326,-0.757,-0.176,9.643,1
146,35.203,-97.424,0,0.02,4,329,-0.774,-0.066,9.693,1
147,35.203,-97.424,0,0.02,4,329,-0.75,-0.189,9.639,1
148,35.203,-97.424,0,0.02,4,329,-0.72,-0.176,9.703,1
149,35.203,-97.424,0,0.02,4,329,-0.75,-0.124,9.715,1
150,35.203,-97.424,0,0.02,4,329,-0.787,-0.105,9.671,1
151,35.203,-97.424,0,0.02,4,329,-1.12,-0.257,9.575,1
152,35.203,-97.424,0,0.02,4,329,-1.06,-0.284,9.654,1
153,35.203,-97.424,0,0.02,4,329,-2.496,-0.799,9.418,1
154,35.203,-97.424,359.7,1.4422,3,328,-2.411,-0.737,9.506,1
155,35.203,-97.424,356.8,2.804,4,329,-2.229,-0.824,9.433,0
156,35.203,-97.424,358.3,4.2034,3,328,-1.995,-0.495,9.494,0
157,35.203,-97.423,358.3,4.964,10,328,-2.043,-0.525,9.71,0
158,35.204,-97.423,359.7,6.3229,14,328,-1.892,-0.416,9.411,0
159,35.204,-97.423,359.5,6.7714,19,328,-1.677,-0.432,9.29,0
160,35.204,-97.423,359.9,8.7613,21,328,-1.216,-0.587,9.078,0
161,35.204,-97.423,359.8,9.724,24,328,-1.628,-0.404,9.449,0
162,35.204,-97.423,359.9,10.685,30,328,-1.028,-0.312,9.118,0
163,35.204,-97.424,0.3,11.361,30,328,-1.17,-0.626,9.815,0
164,35.204,-97.423,359.4,11.685,29,328,-1.363,-0.324,9.375,0
165,35.204,-97.423,359.6,13.299,16,326,-0.778,-0.395,9.593,0
166,35.204,-97.423,357.9,14.29,14,325,-1.21,-0.293,10.445,0
167,35.205,-97.423,354.6,14.853,14,325,-1.189,-0.478,10.096,0
168,35.205,-97.423,352.2,15.597,10,324,-1.188,-0.499,10.237,0
169,35.205,-97.424,351.3,16.601,9,322,-1.36,-0.629,8.808,0
171,35.205,-97.424,358.9,17.648,7,321,-1.024,0.182,9.312,0
172,35.205,-97.424,358.9,18.125,5,320,-0.704,-0.17,9.705,0
173,35.205,-97.424,358.9,18.399,6,321,-0.831,-0.264,9.454,0
174,35.206,-97.424,342.5,18.653,3,320,-1.181,-0.329,9.186,0
175,35.206,-97.424,358.7,18.693,11,319,-0.59,-0.125,10.516,0
176,35.206,-97.424,358.8,18.763,14,319,-1.361,-0.398,10.005,0
177,35.206,-97.424,0,0,30,325,-1.059,-0.119,10.157,0
178,35.206,-97.424,0,0,35,327,-0.926,-0.133,9.595,1
179,35.207,-97.424,0,0,37,327,-0.974,-0.205,9.808,0
180,35.207,-97.424,0.3,19.331,3,328,-0.367,0.06,9.415,0
181,35.207,-97.424,0,19.23,3,329,-0.236,-0.069,9.894,0
182,35.207,-97.424,0.1,18.92,3,328,-0.546,-0.115,9.548,0
183,35.207,-97.424,0.1,18.49,3,329,-0.722,-0.291,9.748,1
184,35.207,-97.424,0.1,18.6,3,327,-0.48,-0.123,9.842,0
185,35.208,-97.424,0.2,18.751,3,327,-0.738,-0.058,9.659,0
186,35.208,-97.424,0.3,18.761,3,327,-0.648,-0.157,9.484,0
187,35.208,-97.424,0.1,18.7,3,327,-0.635,-0.21,9.725,0
188,35.208,-97.424,0.1,18.73,3,326,-0.79,-0.208,9.561,0
189,35.208,-97.424,0.3,18.86,3,326,-0.884,-0.23,9.468,0
190,35.208,-97.424,0.2,19.13,3,326,-0.94,-0.364,9.73,0
191,35.209,-97.424,0.1,19.54,3,326,-0.975,-0.298,9.582,0
192,35.209,-97.424,0.2,19.74,3,326,-0.426,-0.077,9.674,0
193,35.209,-97.424,0.1,20.03,3,327,-0.381,-0.043,9.642,0
194,35.209,-97.424,0,19.85,3,326,-0.288,-0.04,9.954,0
195,35.209,-97.424,359.8,19.652,3,325,-0.3,-0.099,9.61,0
196,35.209,-97.424,359.6,19.372,3,325,-0.316,0.038,10.008,0
197,35.21,-97.424,359.7,18.801,3,325,-0.412,-0.202,9.932,0
198,35.21,-97.424,359.8,18.28,3,325,-0.615,-0.115,9.801,0
199,35.21,-97.424,0.1,18.06,3,326,-0.686,0.037,9.766,0
200,35.21,-97.424,0.5,18.03,3,327,-0.402,0.189,9.876,0
201,35.21,-97.424,0.9,17.79,3,328,-0.495,-0.146,9.813,0
202,35.21,-97.424,1.1,17.53,3,329,-0.271,0.135,9.828,0
203,35.211,-97.424,1.2,17.331,3,329,-0.316,-0.019,9.794,0
204,35.211,-97.424,1,16.97,3,329,-0.291,0.028,9.306,0
205,35.211,-97.424,0.9,16.781,3,329,-0.243,-0.08,9.354,0
206,35.211,-97.424,1.5,16.4,3,325,-0.287,0.037,9.652,0
207,35.211,-97.424,1.5,16.13,3,325,-0.413,0.019,9.901,0
208,35.211,-97.424,1.6,15.67,3,325,-0.242,0.255,9.509,0
209,35.212,-97.424,1.7,15.36,3,326,-0.958,-0.274,9.865,0
210,35.212,-97.424,2,15.26,3,325,-1.095,-0.356,9.536,0
211,35.212,-97.424,1.8,15.471,3,326,-1.12,-0.311,9.515,0
212,35.212,-97.424,1.9,15.82,3,326,-1.012,-0.262,9.49,0
213,35.212,-97.424,1.8,16.19,3,327,-0.531,0.081,9.739,0
214,35.212,-97.424,1.9,16.58,3,327,-0.844,-0.13,9.289,0
215,35.212,-97.424,2.1,16.96,3,327,-1.045,-0.363,9.738,0
216,35.213,-97.424,1.7,17.37,3,327,-0.639,-0.142,9.626,0
218,35.213,-97.424,1.7,18.12,3,329,-0.715,-0.311,9.658,0
219,35.213,-97.424,1.5,18.34,3,329,-0.663,0.106,10.01,0
220,35.213,-97.424,1.2,18.63,3,329,-0.557,-0.096,9.809,0
221,35.213,-97.424,1.3,18.74,4,329,-0.348,-0.129,9.68,0
222,35.213,-97.424,1.3,19.03,3,328,-0.348,-0.243,9.522,0
223,35.214,-97.424,0.8,19.16,3,328,-0.519,-0.069,9.552,0
224,35.214,-97.424,0.6,19.23,3,328,-0.644,-0.295,9.742,0
225,35.214,-97.424,0.3,19.261,4,328,-0.483,-0.307,9.707,0
226,35.214,-97.424,0,19.092,3,328,-0.599,-0.084,9.362,1
227,35.214,-97.424,0.1,18.942,3,328,-0.796,-0.238,9.532,0
228,35.215,-97.424,0.3,18.931,3,328,-0.744,-0.135,9.704,0
229,35.215,-97.424,0,18.94,3,328,-0.647,-0.19,9.482,0
230,35.215,-97.424,0,18.95,3,328,-0.646,-0.272,9.71,1
231,35.215,-97.424,0.1,19.131,3,328,-0.693,-0.094,9.7,0
232,35.215,-97.424,0.3,19.3,3,327,-0.245,0.1,9.498,0
233,35.215,-97.424,0.5,19.15,3,327,-0.406,0.031,9.904,0
234,35.216,-97.424,0.4,19.25,3,327,-0.578,-0.19,9.523,0
235,35.216,-97.424,0.3,19.29,3,327,-0.592,-0.509,10.003,0
236,35.216,-97.424,0,19.37,3,326,-0.584,-0.044,9.744,0
237,35.216,-97.424,359.9,19.36,3,326,-0.329,0.065,9.504,0
238,35.216,-97.424,359.8,19.201,4,327,-0.761,-0.159,9.775,0
239,35.217,-97.424,359.6,19.072,3,327,-0.509,0.141,9.937,0
240,35.217,-97.424,359.7,18.792,4,327,-0.471,0.001,9.627,0
241,35.217,-97.424,0.1,18.491,3,327,-0.364,-0.237,9.551,0
242,35.217,-97.424,0.1,18.202,3,327,0.012,-0.06,9.729,0
243,35.217,-97.424,0.1,17.832,3,327,-0.381,0.169,10.021,0
244,35.217,-97.424,0.2,17.162,3,327,1.705,0.175,10.252,0
245,35.217,-97.424,0.5,15.835,4,328,1.78,0.171,10.163,0
246,35.218,-97.424,346.6,14.717,4,328,1.583,0.887,9.103,0
247,35.218,-97.424,341.5,13.505,5,329,-0.472,-0.238,10.042,0
248,35.218,-97.424,342.4,12.646,12,330,-0.529,0.184,9.431,0
249,35.218,-97.424,344,11.769,17,329,1.217,0.468,9.939,0
250,35.218,-97.424,359.9,11.011,19,329,0.488,0.152,10.033,0
251,35.218,-97.424,0,10.063,21,329,0.193,0.378,9.964,0
252,35.218,-97.424,335.6,8.8365,24,328,0.158,0.223,9.543,0
253,35.218,-97.424,337.8,7.4603,25,328,-0.08,0.321,10.174,0
254,35.218,-97.424,337.8,7.4603,25,328,-0.263,0.198,9.95,0
255,35.218,-97.424,0,2.7758,11,329,0.268,0.32,9.749,0
256,35.218,-97.424,0.2,2.0488,10,329,0.022,0.287,9.771,0
257,35.218,-97.424,54.7,1.9765,8,330,0.004,0.227,9.887,1
258,35.218,-97.424,0.4,2.5416,3,331,-0.76,-0.115,9.8,1
259,35.218,-97.424,0.4,2.9801,5,331,-0.804,-0.087,9.622,1
260,35.218,-97.424,0.4,2.992,4,331,-0.762,-0.14,9.75,1
261,35.218,-97.423,0.4,2.3726,8,330,-0.792,-0.092,9.769,1
262,35.218,-97.423,0.4,1.3019,15,330,-0.77,-0.118,9.717,1
263,35.218,-97.423,0.4,0.16031,22,329,-0.77,-0.118,9.805,1
264,35.218,-97.424,0,0,29,330,-0.783,-0.117,9.569,1
265,35.218,-97.424,0,0,3,330,-0.791,-0.087,9.607,1
266,35.218,-97.424,0,0,3,330,-0.811,-0.063,9.592,1
267,35.218,-97.424,0,0,3,330,-0.794,-0.089,9.722,1
268,35.218,-97.424,0,0,3,330,-0.791,-0.071,9.749,1
269,35.218,-97.424,0,0,3,330,-0.761,-0.124,9.768,1
270,35.218,-97.424,0,0,3,330,-0.772,-0.122,9.773,1
271,35.218,-97.424,0,0,4,331,-0.791,-0.095,9.772,1
272,35.218,-97.424,0,0,4,331,-0.782,-0.105,9.601,1
273,35.218,-97.424,0,0,4,331,-0.788,-0.072,9.787,1
275,35.218,-97.424,0,0,4,331,-0.77,-0.113,9.572,1
276,35.218,-97.424,0,0,4,331,-0.788,-0.106,9.561,1
277,35.218,-97.424,0,0,4,331,-0.791,-0.092,9.74,1
278,35.218,-97.424,0,0,4,331,-0.747,-0.123,9.778,1
279,35.218,-97.424,0,0,4,331,-0.774,-0.089,9.707,1
280,35.218,-97.424,0,0,4,331,-0.749,-0.134,9.784,1
281,35.218,-97.424,0,0,4,331,-0.778,-0.096,9.733,1
282,35.218,-97.424,0,0,4,331,-0.754,-0.137,9.766,1
283,35.218,-97.424,0,0,4,331,-0.771,-0.126,9.729,1
284,35.218,-97.424,0,0,4,331,-0.823,-0.06,9.602,1
285,35.218,-97.424,0,0,4,331,-0.777,-0.1,9.602,1
286,35.218,-97.424,0,0,4,331,-0.82,-0.067,9.598,1
287,35.218,-97.424,0,0,4,331,-0.781,-0.102,9.649,1
288,35.218,-97.424,0,0,4,331,-0.774,-0.101,9.774,1
289,35.218,-97.424,0,0,4,331,-0.811,-0.076,9.62,1
290,35.218,-97.424,0,0,4,331,-0.759,-0.123,9.657,1
291,35.218,-97.424,0,0,4,331,-0.786,-0.094,9.764,1
292,35.218,-97.424,0,0,4,331,-0.791,-0.073,9.738,1
293,35.218,-97.424,0,0,4,331,-0.779,-0.129,9.619,1
294,35.218,-97.424,0,0,4,331,-0.797,-0.059,9.74,1
295,35.218,-97.424,0,0,4,331,-0.793,-0.085,9.75,1
296,35.218,-97.424,0,0,4,331,-0.765,-0.142,9.633,1
297,35.218,-97.424,0,0,4,331,-0.767,-0.108,9.644,1
298,35.218,-97.424,0,0,4,331,-0.797,-0.06,9.722,1
299,35.218,-97.424,0,0,4,331,-0.744,-0.135,9.715,1
300,35.218,-97.424,0,0,4,331,-0.798,-0.056,9.636,1
301,35.218,-97.424,0,0,4,331,-0.802,-0.081,9.662,1
302,35.218,-97.424,0,0,4,331,-0.74,-0.142,9.753,1
303,35.218,-97.424,0,0,4,331,-0.779,-0.1,9.715,1
304,35.218,-97.424,0,0,4,331,-0.815,-0.069,9.608,1
305,35.218,-97.424,0,0,4,331,-0.744,-0.129,9.746,1
306,35.218,-97.424,0,0,4,331,-0.806,-0.075,9.708,1
307,35.218,-97.424,0,0,4,331,-0.81,-0.082,9.674,1
308,35.218,-97.424,0,0,4,331,-0.783,-0.114,9.599,1
309,35.218,-97.424,0,0,4,331,-0.786,-0.103,9.652,1
310,35.218,-97.424,0,0,4,331,-0.797,-0.05,9.743,1
311,35.218,-97.424,0,0,4,331,-0.771,-0.13,9.584,1
312,35.218,-97.424,0,0,4,331,-0.801,-0.05,9.644,1
313,35.218,-97.424,0,0,4,331,-0.808,-0.061,9.727,1
314,35.218,-97.424,0,0,4,331,-0.755,-0.136,9.737,1
315,35.218,-97.424,0,0,4,331,-0.766,-0.129,9.683,1
316,35.218,-97.424,0,0,4,331,-0.814,-0.07,9.592,1
317,35.218,-97.424,0,0,4,331,-0.808,-0.071,9.613,1
318,35.218,-97.424,0,0,4,331,-0.773,-0.126,9.613,1
319,35.218,-97.424,0,0,4,331,-0.769,-0.132,9.603,1
320,35.218,-97.424,0,0,4,331,-0.803,-0.063,9.756,1
321,35.218,-97.424,0,0,4,331,-0.782,-0.124,9.686,1
322,35.218,-97.424,0,0,4,331,-0.761,-0.134,9.59,1
323,35.218,-97.424,0,0,4,331,-0.782,-0.112,9.641,1
324,35.218,-97.424,0,0,4,331,-0.819,-0.036,9.601,1
325,35.218,-97.424,0,0,4,331,-0.779,-0.103,9.685,1
326,35.218,-97.424,0,0,4,331,-0.737,-0.132,9.769,1
327,35.218,-97.424,0,0,4,331,-0.794,-0.097,9.665,1
328,35.218,-97.424,0,0,4,331,-0.763,-0.126,9.652,1
329,35.218,-97.424,0,0,4,331,-0.798,-0.1,9.699,1
331,35.218,-97.424,0,0,4,331,-0.805,-0.106,9.597,1
332,35.218,-97.424,0,0,4,331,-0.761,-0.133,9.668,1
333,35.218,-97.424,0,0,4,331,-0.811,-0.084,9.734,1
334,35.218,-97.424,0,0,4,331,-0.797,-0.08,9.758,1
335,35.218,-97.424,0,0,4,331,-0.758,-0.136,9.585,1
336,35.218,-97.424,0,0,4,331,-0.788,-0.069,9.708,1
337,35.218,-97.424,0,0,4,331,-0.799,-0.066,9.756,1
338,35.218,-97.424,0,0,4,331,-0.788,-0.091,9.699,1
339,35.218,-97.424,0,0,4,331,-0.746,-0.145,9.674,1
340,35.218,-97.424,0,0,4,331,-0.783,-0.115,9.713,1
341,35.218,-97.424,0,0,4,331,-0.819,-0.07,9.646,1
342,35.218,-97.424,0,0,4,331,-0.793,-0.104,9.601,1
343,35.218,-97.424,0,0,4,331,-0.768,-0.142,9.626,1
344,35.218,-97.424,0,0,4,331,-0.962,-0.278,9.845,1
345,35.218,-97.424,0,0,4,331,-2.141,-0.696,9.437,1
346,35.218,-97.424,0.9,1.3603,3,332,-2.353,-0.861,9.397,1
347,35.218,-97.424,1.1,2.7902,3,333,-2.077,-0.645,9.365,0
348,35.218,-97.424,1.3,4.1303,3,333,-1.96,-0.936,9.46,0
349,35.218,-97.424,0.8,5.4105,3,333,-2.099,-0.687,9.584,0
350,35.218,-97.424,0,6.5011,3,333,-2.124,-0.573,9.847,0
351,35.218,-97.424,359.8,7.7503,3,333,-1.708,-0.298,9.448,0
352,35.218,-97.424,359.7,8.91,3,333,-1.601,-0.34,9.563,0
353,35.219,-97.424,0,10.02,3,333,-1.392,-0.37,9.359,0
354,35.219,-97.424,359.9,10.93,3,333,-1.523,-0.544,9.668,0
355,35.219,-97.424,359.7,11.56,3,333,-1.392,-0.54,9.697,0
356,35.219,-97.424,359.9,12.68,3,333,-1.454,-0.427,9.358,0
357,35.219,-97.424,0,13.45,3,333,-1.335,-0.021,9.604,0
358,35.219,-97.424,0.3,13.95,3,333,-1.201,-0.305,9.382,0
359,35.219,-97.424,355.9,14.832,3,331,-1.312,-0.196,9.109,0
360,35.219,-97.424,355.6,15.518,4,330,-0.756,-0.098,9.267,0
361,35.22,-97.424,355.2,16.284,3,330,-1.091,-0.162,9.869,0
362,35.22,-97.424,355.1,16.914,3,329,-1.161,-0.16,10.304,0
363,35.22,-97.424,355.1,17.654,3,328,-0.988,-0.153,9.319,0
364,35.22,-97.424,354.8,18.332,3,328,-0.947,-0.341,8.839,0
365,35.22,-97.424,354.7,18.861,3,327,-0.515,0.179,9.793,0
366,35.22,-97.424,354.6,18.296,4,326,-0.558,-0.271,9.248,0
367,35.22,-97.424,355,18.494,3,325,-0.851,0.001,9.44,0
368,35.221,-97.424,355,18.712,4,328,-0.802,-0.385,9.127,0
369,35.221,-97.424,354.5,19.042,8,327,-0.988,-0.334,9.854,0
370,35.221,-97.424,353.9,19.479,9,326,-0.61,-0.125,9.878,0
371,35.221,-97.424,354.2,19.631,10,326,-0.768,-0.446,9.96,0
372,35.221,-97.424,354.6,19.64,10,326,-0.817,-0.379,9.705,0
373,35.221,-97.424,355,19.598,10,327,-1.183,-0.101,10.524,0
374,35.222,-97.424,355.7,19.494,10,327,-0.741,-0.119,9.858,1
375,35.222,-97.424,356.3,19.315,9,328,-0.272,0.062,10.093,0
376,35.222,-97.424,356.5,19.067,9,327,-0.405,0.013,9.502,0
377,35.222,-97.424,356.6,18.635,8,327,-0.293,-0.032,9.844,0
378,35.222,-97.424,357.4,17.993,9,328,-0.695,-0.138,9.501,0
379,35.222,-97.424,357.4,17.733,8,328,-0.553,-0.028,9.686,0
380,35.223,-97.424,359.2,17.332,3,330,-0.832,-0.178,9.781,0
381,35.223,-97.424,359.5,17.401,4,331,-0.862,-0.12,9.548,1
382,35.223,-97.424,0.8,17.43,3,331,-0.831,-0.15,9.602,0
383,35.223,-97.424,1.3,17.58,3,332,-0.793,-0.309,9.683,0
384,35.223,-97.424,1.3,17.73,3,332,-0.533,-0.418,10.054,0
385,35.223,-97.424,1.1,17.89,3,333,-0.27,-0.041,9.704,0
386,35.224,-97.424,0.6,17.81,4,333,-0.15,-0.137,9.77,0
387,35.224,-97.424,0.6,17.51,3,334,-0.338,-0.02,10.068,0
388,35.224,-97.424,0.6,17.17,3,334,-0.233,-0.106,9.81,0
389,35.224,-97.424,0.6,16.691,3,334,-0.208,0.079,9.72,0
391,35.224,-97.424,0.7,16.221,3,335,-0.159,-0.075,9.443,0
392,35.224,-97.424,0.9,15.701,3,335,-0.251,-0.148,9.688,0
393,35.224,-97.424,0.9,15.221,3,335,1.271,0.639,10.043,0
394,35.225,-97.424,0.6,14.451,3,335,0.698,0.449,9.626,0
395,35.225,-97.424,0.6,13.022,3,335,-0.234,0.2,9.873,0
396,35.225,-97.424,0.5,11.903,3,337,0.963,0.464,9.671,0
397,35.225,-97.424,0.6,10.66,3,336,0.003,0.086,9.947,1
398,35.225,-97.424,0.6,9.3721,3,336,0.648,0.41,10.034,0
399,35.225,-97.424,0.5,6.5311,4,336,0.602,0.391,9.898,0
400,35.225,-97.424,0.4,4.8426,3,336,0.443,0.427,9.767,0
401,35.225,-97.424,0.5,3.7434,3,336,0.137,0.032,9.856,1
402,35.225,-97.424,0.9,2.6043,3,337,0.121,0.214,9.807,0
403,35.225,-97.424,1.1,1.5517,3,337,-0.032,0.074,9.672,0
404,35.225,-97.424,1.1,1.5517,3,337,-0.528,-0.135,9.854,1
405,35.225,-97.424,1.2,0.9904,3,338,-0.66,-0.202,9.69,1
406,35.225,-97.424,1.2,0.9904,3,338,-0.623,-0.217,9.523,1
407,35.225,-97.424,1.2,0.9904,3,338,-0.945,-0.357,9.483,1
408,35.225,-97.424,0.9,1.0834,3,338,-0.898,-0.38,9.666,1
409,35.225,-97.424,0.9,1.0834,3,338,-2.63,-0.993,9.506,1
410,35.225,-97.424,0.7,1.2657,3,338,-0.822,-0.332,9.62,1
411,35.225,-97.424,0.7,1.2657,3,338,-0.754,-0.247,9.676,1
412,35.225,-97.424,0.5,0.52,3,337,-2.582,-0.923,9.376,1
413,35.225,-97.424,0.3,1.67,3,337,-2.091,-0.804,9.582,1
414,35.225,-97.424,0.3,2.5301,3,337,-1.678,-0.765,9.643,1
415,35.225,-97.424,0.5,3.6001,3,338,-1.133,-0.43,9.799,1
416,35.225,-97.424,0.4,4.63,7,338,-1.174,-0.47,9.495,0
417,35.225,-97.424,0.3,5.0003,9,338,-1.256,-0.39,9.428,0
418,35.226,-97.424,0.2,5.9207,10,337,-1.674,-0.563,9.575,1
419,35.226,-97.424,0.1,8.3329,4,337,-1.654,-0.754,9.561,0
420,35.226,-97.424,1.2,10.29,3,338,-1.695,-0.493,9.534,1
421,35.226,-97.424,0.9,11.31,4,338,-1.551,-0.807,9.382,1
422,35.226,-97.424,0.9,12.56,3,339,-1.547,-0.639,9.193,0
423,35.226,-97.424,0.4,13.691,3,338,-0.676,-0.09,9.562,0
424,35.226,-97.424,0,14.371,3,338,-1.009,-0.399,9.619,0
425,35.226,-97.424,359.7,15.151,3,338,-1.055,-0.493,9.619,1
426,35.227,-97.424,359.3,15.952,4,338,-0.608,-0.155,9.618,1
427,35.227,-97.424,359.1,16.543,3,338,-0.75,-0.213,9.507,0
428,35.227,-97.424,359.3,17.143,4,337,-1.121,-0.433,9.469,0
429,35.227,-97.424,359.2,17.674,4,337,-1.119,-0.364,9.585,1
430,35.227,-97.424,359.2,18.264,4,336,-1.122,-0.286,9.395,0
431,35.227,-97.424,359.4,17.492,3,337,-1.262,-0.282,9.463,0
432,35.227,-97.424,359.9,17.672,3,337,-0.957,-0.295,9.659,0
433,35.228,-97.424,0,18.031,3,337,-0.992,-0.307,9.284,0
434,35.228,-97.424,0.1,18.291,3,337,-0.974,-0.476,9.55,0
435,35.228,-97.424,0.1,18.581,3,337,-0.519,-0.22,9.434,0
436,35.228,-97.424,359.8,18.78,3,337,-0.56,-0.281,9.834,0
437,35.228,-97.424,359.7,18.911,3,337,-0.582,-0.207,9.828,0
438,35.228,-97.424,359.6,18.81,3,337,-0.612,0.032,9.751,0
439,35.229,-97.424,359.7,18.7,4,337,-0.299,-0.019,9.85,0
440,35.229,-97.424,359.9,18.47,3,338,-0.666,-0.195,9.634,0
441,35.229,-97.424,359.9,18.36,3,338,-0.254,0.025,9.539,0
442,35.229,-97.424,0.4,18.06,3,339,-0.74,0.058,9.544,0
443,35.229,-97.424,0.7,17.84,3,339,-0.699,-0.091,9.605,0
444,35.229,-97.424,0.7,17.75,3,339,-0.732,-0.058,9.545,0
445,35.23,-97.424,0.7,17.73,3,340,-0.531,-0.137,9.841,0
446,35.23,-97.424,0.9,17.7,4,339,-0.378,-0.014,9.371,0
447,35.23,-97.424,0.9,17.63,3,339,-0.35,-0.096,9.845,0
449,35.23,-97.424,0.8,17.37,3,339,-0.688,-0.226,9.687,0
450,35.23,-97.424,0.9,17.12,3,339,-0.643,-0.23,9.666,0
451,35.23,-97.424,0.9,17.021,3,340,-0.738,-0.038,10.072,0
452,35.23,-97.424,0.8,16.97,3,340,-0.647,-0.043,9.555,1
453,35.231,-97.424,0.8,16.98,3,340,-0.69,0.022,9.737,0
454,35.231,-97.424,0.8,16.97,3,340,-0.576,-0.108,9.533,1
455,35.231,-97.424,0.9,16.82,3,340,-0.759,-0.226,9.263,0
456,35.231,-97.424,0.7,16.96,3,340,-0.682,-0.182,9.283,0
457,35.231,-97.423,1,17.011,3,340,-0.887,0.105,10.047,0
458,35.231,-97.423,2,17,3,340,-0.342,-0.978,7.651,0
459,35.232,-97.423,1.8,17.86,4,340,-0.263,-0.312,10.142,0
460,35.232,-97.423,1.3,17.901,3,341,-0.254,-0.532,9.887,0
461,35.232,-97.423,1,17.693,4,341,-0.541,-0.314,9.362,0
462,35.232,-97.423,0.9,17.563,3,341,-0.531,-0.359,9.491,0
463,35.232,-97.423,0.9,17.593,3,341,-0.676,-0.318,8.68,0
464,35.233,-97.423,0.7,17.602,3,342,-0.975,0.029,10.166,0
465,35.233,-97.423,0.6,17.702,3,342,-0.712,-0.215,9.032,0
466,35.233,-97.423,0.5,17.75,4,342,-0.948,-0.166,10.406,0
467,35.233,-97.423,0.5,17.79,3,342,-0.862,-0.362,10.157,0
468,35.233,-97.423,0.5,17.94,3,342,-0.727,-0.36,9.584,0
469,35.233,-97.423,0.3,18.13,3,342,-0.682,-0.123,9.315,0
470,35.233,-97.423,0.1,18.31,3,342,-1.289,-0.641,9.773,0
471,35.234,-97.423,359.9,18.81,3,343,-1.078,-0.559,9.628,0
472,35.234,-97.423,359.8,19.28,3,343,-0.697,-0.047,8.72,0
473,35.234,-97.423,359.3,19.93,3,343,-0.67,-0.39,9.655,1
474,35.234,-97.423,358.5,20.2,3,343,-0.863,-0.655,9.755,0
475,35.234,-97.423,358.3,20.511,3,343,-0.827,-0.181,9.909,0
476,35.235,-97.423,358.5,20.85,3,344,-0.259,-0.05,9.856,0
477,35.235,-97.423,358.2,20.82,3,344,-0.326,0.131,9.251,0
478,35.235,-97.424,358,20.81,3,344,-0.477,0.013,10.048,0
479,35.235,-97.424,357.8,20.75,4,343,-0.299,-0.101,10.296,0
480,35.235,-97.424,358.2,20.54,3,343,-0.389,0.176,9.81,0
481,35.235,-97.424,358.3,20.29,3,343,-0.58,-0.012,9.759,0
482,35.236,-97.424,358.6,20.09,3,342,-0.269,0.104,9.869,0
483,35.236,-97.424,358.8,19.88,3,342,-0.752,-0.076,9.858,0
484,35.236,-97.424,359.2,19.69,3,342,-0.474,-0.181,9.636,0
485,35.236,-97.424,359.3,19.67,3,342,-0.603,-0.156,9.535,0
486,35.236,-97.424,359.4,19.73,4,342,-0.482,-0.046,9.552,0
487,35.237,-97.424,359.4,19.77,3,342,-0.416,-0.054,9.621,0
488,35.237,-97.424,359.4,19.66,3,342,-0.467,-0.156,9.65,0
489,35.237,-97.424,359.5,19.51,3,342,-0.527,0.014,9.255,0
490,35.237,-97.424,359.4,19.36,3,342,-0.517,-0.088,9.713,0
491,35.237,-97.424,359.4,19.16,3,343,-0.887,-0.196,9.563,0
492,35.237,-97.424,359.5,19.271,3,343,-1.181,-0.344,10.024,0
493,35.238,-97.424,359.7,19.481,3,343,-1.246,-0.252,9.72,0
494,35.238,-97.424,0.2,19.761,3,343,-1.061,-0.307,9.224,0
495,35.238,-97.424,0.2,20.15,3,344,-1.042,-0.507,9.721,0
496,35.238,-97.424,0.1,20.59,3,343,-0.754,-0.343,9.539,0
497,35.238,-97.424,359.9,20.98,3,343,-0.812,-0.23,9.993,0
498,35.239,-97.424,359.6,21.22,3,343,-0.393,0.029,9.689,0
499,35.239,-97.424,359.6,21.311,4,343,-0.244,-0.018,9.916,0
500,35.239,-97.424,359.4,21.121,3,343,-0.572,-0.082,9.387,0
501,35.239,-97.424,359.1,21.022,4,344,-0.643,-0.126,9.847,0
502,35.239,-97.424,359.1,20.881,3,344,-0.78,-0.104,9.584,0
503,35.239,-97.424,359.1,20.752,3,344,-0.787,-0.11,9.826,0
504,35.24,-97.424,359.4,20.422,3,345,-0.919,-0.176,9.797,0
505,35.24,-97.424,359.4,20.422,3,345,-0.767,-0.335,9.573,0
506,35.24,-97.424,359.4,20.512,4,345,-0.8,-0.155,9.639,0
507,35.24,-97.424,359.4,20.612,3,346,-0.744,-0.157,9.559,1
508,35.24,-97.424,359.4,20.731,3,346,-0.768,-0.223,9.874,0
509,35.241,-97.424,359.3,20.921,3,346,-0.766,0.02,9.524,0
510,35.241,-97.424,359.3,21.03,3,347,-0.732,-0.177,10.222,0
511,35.241,-97.424,359.5,21.12,3,347,-0.575,0.127,9.716,0
512,35.241,-97.424,359.5,21.25,3,347,-0.172,0.15,9.624,0
513,35.241,-97.424,359.7,21.12,3,346,-0.517,-0.047,9.663,0
514,35.242,-97.424,359.8,21.061,3,346,-0.304,0.137,9.941,0
516,35.242,-97.424,359.7,20.831,3,346,-0.204,0.126,9.34,0
517,35.242,-97.424,359.9,20.652,3,346,-0.242,0.039,9.487,0
518,35.242,-97.424,359.7,20.603,3,345,-0.524,-0.218,9.658,0
519,35.242,-97.424,359.5,20.533,3,345,-0.728,-0.222,9.727,1
520,35.242,-97.424,359.3,20.794,3,345,-0.757,0.024,9.904,0
521,35.243,-97.424,359.5,20.985,4,344,-0.491,0.134,10.01,0
522,35.243,-97.424,0.2,21.132,3,343,-0.326,0.052,9.853,0
523,35.243,-97.424,0.2,21.241,3,343,-0.487,0.267,9.603,0
524,35.243,-97.424,0.5,21.19,3,343,-0.842,0.222,9.402,0
525,35.244,-97.424,0.9,21.24,3,343,-0.912,0.123,10.027,0
526,35.244,-97.424,1.3,21.421,4,343,-0.808,-0.097,10.233,0
527,35.244,-97.424,1.2,21.611,3,343,-0.568,-0.11,9.231,0
528,35.244,-97.424,1.1,21.651,3,342,-0.621,-0.08,9.912,0
529,35.244,-97.424,1.2,21.61,3,342,-0.56,0.142,10.037,0
530,35.245,-97.424,1.5,21.45,3,342,-0.628,0.068,10.139,0
531,35.245,-97.424,1.9,21.271,3,342,-0.596,-0.259,9.844,0
532,35.245,-97.424,1.9,21.265,3,342,-0.785,-0.113,9.54,0
533,35.245,-97.424,2,21.158,3,343,-0.388,0.104,9.643,0
534,35.245,-97.424,2.2,20.851,3,343,-0.296,0.072,9.61,0
535,35.246,-97.424,2.3,20.435,3,344,-0.203,-0.016,9.781,0
536,35.246,-97.424,2.1,20.063,3,344,-0.278,-0.109,9.479,1
537,35.246,-97.423,1.8,19.701,3,344,0.313,0.234,9.444,0
538,35.246,-97.423,1.7,18.621,3,344,0.102,0.241,9.331,0
539,35.246,-97.423,2,18.02,4,344,1.365,0.874,9.985,0
540,35.246,-97.423,2.6,16.67,3,344,-0.206,0.168,9.556,0
541,35.246,-97.423,2.5,15.051,4,345,-0.161,-0.224,9.568,1
542,35.247,-97.423,1.6,13.83,3,344,1.328,0.379,9.882,0
543,35.247,-97.423,0.4,12.59,3,344,0.955,0.511,9.684,0
544,35.247,-97.423,359.7,11.13,3,344,1.374,0.723,10.006,0
545,35.247,-97.423,359.4,9.55,3,344,1.336,0.58,9.871,0
546,35.247,-97.423,359,7.8603,4,344,1.338,0.682,9.939,0
547,35.247,-97.423,358.8,6.1214,3,344,1.564,0.809,10.047,0
548,35.247,-97.423,358.8,4.2138,4,344,0.555,0.481,9.865,0
549,35.247,-97.423,359,2.9283,3,344,0.833,0.516,10.019,0
550,35.247,-97.423,359.2,1.8668,3,344,0.419,0.315,9.953,0
551,35.247,-97.423,359.2,1.8668,3,344,0.263,0.332,9.822,1
552,35.247,-97.423,359.2,1.8668,3,344,-0.273,0.118,9.746,1
553,35.247,-97.423,358.9,1.771,4,346,-0.294,0.092,9.659,1
554,35.247,-97.423,46.5,2.3655,3,346,-0.269,0.089,9.654,1
555,35.247,-97.423,359.6,2.8756,3,346,-0.257,0.065,9.748,1
556,35.247,-97.423,359.6,3.1016,9,346,-0.252,0.084,9.675,1
557,35.247,-97.423,359.6,3.081,14,346,-0.238,0.061,9.748,1
558,35.247,-97.423,359.6,3.081,14,346,-0.258,0.071,9.837,1
559,35.247,-97.423,359.6,2.45,26,346,-0.263,0.075,9.861,1
560,35.247,-97.423,359.6,2.2,30,346,-0.258,0.096,9.775,1
561,35.247,-97.423,359.6,1.97,35,347,-0.281,0.075,9.695,1
562,35.247,-97.423,0,0,3,347,-0.288,0.095,9.792,1
563,35.247,-97.423,0,0,3,347,-0.238,0.048,9.852,1
564,35.247,-97.423,0,0,3,347,-0.277,0.085,9.7,1
565,35.247,-97.423,0,0,3,347,-0.293,0.102,9.631,1
566,35.247,-97.423,0,0,3,347,-0.228,0.037,9.822,1
567,35.247,-97.423,0,0,3,347,-0.283,0.088,9.65,1
568,35.247,-97.423,0,0,3,347,-0.257,0.059,9.658,1
569,35.247,-97.423,0,0,3,347,-0.266,0.072,9.864,1
570,35.247,-97.423,0,0,3,347,-0.251,0.08,9.748,1
571,35.247,-97.423,0,0,3,347,-0.278,0.059,9.629,1
572,35.247,-97.423,0,0,3,347,-0.284,0.093,9.812,1
573,35.247,-97.423,0,0,3,347,-0.239,0.059,9.758,1
574,35.247,-97.423,0,0,3,347,-0.304,0.1,9.66,1
575,35.247,-97.423,0,0,3,347,-0.238,0.051,9.775,1
576,35.247,-97.423,0,0,3,347,-0.252,0.06,9.854,1
577,35.247,-97.423,0,0,3,347,-0.294,0.089,9.619,1
579,35.247,-97.423,0,0,3,347,-0.241,0.024,9.853,1
580,35.247,-97.423,0,0,3,347,-0.283,0.082,9.792,1
581,35.247,-97.423,0,0,3,347,-0.836,-0.25,9.563,1
582,35.247,-97.423,0,0,3,347,-1.2,-0.36,9.48,1
583,35.247,-97.423,0,0,3,347,-2.666,-0.904,9.4,0
584,35.247,-97.423,359.3,3.7016,3,347,-2.534,-0.829,9.417,1
585,35.247,-97.423,359,6.0579,3,346,-2.368,-0.731,9.512,1
586,35.247,-97.423,358.8,8.4553,3,345,-1.549,-0.541,9.627,0
587,35.247,-97.423,358.8,8.4553,3,345,-1.98,-0.814,9.525,0
588,35.247,-97.423,358.4,11.885,3,344,-1.826,-0.778,9.559,0
589,35.248,-97.423,358.2,13.713,3,343,-1.759,-0.494,9.548,0
590,35.248,-97.423,358.1,15.472,3,343,-1.135,-0.383,9.837,0
591,35.248,-97.423,357.8,16.723,3,342,-1.188,-0.767,9.686,0
592,35.248,-97.423,356.7,17.801,3,341,-1.164,-0.644,9.668,0
593,35.248,-97.424,355.9,18.58,3,341,-1.438,-0.182,9.793,0
594,35.248,-97.424,355.8,19.49,3,340,-1.392,-0.128,9.812,0
595,35.249,-97.424,356.3,20.15,3,341,-1.23,-0.025,10.048,0
596,35.249,-97.424,357.3,20.621,3,342,-1.171,-0.188,9.645,0
597,35.249,-97.424,357.8,20.882,3,342,-1.174,-0.276,9.465,0
598,35.249,-97.424,357.7,21.093,3,343,-1.063,-0.348,9.199,0
599,35.249,-97.424,357.8,21.313,3,343,-1.343,-0.032,8.939,0
600,35.25,-97.424,358.1,21.651,3,343,-0.535,0.153,9.509,0
601,35.25,-97.424,358.4,22.121,3,344,-0.895,-0.068,9.497,0
602,35.25,-97.424,358.6,22.24,3,344,-0.431,-0.025,9.853,0
603,35.25,-97.424,359,22.26,3,343,-0.724,-0.134,9.769,0
604,35.25,-97.424,359.3,22.241,3,343,-0.632,-0.238,9.539,0
605,35.251,-97.424,359.2,22.471,3,342,-0.287,-0.008,10.017,0
606,35.251,-97.424,359.4,22.75,3,343,-0.181,-0.156,10.26,0
607,35.251,-97.424,359.4,22.75,3,343,-0.604,-0.46,10.531,0
608,35.251,-97.424,359.5,22.42,3,342,-0.632,-0.15,9.945,0
609,35.251,-97.424,359.6,22.68,3,341,-0.28,-0.179,10.163,0
610,35.252,-97.424,359.6,22.491,3,341,-0.714,-0.127,9.726,0
611,35.252,-97.424,359.4,22.03,3,341,-0.659,0.102,9.88,0
612,35.252,-97.424,359.5,21.821,3,341,-0.42,0.081,10.017,0
613,35.252,-97.424,359.9,21.388,3,342,-0.384,0.067,10.114,0
614,35.252,-97.424,0.2,20.564,3,342,-0.338,0.21,10.102,0
615,35.252,-97.424,0.6,19.793,3,343,-0.278,0.095,9.67,0
616,35.253,-97.424,0.9,19.107,3,343,0.467,0.198,10.064,0
617,35.253,-97.424,0.9,18.223,3,343,0.647,0.574,9.583,0
618,35.253,-97.424,0.8,16.956,3,343,-0.211,-0.08,9.365,0
619,35.253,-97.424,1,15.444,3,342,-0.814,-0.337,9.351,0
620,35.253,-97.424,1.2,14.772,3,342,-0.841,-0.416,9.442,1
621,35.253,-97.424,0.9,14.531,3,342,-0.954,-0.274,9.849,0
622,35.253,-97.424,0.5,14.521,3,343,-0.243,-0.064,9.479,0
623,35.254,-97.424,0.1,14.511,3,343,-0.724,-0.07,9.584,0
624,35.254,-97.424,359.9,14.223,3,344,-0.21,-0.021,9.393,1
625,35.254,-97.424,359.9,13.801,3,344,-0.889,-0.1,9.958,1
626,35.254,-97.424,0,13.744,3,344,-0.593,-0.19,9.606,1
627,35.254,-97.424,0,13.692,3,345,-0.797,-0.222,9.556,0
628,35.254,-97.424,359.8,13.771,3,345,-0.896,-0.147,9.376,1
629,35.254,-97.424,359.7,13.82,3,345,-1.077,-0.078,9.57,0
630,35.254,-97.424,359.5,13.99,3,346,-1.344,-0.347,9.734,0
631,35.255,-97.424,359.5,14.5,3,346,-1.404,-0.274,9.417,0
632,35.255,-97.424,359.4,15.34,3,346,-1.273,-0.525,9.51,1
633,35.255,-97.424,359.3,16.23,3,346,-1.26,-0.329,9.071,0
634,35.255,-97.424,358.9,17.15,3,346,-1.258,-0.416,9.495,1
635,35.255,-97.424,358.6,18.111,3,346,-1.215,-0.252,9.308,1
636,35.255,-97.424,358.5,19.091,3,346,-1.254,-0.262,9.462,0
638,35.256,-97.424,358.5,20.241,3,346,-0.506,0.131,10.038,0
639,35.256,-97.424,358.7,21.131,3,345,-0.635,0.036,9.145,0
640,35.256,-97.424,359.2,21.641,3,345,-0.77,-0.245,10.747,0
641,35.256,-97.424,359.5,21.99,3,344,-0.317,0.13,10.025,0
642,35.257,-97.424,359.5,22.075,3,343,-0.31,0.409,10,0
643,35.257,-97.424,359.4,22.214,3,342,-0.138,0.087,10.152,0
644,35.257,-97.424,359.3,22.372,3,342,-0.594,-0.079,9.765,0
645,35.257,-97.424,359.4,22.634,3,341,-0.338,0.313,9.977,0
646,35.257,-97.424,359.8,22.684,3,339,-0.18,0.088,9.838,0
647,35.258,-97.424,359.8,22.505,3,338,-0.131,-0.017,9.669,0
648,35.258,-97.424,359.6,22.416,3,337,0.004,-0.181,9.493,0
649,35.258,-97.424,359.3,22.611,3,337,-0.107,0.024,9.866,0
650,35.258,-97.424,359.2,22.336,3,336,-0.311,0.111,9.612,0
651,35.258,-97.424,359.2,22.307,3,334,-0.268,0.068,9.789,0
652,35.259,-97.424,359.3,22.427,3,333,-0.223,0.1,9.77,0
