time,lat,lng,bearing,spd,acc,alt,accx,accy,accz,stable,
0,35.209,-97.44,0,0,3,327,0.525,0.644,9.848,1
1,35.209,-97.44,0,0,3,327,0.546,0.642,9.883,1
2,35.209,-97.44,0,0,3,327,0.6,0.628,9.869,1
3,35.209,-97.44,0,0,3,327,0.571,0.671,9.891,1
4,35.209,-97.44,0,0,3,327,0.548,0.659,9.892,0
5,35.209,-97.44,0,0,3,327,0.57,0.627,9.899,0
6,35.209,-97.44,0,0,3,327,0.828,0.702,9.906,0
7,35.209,-97.44,0,0,3,327,0.707,0.653,9.817,1
8,35.209,-97.44,0,0,3,327,0.865,0.652,9.768,0
9,35.209,-97.44,0,0,3,327,0.567,0.5,9.937,0
10,35.209,-97.44,24.3,0.75107,3,328,0.808,0.514,9.715,0
11,35.209,-97.44,24.3,0.75107,3,328,0.745,0.738,9.866,0
12,35.209,-97.44,5.1,0.86052,3,328,0.732,0.656,9.836,0
13,35.209,-97.44,5.1,0.90934,3,328,0.237,0.876,9.839,0
14,35.209,-97.44,5.2,0.85,3,328,0.961,0.636,9.848,0
15,35.209,-97.44,5.2,0.85,3,328,-0.151,-0.081,9.819,0
16,35.209,-97.44,5.2,0.85,3,328,-0.289,-1.072,9.698,1
17,35.209,-97.44,5.2,0.85,3,328,-0.125,-0.398,9.441,0
18,35.209,-97.44,106.8,3.23,3,328,0.357,0.413,9.944,0
19,35.209,-97.44,99.4,4.5104,3,328,0.257,0.302,9.92,0
20,35.209,-97.44,88.3,5.5406,3,328,0.045,0.243,9.739,0
21,35.209,-97.44,86.9,6.6015,3,328,0.761,0.623,9.948,0
22,35.209,-97.44,87.6,7.5113,3,328,0.721,0.374,9.658,0
23,35.209,-97.44,88.1,7.7409,3,328,1.318,0.77,10.533,0
24,35.209,-97.44,88.3,7.7806,3,328,1.315,0.968,10.249,0
25,35.209,-97.44,89.2,7.6004,3,327,1.231,0.757,9.55,0
26,35.209,-97.44,90.3,7.23,3,328,1.12,0.863,9.664,0
28,35.209,-97.44,90.4,6.8901,3,328,0.975,0.779,10.253,0
28,35.209,-97.44,90.4,6.8901,3,328,0.975,0.779,10.253,0
29,35.209,-97.44,89.5,6.5601,3,328,0.783,1.02,10.216,0
30,35.209,-97.439,90.3,6.4201,3,327,0.79,0.894,9.751,0
31,35.209,-97.439,89.7,6.31,3,327,0.47,1.487,8.984,0
32,35.209,-97.439,90.7,6.1402,3,327,0.726,1.366,9.929,0
33,35.209,-97.439,92.9,6.0033,3,326,0.754,1.108,10.246,0
34,35.209,-97.439,92.8,5.8901,3,326,2.01,-0.827,10.07,0
35,35.209,-97.439,83.5,5.3416,3,326,2.265,-2.186,10.289,0
36,35.209,-97.439,61.5,5.15,3,326,1.615,-1.369,10.266,0
37,35.209,-97.439,30.1,4.904,3,327,1.435,-1.275,10.101,0
38,35.209,-97.439,10.5,4.9773,3,326,0.732,-0.952,9.996,0
39,35.209,-97.439,353.8,4.6403,3,326,1.272,-1.843,9.354,0
40,35.21,-97.439,327,4.4119,3,327,1.527,-1.532,9.905,0
41,35.21,-97.439,305.8,4.2002,3,327,0.886,-0.671,9.226,0
42,35.21,-97.439,274.1,4.2826,3,327,-0.048,0.321,9.341,0
43,35.21,-97.439,265.8,4.4,3,327,0.05,0.318,9.568,0
44,35.21,-97.439,264.4,4.4805,3,327,0.17,-0.084,9.728,0
45,35.21,-97.439,260,4.5705,3,327,0.257,2.594,9.587,0
46,35.21,-97.439,267.6,4.1502,3,327,0.294,2.672,10.169,0
47,35.21,-97.439,296.9,3.5607,3,327,0.421,1.115,9.651,0
48,35.21,-97.439,329.7,3.1208,3,327,0.416,1.381,9.351,0
49,35.21,-97.439,351.4,2.37,3,327,0.991,0.533,9.786,0
50,35.21,-97.439,352,1.7601,3,327,0.844,0.474,9.733,0
51,35.21,-97.439,358.9,0.7433,3,326,-0.225,0.066,9.811,1
52,35.21,-97.439,358.9,0.7433,3,326,-0.984,0.152,9.751,1
53,35.21,-97.439,359.6,1.12,3,326,-0.94,0.516,10.11,0
54,35.21,-97.439,20.8,2.2042,3,326,-0.659,1.015,9.811,0
55,35.21,-97.439,31.1,2.9723,3,326,-1.28,0.915,9.936,0
56,35.21,-97.439,49.5,3.5207,3,326,-0.399,-0.33,10.039,0
57,35.21,-97.439,68.2,4.35,3,326,-0.387,-0.281,9.612,0
58,35.21,-97.439,89.3,6.27,3,326,1.111,-0.391,9.761,0
59,35.21,-97.439,90.2,6.73,3,326,2.161,0.305,10.158,0
60,35.21,-97.439,89.3,6.2102,3,326,3.365,0.884,9.713,0
61,35.21,-97.439,88.7,4.7207,3,326,1.788,0.03,9.766,0
62,35.21,-97.439,91.3,2.1704,3,326,1.495,0.043,9.8,1
63,35.21,-97.439,91.3,2.1704,3,326,0.408,-0.377,9.741,1
64,35.21,-97.439,91.3,0.2,3,325,0.603,-0.245,9.688,1
65,35.21,-97.439,91.3,0.2,3,325,0.728,-0.245,9.788,1
66,35.21,-97.439,91.3,0.2,3,325,-0.247,-0.59,9.713,1
67,35.21,-97.439,91.3,0.2,3,325,-1.245,-1.119,9.634,1
68,35.21,-97.439,91.3,1.1017,3,325,0.223,-2.478,9.332,0
69,35.21,-97.439,84.3,2.9211,3,324,0.532,-1.697,9.57,0
71,35.21,-97.439,57.8,4.8181,3,325,0.347,-2.427,9.793,0
71,35.21,-97.439,57.8,4.8181,3,325,0.347,-2.427,9.793,0
72,35.21,-97.439,14,6.9605,3,326,-0.018,-1.55,9.656,0
73,35.21,-97.439,2.7,8.081,3,326,-0.774,-0.498,9.862,0
74,35.21,-97.439,0.9,9.2302,3,326,0.122,-0.061,10.042,0
75,35.21,-97.439,1.1,10.16,3,326,0.399,0.244,9.506,0
76,35.21,-97.439,0.7,10.28,3,326,0.598,0.092,9.297,0
77,35.21,-97.439,0.6,10.15,3,325,0.842,-0.036,9.628,0
78,35.21,-97.439,0.3,9.9001,3,326,0.997,0.132,9.679,0
79,35.21,-97.439,359.9,9.53,3,325,0.809,0.01,9.694,0
80,35.211,-97.439,359.7,9.2207,3,326,1.006,-0.222,10.124,0
81,35.211,-97.439,0.3,8.8701,3,326,0.76,0.196,9.584,0
82,35.211,-97.439,0.1,8.5701,3,326,0.682,0.071,9.319,0
83,35.211,-97.439,0.4,8.27,3,326,0.989,0.418,8.673,0
84,35.211,-97.439,0.8,7.7802,3,326,1.425,0.924,9.644,0
85,35.211,-97.439,0.6,6.87,3,326,2.051,0.39,9.973,0
86,35.211,-97.439,0.4,5.38,3,326,2.393,0.518,10.212,0
87,35.211,-97.439,1.1,3.61,3,326,1.404,-0.07,9.698,0
88,35.211,-97.439,1.4,2.1901,3,326,1.298,0.257,9.737,0
89,35.211,-97.439,1.4,1.37,3,326,0.934,0.286,9.776,0
90,35.211,-97.439,1.4,1.37,3,326,0.329,0.076,9.795,1
91,35.211,-97.439,1.4,1.37,3,326,0.582,0.187,9.875,1
92,35.211,-97.439,1.4,1.37,3,326,0.441,0.142,9.822,1
93,35.211,-97.439,1.4,1.37,3,326,0.088,0.023,9.74,1
94,35.211,-97.439,1.4,1.37,3,326,0.041,0.068,9.708,1
95,35.211,-97.439,1.3,0.6,3,326,0.775,0.317,9.768,1
96,35.211,-97.439,1.3,0.6,3,326,1.16,0.464,9.798,0
97,35.211,-97.439,1.3,0.6,3,326,0.471,0.236,9.684,1
98,35.211,-97.439,1.3,0.6,3,326,0.521,0.258,9.806,1
99,35.211,-97.439,1.3,0.6,3,326,0.56,0.243,9.868,1
100,35.211,-97.439,1.3,0.6,3,326,0.517,0.246,9.806,1
101,35.211,-97.439,1.3,0.6,3,326,0.51,0.262,9.737,1
102,35.211,-97.439,1.3,0.6,3,326,0.552,0.25,9.864,1
103,35.211,-97.439,1.3,0.6,3,326,0.515,0.243,9.837,1
104,35.211,-97.439,1.3,0.6,3,326,0.531,0.264,9.737,1
105,35.211,-97.439,1.3,0.6,3,326,0.555,0.237,9.837,1
106,35.211,-97.439,0,0,3,327,0.54,0.237,9.886,1
107,35.211,-97.439,0,0,3,327,0.497,0.263,9.724,1
108,35.211,-97.439,0,0,3,327,0.551,0.256,9.819,1
109,35.211,-97.439,0,0,3,327,0.534,0.259,9.87,1
110,35.211,-97.439,0,0,3,327,0.51,0.244,9.833,1
111,35.211,-97.439,0,0,3,327,0.491,0.247,9.709,1
112,35.211,-97.439,0,0,3,327,0.567,0.253,9.894,1
113,35.211,-97.439,0,0,3,327,0.553,0.251,9.885,1
114,35.211,-97.439,0,0,3,327,0.501,0.282,9.702,1
115,35.211,-97.439,0,0,3,327,0.514,0.227,9.892,1
116,35.211,-97.439,0,0,3,327,0.512,0.238,9.819,1
117,35.211,-97.439,0,0,3,327,0.505,0.255,9.67,1
118,35.211,-97.439,0,0,3,327,0.557,0.266,9.878,1
119,35.211,-97.439,0,0,3,327,0.487,0.257,9.703,1
120,35.211,-97.439,0,0,3,327,0.532,0.239,9.81,1
121,35.211,-97.439,0,0,3,327,0.54,0.243,9.917,1
122,35.211,-97.439,0,0,3,327,0.507,0.25,9.758,1
123,35.211,-97.439,0,0,3,327,0.502,0.252,9.677,1
124,35.211,-97.439,0,0,3,327,0.485,0.264,9.7,1
125,35.211,-97.439,0,0,3,327,0.104,0.099,9.745,1
127,35.211,-97.439,0,0,3,327,-1.328,-0.338,9.672,1
127,35.211,-97.439,0,0,3,327,-1.328,-0.338,9.672,1
128,35.211,-97.439,2.4,1.4901,3,327,-0.787,-0.871,9.499,0
129,35.211,-97.439,359.2,3.3501,3,327,0.094,-1.778,9.628,0
130,35.211,-97.439,342.8,4.6531,3,327,0.929,-2.939,9.437,0
131,35.211,-97.439,314.2,5.4121,3,327,0.545,-2.719,9.643,0
132,35.211,-97.439,284,6.2554,3,327,-0.831,-0.317,9.66,1
133,35.211,-97.439,271.7,7.77,3,327,-1.021,-0.256,9.741,0
134,35.211,-97.439,270.9,9.25,3,327,-0.144,0.092,9.752,1
135,35.211,-97.439,270.7,10.7,3,327,0.149,0.296,10.02,0
136,35.211,-97.439,271,11.39,3,327,0.443,0.251,10.108,0
137,35.211,-97.44,270.8,11.52,3,327,0.174,0.061,8.817,0
138,35.211,-97.44,270.3,11.491,3,326,0.429,0.685,9.893,0
139,35.211,-97.44,270.3,11.79,3,326,0.443,0.707,9.997,0
140,35.211,-97.44,271.6,11.66,3,326,0.426,0.428,9.126,0
141,35.211,-97.44,272.8,11.53,3,326,0.509,0.124,9.593,0
142,35.211,-97.44,273.4,11.43,3,326,0.77,-0.071,9.622,0
143,35.211,-97.44,272.3,11.46,3,327,0.851,0.17,9.806,0
144,35.211,-97.44,271.3,11.27,3,327,0.739,0.394,9.888,0
145,35.211,-97.441,270.4,11.05,3,327,1,0.432,9.677,0
146,35.211,-97.441,270.5,10.68,3,327,1.549,0.348,10.083,0
147,35.211,-97.441,270.2,10.09,3,326,1.846,0.75,10.072,0
148,35.211,-97.441,269.7,9.01,3,327,1.801,0.681,9.901,0
149,35.211,-97.441,269.8,7.62,3,327,2.697,0.835,10.044,0
150,35.211,-97.441,270.7,6.03,3,326,3.231,1.134,9.577,0
151,35.211,-97.441,269.9,3.83,3,327,2.184,0.812,9.73,0
152,35.211,-97.441,269.9,1.25,3,327,0.34,0.103,9.841,0
153,35.211,-97.441,269.9,1.25,3,327,0.603,0.164,9.749,0
154,35.211,-97.441,269.9,1.25,3,327,0.507,0.203,9.72,1
155,35.211,-97.441,269.9,1.25,3,327,0.609,0.167,9.818,1
156,35.211,-97.441,269.9,1.25,3,327,0.53,0.201,9.793,1
157,35.211,-97.441,0,0,3,326,0.529,0.195,9.803,1
158,35.211,-97.441,0,0,3,326,0.49,0.191,9.765,1
159,35.211,-97.441,0,0,3,326,0.534,0.187,9.818,1
160,35.211,-97.441,0,0,3,326,0.517,0.198,9.7,1
161,35.211,-97.441,0,0,3,326,0.496,0.199,9.699,1
163,35.211,-97.441,0,0,3,326,0.591,0.199,9.751,1
163,35.211,-97.441,0,0,3,326,0.591,0.199,9.751,1
164,35.211,-97.441,0,0,3,325,0.543,0.193,9.828,1
165,35.211,-97.441,0,0,3,325,0.953,0.195,9.71,0
166,35.211,-97.441,0,0,3,325,1.224,0.203,9.858,0
167,35.211,-97.441,0,0,3,325,0.799,0.277,9.759,0
168,35.211,-97.441,0,0,3,325,0.8,0.258,9.747,1
169,35.211,-97.441,0,0,3,325,0.797,0.25,9.9,1
170,35.211,-97.441,0,0,3,325,0.773,0.29,9.65,1
171,35.211,-97.441,0,0,3,325,0.833,0.257,9.818,1
172,35.211,-97.441,0,0,3,325,0.763,0.29,9.703,1
173,35.211,-97.441,0,0,3,325,0.799,0.261,9.83,1
174,35.211,-97.441,0,0,3,325,0.785,0.249,9.863,1
175,35.211,-97.441,0,0,3,325,0.782,0.268,9.707,1
176,35.211,-97.441,0,0,3,325,0.758,0.248,9.854,1
177,35.211,-97.441,0,0,3,325,0.774,0.254,9.891,1
178,35.211,-97.441,0,0,3,325,0.749,0.252,9.649,1
179,35.211,-97.441,0,0,3,325,0.818,0.266,9.757,1
180,35.211,-97.441,0,0,3,325,0.754,0.245,9.875,1
181,35.211,-97.441,0,0,3,325,0.745,0.261,9.662,1
182,35.211,-97.441,0,0,3,325,0.731,0.245,9.684,1
183,35.211,-97.441,0,0,3,325,0.799,0.259,9.873,1
184,35.211,-97.441,0,0,3,325,0.717,0.231,9.731,1
185,35.211,-97.441,0,0,3,325,0.809,0.281,9.866,1
186,35.211,-97.441,0,0,3,325,-0.037,-0.003,9.773,0
187,35.211,-97.441,0,0,3,325,-1.532,-0.66,9.827,0
188,35.211,-97.441,270.3,1.7,3,325,-1.133,-0.504,9.565,0
189,35.211,-97.441,269.9,3.9901,3,325,-1.127,-0.5,9.917,0
190,35.211,-97.441,270,6.02,3,325,-0.821,-0.364,9.663,0
191,35.211,-97.441,270.1,7.8701,3,325,-0.903,-0.377,9.554,0
192,35.211,-97.441,270.1,9.5401,3,325,0.119,-0.091,9.815,0
193,35.211,-97.442,270.1,10.92,3,325,0.885,0.429,10.179,0
194,35.211,-97.442,269.9,11.31,3,326,0.379,-0.115,9.417,0
195,35.211,-97.442,269.5,11.5,3,326,0.451,0.231,9.613,0
196,35.211,-97.442,268.6,11.88,3,326,0.415,0.28,9.441,0
197,35.211,-97.442,268.5,12.23,3,326,0.371,0.174,9.443,0
198,35.211,-97.442,268.6,12.59,3,325,0.832,0.472,9.974,0
199,35.211,-97.442,269.1,12.86,3,325,0.846,0.514,9.994,0
200,35.211,-97.442,269.2,12.8,3,325,1.137,0.542,9.968,0
201,35.211,-97.443,269.3,12.57,3,325,1.413,0.967,9.051,0
202,35.211,-97.443,269.5,12.13,3,325,1.735,0.402,9.863,0
203,35.211,-97.443,269.9,11.32,3,325,1.553,0.596,9.743,0
204,35.211,-97.443,269.8,10.52,3,325,1.682,0.356,10.349,0
205,35.211,-97.443,269.8,9.84,3,325,1.644,0.624,9.978,0
206,35.211,-97.443,269.8,8.99,3,325,1.396,0.644,9.888,0
207,35.211,-97.443,270,8,3,325,1.794,0.66,9.915,0
209,35.211,-97.443,270.2,7.22,3,325,2.195,0.696,9.915,0
209,35.211,-97.443,270.2,7.22,3,325,2.195,0.696,9.915,0
210,35.211,-97.443,270.4,4.77,3,325,2.303,0.718,9.742,0
211,35.211,-97.444,270.7,3.11,3,325,1.899,0.6,9.798,0
212,35.211,-97.444,270.8,1.99,3,325,1.644,0.666,9.873,0
213,35.211,-97.444,270.8,1.99,3,325,1.286,0.432,9.914,0
214,35.211,-97.444,270.9,0.41,3,325,1.116,0.402,9.792,1
215,35.211,-97.444,270.9,0.41,3,325,0.676,0.261,9.69,1
216,35.211,-97.444,270.9,0.41,3,325,0.704,0.274,9.746,1
217,35.211,-97.444,270.9,0.41,3,325,0.674,0.252,9.738,1
218,35.211,-97.444,270.9,0.41,3,325,0.664,0.272,9.684,1
219,35.211,-97.444,270.9,0.41,3,325,0.671,0.25,9.831,1
220,35.211,-97.444,270.9,0.41,3,325,0.697,0.26,9.854,1
221,35.211,-97.444,270.9,0.41,3,325,0.719,0.264,9.91,1
222,35.211,-97.444,270.9,0.41,3,325,0.739,0.277,9.838,1
223,35.211,-97.444,270.9,0.41,3,325,0.71,0.271,9.851,1
224,35.211,-97.444,270.9,0.41,3,325,0.71,0.253,9.873,1
225,35.211,-97.444,270.9,0.41,3,325,0.68,0.253,9.808,1
226,35.211,-97.444,270.9,0.41,3,325,0.653,0.238,9.742,1
227,35.211,-97.444,270.9,0.41,3,325,0.653,0.255,9.782,1
228,35.211,-97.444,270.9,0.41,3,325,0.674,0.261,9.653,1
229,35.211,-97.444,270.9,0.41,3,325,0.691,0.258,9.855,1
230,35.211,-97.444,270.9,0.41,3,325,0.641,0.243,9.787,1
231,35.211,-97.444,270.9,0.41,3,325,0.73,0.293,9.766,1
232,35.211,-97.444,270.9,0.41,3,325,0.674,0.241,9.87,1
233,35.211,-97.444,270.9,0.41,3,325,0.682,0.271,9.706,1
234,35.211,-97.444,270.9,0.41,3,325,0.701,0.259,9.892,1
235,35.211,-97.444,270.9,0.41,3,325,0.646,0.263,9.688,1
236,35.211,-97.444,270.9,0.41,3,325,0.74,0.271,9.866,1
237,35.211,-97.444,270.9,0.41,3,325,0.656,0.261,9.716,1
238,35.211,-97.444,270.9,0.41,3,325,0.706,0.274,9.707,1
239,35.211,-97.444,270.9,0.41,3,325,0.664,0.277,9.678,1
240,35.211,-97.444,270.9,0.41,3,325,0.69,0.261,9.737,1
241,35.211,-97.444,270.9,0.41,3,325,0.685,0.262,9.799,1
242,35.211,-97.444,270.9,0.41,3,325,0.655,0.288,9.684,1
243,35.211,-97.444,270.9,0.41,3,325,0.711,0.268,9.801,1
244,35.211,-97.444,270.9,0.41,3,325,0.663,0.255,9.717,1
245,35.211,-97.444,270.9,0.41,3,325,0.696,0.259,9.814,1
246,35.211,-97.444,270.9,0.41,3,325,0.663,0.274,9.674,1
247,35.211,-97.444,270.9,0.41,3,325,0.69,0.253,9.807,1
248,35.211,-97.444,270.9,0.41,3,325,0.648,0.27,9.692,1
249,35.211,-97.444,270.9,0.41,3,325,0.737,0.275,9.88,1
250,35.211,-97.444,270.9,0.41,3,325,0.658,0.277,9.689,1
251,35.211,-97.444,270.9,0.41,3,325,0.7,0.259,9.839,1
252,35.211,-97.444,270.9,0.41,3,325,0.694,0.241,9.873,1
253,35.211,-97.444,270.9,0.41,3,325,0.684,0.254,9.721,1
254,35.211,-97.444,270.9,0.41,3,325,0.384,0.153,9.855,1
255,35.211,-97.444,270.9,0.41,3,325,-0.52,-0.17,9.725,1
256,35.211,-97.444,270.8,0.29,3,327,-0.815,-0.284,9.701,1
257,35.211,-97.444,270.3,1.39,3,326,-0.349,-0.105,9.536,0
258,35.211,-97.444,270.9,2.98,3,326,-0.494,-0.496,9.89,0
259,35.211,-97.444,270.9,4.3401,3,326,-0.175,-0.211,10.429,0
261,35.211,-97.444,270.6,5.3806,3,326,0.61,-0.156,9.661,0
261,35.211,-97.444,270.6,5.3806,3,326,0.61,-0.156,9.661,0
262,35.211,-97.444,269.9,6.66,3,326,0.932,0.349,9.858,0
263,35.211,-97.444,270.1,6.51,3,326,0.834,0.013,9.958,0
264,35.211,-97.444,270.5,6.2901,3,326,0.87,0.259,9.76,0
265,35.211,-97.444,270.1,6.1301,3,326,0.855,0.352,10.01,0
266,35.211,-97.444,269.8,6.01,3,326,0.811,0.352,9.782,0
267,35.211,-97.444,269.3,5.9402,3,326,0.583,0.353,9.543,0
268,35.211,-97.444,269.6,5.97,3,327,0.631,0.115,9.784,0
269,35.211,-97.444,270,5.99,3,327,0.63,0.243,9.758,0
270,35.211,-97.444,270.1,6,3,326,0.577,0.291,9.826,0
271,35.211,-97.444,270,6.0302,3,326,0.628,0.204,9.965,0
272,35.211,-97.445,270.3,6.1,3,326,0.586,0.244,9.958,1
273,35.211,-97.445,270.5,6.2,3,326,0.415,0.33,9.685,0
274,35.211,-97.445,270.5,6.5104,3,326,1.112,0.371,9.486,0
275,35.211,-97.445,270.7,6.44,3,326,0.933,0.313,9.782,0
276,35.211,-97.445,270.7,6.18,3,326,1.014,0.29,9.818,0
277,35.211,-97.445,270.6,5.9,3,326,0.864,0.467,9.929,0
278,35.211,-97.445,269.7,5.62,3,325,1.029,0.465,9.819,0
279,35.211,-97.445,269.5,5.32,3,325,1.388,0.53,9.705,0
280,35.211,-97.445,269.7,4.75,3,325,2.86,0.998,9.813,0
281,35.211,-97.445,269.7,3.34,3,326,2.291,0.739,9.806,0
282,35.211,-97.445,269.7,3.34,3,326,1.17,0.364,9.717,1
283,35.211,-97.445,269.6,0.17,3,325,0.71,0.227,9.848,1
284,35.211,-97.445,269.6,0.17,3,325,0.699,0.211,9.747,1
285,35.211,-97.445,269.6,0.17,3,325,0.696,0.221,9.86,1
286,35.211,-97.445,269.6,0.17,3,325,0.687,0.216,9.868,1
287,35.211,-97.445,269.6,0.17,3,325,0.69,0.234,9.716,1
288,35.211,-97.445,269.6,0.17,3,325,0.674,0.208,9.872,1
289,35.211,-97.445,269.6,0.17,3,325,0.672,0.209,9.72,1
290,35.211,-97.445,269.6,0.17,3,325,0.634,0.212,9.725,1
291,35.211,-97.445,269.6,0.17,3,325,0.694,0.229,9.889,1
292,35.211,-97.445,269.6,0.17,3,325,0.702,0.216,9.898,1
293,35.211,-97.445,269.6,0.17,3,325,0.628,0.217,9.686,1
294,35.211,-97.445,269.6,0.17,3,325,0.652,0.229,9.681,1
295,35.211,-97.445,269.6,0.17,3,325,0.68,0.223,9.802,1
296,35.211,-97.445,269.6,0.17,3,325,0.665,0.217,9.779,1
297,35.211,-97.445,269.6,0.17,3,325,0.697,0.227,9.844,1
298,35.211,-97.445,269.6,0.17,3,325,0.667,0.21,9.868,1
299,35.211,-97.445,269.6,0.17,3,325,0.685,0.23,9.69,1
300,35.211,-97.445,269.6,0.17,3,325,0.679,0.225,9.899,1
301,35.211,-97.445,269.6,0.17,3,325,0.684,0.235,9.676,1
302,35.211,-97.445,269.6,0.17,3,325,0.704,0.21,9.911,1
303,35.211,-97.445,269.6,0.17,3,325,-0.16,-0.037,9.792,1
304,35.211,-97.445,269.6,0.17,3,325,-1.087,-0.439,9.861,1
305,35.211,-97.445,269.6,0.17,3,325,-0.771,-0.433,9.82,0
306,35.211,-97.445,269.6,3.25,3,324,-0.338,-0.566,10.336,0
307,35.211,-97.445,270.1,4.6501,3,324,-0.404,-0.18,9.795,0
308,35.211,-97.445,270,5.83,3,324,0.625,0.226,9.934,0
309,35.211,-97.445,270.6,6.64,3,324,0.352,-0.024,9.831,0
310,35.211,-97.445,270.5,6.8,3,324,0.151,0.389,9.81,0
311,35.211,-97.445,270.5,7.27,3,324,-0.15,-0.072,9.703,0
312,35.211,-97.446,270.6,8.15,3,324,-0.07,0.569,9.254,0
313,35.211,-97.446,270.6,8.84,3,324,0.114,0.25,9.984,0
314,35.211,-97.446,270.5,9.3804,3,324,0.004,0.44,9.803,0
315,35.211,-97.446,270.5,9.9001,3,324,-0.317,0.666,10.03,0
316,35.211,-97.446,272.2,10.67,3,325,-0.093,-0.037,10.066,0
317,35.211,-97.446,274.8,11.54,3,325,0.97,-0.436,9.878,0
319,35.211,-97.446,274.9,12.34,3,325,1.22,-0.27,9.728,0
319,35.211,-97.446,274.9,12.34,3,325,1.22,-0.27,9.728,0
320,35.211,-97.447,270.7,12.39,3,325,0.967,0.145,9.872,0
321,35.211,-97.447,270.1,12.21,3,325,0.502,-0.064,9.264,0
322,35.211,-97.447,269.7,12.12,3,325,0.822,0.34,9.601,0
323,35.211,-97.447,270,12.15,3,325,0.846,0.185,8.967,0
324,35.211,-97.447,270.6,12.08,3,325,0.948,0.379,9.377,0
325,35.211,-97.447,270.3,11.75,3,325,0.818,0.36,9.459,0
326,35.211,-97.447,270.1,11.57,3,325,0.585,0.04,10.42,0
327,35.211,-97.447,270.1,11.65,3,325,0.632,0.226,9.815,0
328,35.211,-97.448,269.8,11.76,3,326,0.772,0.061,9.634,0
329,35.211,-97.448,269.8,11.8,3,326,0.914,0.03,9.585,0
330,35.211,-97.448,269.8,11.86,3,326,0.305,0.179,9.538,0
331,35.211,-97.448,270.1,12.12,3,326,0.427,0.055,9.751,0
332,35.211,-97.448,270,12.42,3,326,0.879,0.208,9.163,0
333,35.211,-97.448,269.6,12.48,3,326,0.863,0.18,10.004,0
334,35.211,-97.448,269.6,12.36,3,326,0.872,0.13,9.924,0
335,35.211,-97.449,269.7,12.34,3,325,0.987,-0.042,9.731,0
336,35.211,-97.449,269.4,12.19,3,325,0.886,0.035,10.198,0
337,35.211,-97.449,269.4,12.19,3,325,0.858,0.145,10.62,0
338,35.211,-97.449,269.6,12.17,3,325,0.864,-0.112,10.614,0
339,35.211,-97.449,269.8,12.02,3,325,0.765,-0.092,10.917,0
340,35.211,-97.449,269.9,11.97,3,325,0.794,0.077,10.042,0
341,35.211,-97.449,268.1,11.92,3,325,0.559,0.414,9.751,1
342,35.211,-97.449,270.2,11.95,3,325,0.783,0.054,9.625,0
343,35.211,-97.45,270.3,11.97,3,324,0.943,0.02,9.777,0
344,35.211,-97.45,269.9,11.94,3,324,0.929,0.235,9.778,1
345,35.211,-97.45,269.9,11.82,3,323,0.69,0.203,9.652,0
346,35.211,-97.45,270,11.69,3,323,0.745,-0.151,10.09,0
347,35.211,-97.45,270.3,11.86,3,323,0.394,0.199,9.317,0
348,35.211,-97.45,270.3,12.09,3,323,0.611,0.017,9.82,0
349,35.211,-97.45,270.7,12.3,3,323,0.782,-0.149,9.453,0
350,35.211,-97.451,270.3,12.44,3,323,0.781,-0.065,9.879,0
351,35.211,-97.451,269.8,12.59,3,323,0.892,0.098,9.648,0
352,35.211,-97.451,270.3,12.811,3,323,1.102,0.059,9.356,0
353,35.211,-97.451,270.5,12.49,3,323,0.992,-0.136,10.196,0
354,35.211,-97.451,270.2,12.26,3,322,0.774,0.077,9.83,0
355,35.211,-97.451,270.1,12.16,3,323,0.703,0.059,9.706,0
356,35.211,-97.451,270.3,12.22,3,323,0.817,0.041,9.801,0
357,35.211,-97.451,270.4,12.24,3,323,0.699,0.149,9.853,0
358,35.211,-97.452,269.9,12.27,3,323,0.55,0.076,11.163,0
359,35.211,-97.452,270.1,12.26,3,323,0.844,0.137,9.891,0
360,35.211,-97.452,270.7,12.331,3,322,0.884,0.097,9.998,0
361,35.211,-97.452,271.2,12.573,3,322,0.809,0.118,9.706,0
362,35.211,-97.452,269.1,12.756,3,321,0.841,0.18,9.754,0
363,35.211,-97.452,270.2,12.52,3,321,1.005,-0.004,9.534,0
364,35.211,-97.452,269.9,12.591,3,321,2.151,0.724,9.908,0
365,35.211,-97.453,269.7,12.441,3,322,2.718,0.856,9.454,0
366,35.211,-97.453,270,11.201,3,322,2.166,0.731,9.708,0
367,35.211,-97.453,272.6,9.7303,3,322,1.991,0.528,9.623,0
368,35.211,-97.453,270.6,8.3209,3,322,1.823,3.422,9.868,0
369,35.211,-97.453,273.1,7.1501,3,322,0.55,4.361,9.757,0
370,35.211,-97.453,296.1,5.93,3,322,-0.596,2.354,10.326,0
371,35.211,-97.453,328.9,5.6432,3,322,-0.869,0.946,10.321,0
372,35.211,-97.453,351.5,6.2514,3,321,-0.565,0.205,9.977,0
373,35.211,-97.453,0.6,7.5113,3,321,-0.523,-0.038,9.551,0
374,35.211,-97.453,1,8.8104,3,322,-0.426,-0.3,9.731,0
375,35.212,-97.453,1.6,10.211,3,322,0.066,0.269,9.655,0
376,35.212,-97.453,358.6,11.24,3,322,0.284,0.442,9.717,0
377,35.212,-97.453,359.2,11.92,3,321,0.548,0.295,9.605,0
379,35.212,-97.453,359.2,12.2,3,321,0.624,0.479,10.192,0
379,35.212,-97.453,359.2,12.2,3,321,0.624,0.479,10.192,0
380,35.212,-97.453,0.3,12.36,3,322,0.77,0.281,9.463,0
381,35.212,-97.453,0.6,12.27,3,322,0.761,0.524,9.571,0
382,35.212,-97.453,0.1,12.15,3,321,0.803,0.341,9.759,0
383,35.212,-97.453,359.7,12.13,3,321,0.787,0.494,9.691,0
384,35.213,-97.453,359.8,12.21,3,322,0.775,0.447,10.282,0
385,35.213,-97.453,0.1,11.92,3,322,0.667,0.417,9.311,0
386,35.213,-97.453,0.3,11.88,3,322,0.712,0.469,9.644,0
387,35.213,-97.453,0,11.743,3,323,0.815,0.393,10.277,0
388,35.213,-97.453,0.2,11.73,3,323,0.903,0.407,9.882,0
389,35.213,-97.453,0.3,11.7,3,323,0.596,0.734,9.004,0
390,35.213,-97.453,0.3,11.741,3,323,0.942,0.171,10.567,0
391,35.213,-97.453,0,11.93,3,323,0.502,1.093,8.347,0
392,35.213,-97.453,1.1,11.88,3,323,0.894,0.272,10.509,0
393,35.214,-97.453,0.6,12.022,3,322,1.195,0.083,9.613,0
394,35.214,-97.453,0.5,12.364,3,322,1.055,0.49,9.635,0
395,35.214,-97.453,0.4,12.421,3,322,1.174,0.531,9.873,0
396,35.214,-97.453,0.3,12.27,3,322,0.963,0.29,9.561,0
397,35.214,-97.453,0.4,12.06,3,321,0.685,0.13,10.086,0
398,35.214,-97.453,359.7,11.73,3,322,1.091,0.62,9.459,0
399,35.214,-97.453,359.1,11.28,3,321,0.935,0.807,9.107,0
400,35.214,-97.453,358,10.707,3,321,1.264,0.267,9.585,0
401,35.214,-97.453,357.8,10.161,3,321,1.361,0.522,9.702,0
402,35.214,-97.453,358,9.4639,3,321,1.34,0.876,9.993,0
403,35.215,-97.453,359.2,8.6104,3,321,2.432,1.05,9.499,0
404,35.215,-97.453,359.8,7.2004,3,321,2.716,1.034,9.266,0
405,35.215,-97.453,0.1,5.1102,3,321,2.568,0.799,9.694,0
406,35.215,-97.453,0.8,2.75,3,321,1.552,0.212,9.978,0
407,35.215,-97.453,0.8,2.75,3,321,-0.019,0.003,9.75,1
408,35.215,-97.453,0.7,0.85,3,322,-0.458,0.089,9.739,0
409,35.215,-97.453,359.9,2.0002,3,322,-0.606,-0.318,9.899,0
410,35.215,-97.453,0.9,2.8004,3,322,-0.168,-0.455,10.262,0
411,35.215,-97.453,1.2,3.9906,3,322,-0.506,0.218,9.44,0
412,35.215,-97.453,1.1,5.29,3,322,-0.116,-0.164,9.812,0
413,35.215,-97.453,1,6.27,3,322,-0.207,0.266,9.171,0
414,35.215,-97.453,0.4,7.1703,3,323,0.017,-0.105,9.752,0
415,35.215,-97.453,359.5,8.0203,3,323,0.189,0.35,9.657,0
416,35.215,-97.453,358.8,8.7933,3,323,0.022,0.192,9.794,0
417,35.215,-97.453,359.9,9.3101,3,323,0.089,-0.043,9.79,0
418,35.215,-97.453,0.1,9.9218,3,323,0.931,0.384,10.213,0
419,35.215,-97.453,0.2,10.251,3,323,1.293,-0.04,9.765,0
420,35.215,-97.453,0.7,10.081,3,323,0.827,0.044,10.789,0
421,35.216,-97.453,0.8,9.9302,3,323,1.012,0.007,10.79,0
422,35.216,-97.453,0.1,9.7801,3,323,0.635,0.697,9.656,0
423,35.216,-97.453,359.9,9.7301,3,323,0.856,-0.012,9.746,0
424,35.216,-97.453,0.5,9.79,3,323,0.755,-0.059,10.341,0
425,35.216,-97.453,0,9.8818,3,324,0.857,-0.102,9.538,0
426,35.216,-97.453,0,10.04,3,323,0.896,-0.006,9.793,0
427,35.216,-97.453,0,10.12,3,323,0.643,0.445,9.83,0
428,35.216,-97.453,0.1,10.16,3,323,0.654,0.43,9.757,0
429,35.216,-97.453,0.2,10.22,3,323,0.918,-0.166,9.479,0
430,35.216,-97.453,0.9,10.341,3,322,0.91,0.33,9.931,0
431,35.216,-97.453,0.3,10.32,3,322,0.795,0.396,10.337,0
432,35.217,-97.453,0.1,10.3,3,322,0.783,0.085,9.917,0
433,35.217,-97.453,0.7,10.3,3,323,1.099,-0.191,10.221,0
434,35.217,-97.453,0.8,10.28,3,323,0.763,0.104,10.318,0
435,35.217,-97.453,0.5,10.22,3,323,0.71,0.201,9.891,0
436,35.217,-97.453,0.5,10.11,3,324,0.906,-0.348,9.131,0
437,35.217,-97.453,1,10.07,3,324,0.921,-0.067,9.954,0
439,35.217,-97.453,0.5,10.06,3,324,0.783,0.134,9.924,0
439,35.217,-97.453,0.5,10.06,3,324,0.783,0.134,9.924,0
440,35.217,-97.453,359.4,10.02,3,325,0.793,0.205,9.694,0
441,35.217,-97.453,359.7,10.04,3,325,0.804,0.218,9.855,0
442,35.217,-97.453,359.3,10.05,3,325,0.717,0.416,9.96,0
443,35.218,-97.453,359.3,10.06,3,325,0.775,0.378,10.24,0
444,35.218,-97.453,359.9,10.1,3,325,1.023,-0.138,9.872,0
445,35.218,-97.453,358.9,9.9801,3,326,1.15,-0.224,10.021,0
446,35.218,-97.453,357.6,9.7306,3,325,1.118,0.405,9.899,0
447,35.218,-97.453,357.5,9.39,3,325,1.953,0.162,10.632,0
448,35.218,-97.453,0.1,8.6904,3,325,2.057,0.202,9.297,0
449,35.218,-97.453,0.2,7.69,3,325,2.813,0.79,9.586,0
450,35.218,-97.453,0.2,6.21,3,325,2.651,0.676,9.533,0
451,35.218,-97.453,0.6,4.45,3,325,2.678,0.685,9.7,0
452,35.218,-97.453,0.1,2.6301,3,325,2.697,0.585,9.632,0
453,35.218,-97.453,0.1,2.6301,3,325,0.753,-0.065,9.858,0
454,35.218,-97.453,0.1,2.6301,3,325,0.857,0.031,9.894,1
455,35.218,-97.453,0.1,2.6301,3,325,0.844,0.013,9.706,1
456,35.218,-97.453,0.1,2.6301,3,325,0.856,0.023,9.905,1
457,35.218,-97.453,0.1,2.6301,3,325,0.846,-0.008,9.636,1
458,35.218,-97.453,0.1,2.6301,3,325,0.918,0,9.631,1
459,35.218,-97.453,0.1,2.6301,3,325,0.887,0.007,9.683,1
460,35.218,-97.453,0.1,2.6301,3,325,0.937,0.012,9.644,1
461,35.218,-97.453,0.1,2.6301,3,325,0.854,0.021,9.762,1
462,35.218,-97.453,0.1,2.6301,3,325,0.86,0.023,9.812,1
463,35.218,-97.453,0.1,2.6301,3,325,0.848,0.015,9.694,1
464,35.218,-97.453,0.1,2.6301,3,325,0.857,0.048,9.903,1
465,35.218,-97.453,0.1,2.6301,3,325,0.84,0.052,9.882,1
466,35.218,-97.453,0.1,2.6301,3,325,0.844,0.033,9.879,1
467,35.218,-97.453,0.1,2.6301,3,325,0.561,-0.071,9.774,1
468,35.218,-97.453,0.1,2.6301,3,325,0.623,-0.086,9.688,1
469,35.218,-97.453,0.1,2.6301,3,325,0.842,0.007,9.758,1
470,35.218,-97.453,0.1,2.6301,3,325,1.197,0.068,9.755,1
471,35.218,-97.453,0.1,2.6301,3,325,1.318,0.121,9.642,1
472,35.218,-97.453,0.1,2.6301,3,325,0.882,0.02,9.84,1
473,35.218,-97.453,0.1,2.6301,3,325,0.871,0.037,9.821,1
474,35.218,-97.453,0.1,2.6301,3,325,0.81,0.021,9.871,1
475,35.218,-97.453,0,0,3,326,0.95,0.013,9.64,1
476,35.218,-97.453,0,0,3,326,0.299,-0.197,9.737,1
477,35.218,-97.453,0,0,3,326,1.607,0.277,9.594,1
478,35.218,-97.453,0.1,0.72,3,327,0.99,0.091,9.775,1
479,35.218,-97.453,0.1,0.72,3,327,0.762,-0.018,9.78,1
480,35.218,-97.453,0.1,0.72,3,327,1.027,0.033,9.749,1
481,35.218,-97.453,0.1,0.72,3,327,0.464,-0.142,9.671,1
482,35.218,-97.453,0.1,0.24,3,327,0.644,-0.127,9.696,1
483,35.218,-97.453,0.1,0.24,3,327,1.273,0.17,9.684,1
484,35.218,-97.453,359.9,0.62,3,327,0.94,0.074,9.745,1
485,35.218,-97.453,359.9,0.62,3,327,1.106,0.078,9.679,1
486,35.218,-97.453,359.9,0.32,3,327,0.844,0.09,9.792,1
487,35.218,-97.453,359.9,0.32,3,327,0.778,0.021,9.799,1
488,35.218,-97.453,359.9,0.32,3,327,1.096,0.135,9.714,1
489,35.218,-97.453,359.9,0.43,3,327,1.301,0.204,9.861,0
490,35.218,-97.453,359.9,0.43,3,327,0.941,0.077,9.769,1
491,35.218,-97.453,359.9,0.43,3,327,0.967,0.066,9.677,1
492,35.218,-97.453,359.9,0.43,3,327,0.932,0.093,9.84,1
493,35.218,-97.453,359.9,0.43,3,327,0.564,-0.045,9.703,1
494,35.218,-97.453,359.9,0.43,3,327,0.561,-0.033,9.703,1
495,35.218,-97.453,359.9,0.43,3,327,0.764,0.092,9.808,1
496,35.218,-97.453,359.9,0.72,3,326,1.218,0.251,9.73,1
497,35.218,-97.453,359.9,0.72,3,326,1.179,0.236,9.892,1
498,35.218,-97.453,359.9,0.47,3,326,0.867,0.087,9.713,1
500,35.218,-97.453,359.9,0.47,3,326,0.446,-0.037,9.741,1
500,35.218,-97.453,359.9,0.47,3,326,0.446,-0.037,9.741,1
501,35.218,-97.453,0.1,0.71,3,327,1.131,0.149,9.762,1
502,35.218,-97.453,0.1,0.71,3,327,0.469,0.042,9.769,0
503,35.218,-97.453,0,0.96005,3,326,-0.926,-0.497,9.664,0
504,35.218,-97.453,356.6,2.7105,3,327,-0.473,-1.15,9.462,0
505,35.218,-97.453,347.8,4.7865,3,326,0.129,-1.784,8.274,0
506,35.218,-97.453,330.4,6.2004,3,326,0.441,-2.275,9.381,0
507,35.218,-97.453,310.5,7.0412,3,326,1.237,-3.726,8.951,0
508,35.218,-97.453,287.2,7.9518,3,327,0.179,-1.745,9.215,0
509,35.218,-97.453,272.3,9.1811,3,327,-0.499,-0.313,9.778,0
510,35.218,-97.453,270.7,10.16,3,327,-0.368,0.467,9.382,0
511,35.218,-97.454,270.1,11.12,3,327,-0.156,-0.022,9.686,0
512,35.218,-97.454,270.1,11.96,3,327,-0.041,-0.025,10.121,0
513,35.218,-97.454,270.4,12.78,3,327,-0.121,0.247,9.24,0
514,35.218,-97.454,270.7,13.35,3,327,0.244,0.413,9.715,0
515,35.218,-97.454,270.6,13.63,3,327,0.775,0.077,10.296,0
516,35.218,-97.454,270.4,13.76,3,327,0.826,0.204,9.586,0
517,35.218,-97.454,270.6,13.63,3,327,0.601,0.348,10.313,0
518,35.218,-97.455,270.5,13.61,3,326,0.619,0.559,9.336,0
519,35.218,-97.455,270.4,13.63,3,327,0.754,0.17,10.521,0
520,35.218,-97.455,270.7,13.52,3,327,0.499,0.235,9.539,0
521,35.218,-97.455,270.6,13.54,3,327,0.634,-0.046,10.06,0
522,35.218,-97.455,270.2,13.69,3,327,0.865,0.424,10.117,0
523,35.218,-97.455,270.4,13.61,3,327,0.657,0.235,9.809,0
524,35.218,-97.455,271,13.46,3,327,2.192,0.83,9.462,0
525,35.218,-97.456,271,12.55,3,327,2.404,0.749,9.525,0
526,35.218,-97.456,270.8,10.98,3,327,2.378,0.701,9.845,0
527,35.218,-97.456,270.2,9.34,3,327,2.016,0.755,9.872,0
528,35.218,-97.456,270.1,7.82,3,326,2.709,0.979,9.666,0
529,35.218,-97.456,270.4,6.3803,3,326,3.531,1.14,9.474,0
530,35.218,-97.456,270.6,4.11,3,326,2.684,0.895,9.781,0
531,35.218,-97.456,270.6,1.31,3,326,0.683,0.333,9.806,0
532,35.218,-97.456,270.6,1.31,3,326,0.621,0.335,9.707,1
533,35.218,-97.456,270.6,1.31,3,326,0.614,0.34,9.788,1
534,35.218,-97.456,270.6,1.31,3,326,0.616,0.32,9.888,1
535,35.218,-97.456,270.6,1.31,3,326,0.596,0.32,9.877,1
536,35.218,-97.456,270.6,1.31,3,326,0.577,0.337,9.718,1
537,35.218,-97.456,270.6,1.31,3,326,0.572,0.328,9.702,1
538,35.218,-97.456,270.6,1.31,3,326,0.645,0.332,9.77,1
539,35.218,-97.456,270.6,1.31,3,326,0.611,0.321,9.806,1
540,35.218,-97.456,270.6,1.31,3,326,0.611,0.307,9.877,1
541,35.218,-97.456,270.6,1.31,3,326,0.577,0.313,9.696,1
542,35.218,-97.456,270.6,1.31,3,326,0.626,0.318,9.892,1
543,35.218,-97.456,270.6,1.31,3,326,0.581,0.345,9.715,1
544,35.218,-97.456,270.6,1.31,3,326,0.588,0.327,9.711,0
545,35.218,-97.456,270.6,1.31,3,326,0.602,0.313,9.707,1
546,35.218,-97.456,270.6,1.31,3,326,0.584,0.328,9.779,1
547,35.218,-97.456,270.6,1.31,3,326,0.621,0.331,9.828,1
548,35.218,-97.456,270.6,1.31,3,326,0.625,0.326,9.775,1
549,35.218,-97.456,270.6,1.31,3,326,0.608,0.319,9.804,1
550,35.218,-97.456,270.6,1.31,3,326,0.608,0.329,9.836,1
551,35.218,-97.456,270.6,1.31,3,326,0.635,0.32,9.886,1
552,35.218,-97.456,270.6,1.31,3,326,0.626,0.309,9.816,1
553,35.218,-97.456,270.6,1.31,3,326,0.644,0.333,9.932,1
554,35.218,-97.456,270.6,1.31,3,326,0.614,0.331,9.896,1
555,35.218,-97.456,270.6,1.31,3,326,0.624,0.337,9.84,1
556,35.218,-97.456,270.6,1.31,3,326,0.602,0.336,9.702,1
557,35.218,-97.456,270.6,1.31,3,326,0.56,0.323,9.739,1
558,35.218,-97.456,270.6,1.31,3,326,0.573,0.316,9.811,1
559,35.218,-97.456,270.6,1.31,3,326,0.622,0.327,9.779,1
560,35.218,-97.456,270.6,1.31,3,326,0.63,0.325,9.927,1
561,35.218,-97.456,270.6,1.31,3,326,0.657,0.325,9.861,1
562,35.218,-97.456,270.6,1.31,3,326,0.631,0.324,9.913,1
563,35.218,-97.456,270.6,1.31,3,326,0.565,0.339,9.702,1
564,35.218,-97.456,270.6,1.31,3,326,0.629,0.306,9.863,1
565,35.218,-97.456,270.6,1.31,3,326,0.649,0.323,9.904,1
566,35.218,-97.456,270.6,1.31,3,326,0.577,0.335,9.706,1
567,35.218,-97.456,270.6,1.31,3,326,0.592,0.326,9.793,1
568,35.218,-97.456,270.6,1.31,3,326,0.661,0.329,9.929,1
569,35.218,-97.456,270.6,1.31,3,326,0.642,0.346,9.933,1
570,35.218,-97.456,270.6,1.31,3,326,0.635,0.332,9.936,1
571,35.218,-97.456,270.6,1.31,3,326,0.609,0.32,9.783,1
572,35.218,-97.456,270.6,1.31,3,326,0.56,0.329,9.723,1
573,35.218,-97.456,270.6,1.31,3,326,0.627,0.34,9.859,1
574,35.218,-97.456,270.6,1.31,3,326,0.612,0.31,9.87,1
575,35.218,-97.456,270.6,1.31,3,326,0.614,0.332,9.907,1
576,35.218,-97.456,270.6,1.31,3,326,0.62,0.339,9.899,1
577,35.218,-97.456,270.6,1.31,3,326,0.61,0.324,9.707,1
578,35.218,-97.456,270.6,1.31,3,326,0.608,0.311,9.841,1
579,35.218,-97.456,270.6,1.31,3,326,0.598,0.335,9.747,1
580,35.218,-97.456,270.6,1.31,3,326,0.619,0.311,9.878,1
581,35.218,-97.456,270.6,1.31,3,326,0.656,0.342,9.911,1
582,35.218,-97.456,270.6,1.31,3,326,0.585,0.306,9.849,1
583,35.218,-97.456,270.6,1.31,3,326,-0.961,-0.306,9.8,1
585,35.218,-97.456,270.6,1.31,3,326,-1.546,-0.293,9.721,0
585,35.218,-97.456,270.6,1.31,3,326,-1.546,-0.293,9.721,0
586,35.218,-97.456,270,2.68,3,327,-0.92,-0.092,9.767,0
587,35.218,-97.456,270.1,4.71,3,327,-0.357,-0.076,9.634,0
588,35.218,-97.456,269.9,6.4,3,327,-0.805,0.045,9.817,0
589,35.218,-97.456,270.3,7.87,3,327,0.294,0.148,9.489,0
590,35.218,-97.456,270.3,9.11,3,327,0.075,0.29,9.687,0
591,35.218,-97.457,270.6,9.75,3,327,-0.009,0.177,9.909,0
592,35.218,-97.457,270.8,10.42,3,327,-0.016,0.183,9.808,0
593,35.218,-97.457,270.7,11.12,3,327,0.172,0.386,9.912,0
594,35.218,-97.457,270.7,11.81,3,327,0.222,0.355,10.397,0
595,35.218,-97.457,270.8,12.19,3,327,0.33,0.149,9.983,0
596,35.218,-97.457,270.8,12.58,3,327,0.185,0.187,9.671,0
597,35.218,-97.457,270.6,12.98,3,327,0.334,0.195,9.547,0
598,35.218,-97.457,270.5,13.35,3,327,0.739,0.567,9.809,0
599,35.218,-97.458,270.5,13.54,3,327,0.793,0.549,9.94,0
600,35.218,-97.458,270.6,13.35,3,327,0.755,0.461,9.68,0
601,35.218,-97.458,270.9,13.38,3,327,1.026,0.333,9.843,0
602,35.218,-97.458,271.1,13.32,3,327,0.688,0.171,9.403,0
603,35.218,-97.458,271.2,13.09,3,327,0.787,0.396,9.901,0
604,35.218,-97.458,270.8,12.94,3,327,0.537,0.513,9.545,0
605,35.218,-97.458,270.4,12.87,3,327,0.542,0.215,10.093,0
606,35.218,-97.459,270.5,12.89,3,327,0.572,0.32,9.574,0
607,35.218,-97.459,270.6,12.96,3,327,0.472,0.365,8.842,0
608,35.218,-97.459,270.6,13.07,3,327,0.278,-0.254,11.047,0
609,35.218,-97.459,270.3,13.31,3,326,0.49,0.39,9.856,0
610,35.218,-97.459,270,13.66,3,326,0.461,0.072,10.288,0
611,35.218,-97.459,270,14.01,3,326,0.538,0.04,10.374,0
612,35.218,-97.46,269.9,14.34,3,326,0.349,0.025,9.634,0
613,35.218,-97.46,269.8,14.69,3,325,0.399,0.066,9.982,0
614,35.218,-97.46,269.6,15.07,3,325,0.288,0.452,9.844,0
615,35.218,-97.46,269.3,15.49,3,325,0.967,0.346,10.33,0
616,35.218,-97.46,270,15.84,3,325,0.844,0.599,9.49,0
618,35.218,-97.46,269.9,15.96,3,325,0.974,0.344,9.782,0
618,35.218,-97.46,269.9,15.96,3,325,0.974,0.344,9.782,0
619,35.218,-97.461,270.1,15.65,3,325,1.035,0.376,10.301,0
620,35.218,-97.461,270.1,15.42,3,325,0.926,0.416,9.237,0
621,35.218,-97.461,270,15.2,3,325,1.046,0.229,10.473,0
622,35.218,-97.461,270.1,15,3,325,0.331,0.175,9.746,0
623,35.218,-97.461,270.1,15.05,3,325,0.452,-0.015,9.844,0
624,35.218,-97.462,269.5,15.3,3,325,0.568,0.369,9.863,0
625,35.218,-97.462,269.7,15.37,3,325,0.616,0.428,10.319,0
626,35.218,-97.462,269.9,15.42,3,325,0.701,0.431,10.454,0
627,35.218,-97.462,270.5,15.28,3,325,0.948,0.358,9.719,0
628,35.218,-97.462,270.5,15.2,3,325,0.643,0.223,10.185,0
629,35.218,-97.462,270.3,15.16,3,325,0.696,0.099,9.621,0
630,35.218,-97.463,270,15.16,3,325,0.641,0.319,9.042,0
631,35.218,-97.463,269.8,15.17,3,325,0.767,0.362,9.656,0
632,35.218,-97.463,269.6,15.19,3,325,0.571,0.461,10.239,0
633,35.218,-97.463,269.9,15.18,3,325,0.639,0.57,9.285,0
634,35.218,-97.463,270.4,15.17,3,325,0.601,0.152,9.275,0
635,35.218,-97.463,270.4,15.23,3,324,0.463,0.292,9.134,0
636,35.218,-97.464,270.2,15.41,3,324,0.467,0.054,10.129,0
637,35.218,-97.464,269.8,15.64,3,324,0.493,0.224,9.895,0
638,35.218,-97.464,270,15.82,3,324,0.692,0.475,10.087,0
639,35.218,-97.464,269.9,15.98,3,324,0.7,0.372,9.459,0
