time,lat,lng,bearing,spd,acc,alt,accx,accy,accz,stable,
0,35.209,-97.44,0,0,13.653,331,-0.791,2.429,9.37,1
1,35.209,-97.44,0,0,13.653,331,-0.789,2.422,9.255,1
2,35.209,-97.44,0,0,13.653,331,-0.784,2.42,9.282,1
3,35.209,-97.44,0,0,13.653,331,-0.791,2.417,9.283,1
4,35.209,-97.44,0,0,13.653,331,-0.788,2.437,9.319,1
5,35.209,-97.44,0,0,13.653,331,-0.78,2.173,9.401,1
6,35.209,-97.44,0,0,13.653,331,-0.811,2.237,9.324,1
7,35.209,-97.44,0,0,13.653,331,-0.808,2.285,9.438,1
8,35.209,-97.44,0,0,13.653,331,-0.807,2.238,9.308,1
9,35.209,-97.44,0,0,13.653,331,-0.695,2.482,9.19,1
10,35.209,-97.44,0,0,13.653,331,-0.859,2.384,9.46,1
11,35.209,-97.44,348.2,0.84,13.653,330,-0.582,2.137,9.339,1
12,35.209,-97.44,358.8,0.86,13.653,331,-0.529,2.159,9.225,1
13,35.209,-97.44,1.8,1.05,13.653,331,-0.546,2.784,9.196,1
14,35.209,-97.44,359.1,0.74,13.653,331,-0.77,2.532,9.3,1
15,35.209,-97.44,359.1,0.74,13.653,331,-1.606,3.388,9.037,1
16,35.209,-97.44,0,0,13.653,329,-2.03,3.704,8.881,1
18,35.209,-97.44,118.3,1.56,13.653,328,-1.382,3.269,8.942,1
18,35.209,-97.44,118.3,1.56,13.653,328,-1.382,3.269,8.942,1
19,35.209,-97.44,102.9,4.12,13.653,328,-1.62,3.031,9.206,0
20,35.209,-97.44,88,5.45,13.653,327,-0.799,3.127,9.084,0
21,35.209,-97.44,87.2,6.43,13.653,328,-0.643,2.907,9.266,0
22,35.209,-97.44,88.7,7.56,13.653,325,-0.737,2.258,9.388,0
23,35.209,-97.44,88.1,7.86,13.653,324,-0.752,2.16,9.567,1
24,35.209,-97.44,87.5,7.76,13.653,325,-0.569,2.069,9.569,0
25,35.209,-97.44,90,7.59,13.653,323,-0.651,1.853,9.592,0
26,35.209,-97.44,90.4,7.28,13.653,322,-0.627,2.011,9.668,0
27,35.209,-97.44,90.1,6.89,13.653,322,-0.602,2.154,9.368,1
28,35.209,-97.44,91.9,6.64,13.653,322,-0.617,2.199,9.313,1
29,35.209,-97.44,89,6.51,13.653,323,-0.499,2.213,9.455,0
30,35.209,-97.439,87.8,6.37,13.653,322,-0.281,2.176,9.408,0
31,35.209,-97.439,89.6,6.3,13.653,322,0.079,2.18,9.213,0
32,35.209,-97.439,89.5,6.1,13.653,323,-0.149,2.261,9.563,0
33,35.209,-97.439,92.7,5.99,13.653,321,-0.439,2.128,9.368,0
34,35.209,-97.439,92.6,5.94,13.653,320,-2.406,1.52,9.403,0
35,35.209,-97.439,81.5,5.34,13.653,320,-4.008,1.717,9.379,0
36,35.209,-97.439,66,5.3,13.653,318,-3.263,1.764,10.44,0
37,35.209,-97.439,34.2,5.14,13.653,318,-2.736,1.858,8.969,0
38,35.209,-97.439,10.2,5.04,13.653,318,-2.378,2.169,9.211,0
39,35.209,-97.439,356.1,4.63,13.653,318,-3.024,1.971,9.329,0
40,35.21,-97.439,336.3,4.7,13.653,319,-2.759,1.984,9.629,0
41,35.21,-97.439,312.1,4.55,13.653,318,-1.924,2.132,9.181,0
42,35.21,-97.439,308.5,4.27,13.653,317,-0.77,2.455,9.071,1
43,35.21,-97.439,300.1,3.88,15.17,318,-0.77,2.399,9.18,1
44,35.21,-97.439,267.8,4.6,13.653,317,-1.173,2.407,9.262,1
45,35.21,-97.439,263.5,4.6,13.653,318,1.405,1.493,9.409,0
46,35.21,-97.439,267.4,4.56,13.653,318,1.731,1.634,9.7,0
47,35.21,-97.439,276.8,4.81,15.17,315,0.459,2.091,9.668,0
48,35.21,-97.439,320.5,2.65,13.653,314,0.355,1.983,9.157,0
49,35.21,-97.439,350,2.66,13.653,315,-0.97,1.872,9.783,0
50,35.21,-97.439,357,1.9,13.653,316,-0.838,1.967,9.484,1
51,35.21,-97.439,356.8,1.8,13.653,316,-0.842,2.85,9.223,1
52,35.21,-97.439,355.4,0.91,13.653,317,-0.514,3.821,8.861,1
53,35.21,-97.439,355.4,0.91,13.653,317,0.167,3.699,8.901,1
54,35.21,-97.439,21,2.18,13.653,317,0.606,3.186,9.099,0
55,35.21,-97.439,21.3,2.19,13.653,318,0.388,3.504,9.187,0
56,35.21,-97.439,41.4,3.25,13.653,318,-0.777,3.352,9.175,1
57,35.21,-97.439,88.7,4.98,13.653,319,-1.465,3.377,8.841,0
58,35.21,-97.439,89.3,6.31,13.653,320,-1.753,2.302,9.43,0
59,35.21,-97.439,91.2,6.7,13.653,320,-1.267,1.222,9.35,1
60,35.21,-97.439,81.5,6.68,13.653,320,-1.279,-0.237,9.985,0
61,35.21,-97.439,90.8,4.62,13.653,320,-1.416,1.101,9.639,0
62,35.21,-97.439,91.6,2.08,13.653,319,-1.354,1.565,9.595,1
63,35.21,-97.439,91.6,2.08,13.653,319,-1.329,1.77,9.524,1
64,35.21,-97.439,91.7,0.3,13.653,317,-1.341,2.306,9.375,1
65,35.21,-97.439,91.7,0.3,13.653,317,-1.345,2.336,9.326,1
66,35.21,-97.439,91.7,0.3,13.653,317,-1.339,2.852,9.172,1
67,35.21,-97.439,91.7,0.3,13.653,317,-1.63,4.243,8.659,1
68,35.21,-97.439,94.6,1.22,13.653,318,-2.872,3.822,8.829,0
69,35.21,-97.439,78.6,3.14,13.653,318,-3.554,3.059,9.317,0
70,35.21,-97.439,75,3.67,13.653,318,-2.967,3.067,8.307,0
71,35.21,-97.439,68.8,3.46,13.653,318,-2.83,3.402,8.824,0
72,35.21,-97.439,12.9,5.97,13.653,319,-1.519,3.771,9.186,0
73,35.21,-97.439,10.2,6.9,13.653,318,-1.134,3.682,9.224,0
74,35.21,-97.439,8.7,8.07,15.17,318,-0.985,2.655,9.342,0
75,35.21,-97.439,1.5,9.26,15.17,318,-1.032,2.243,9.45,0
76,35.21,-97.439,0.2,10.01,15.17,314,-1.393,2.307,9.567,1
77,35.21,-97.439,3.1,10.09,16.687,315,-1.168,2.03,9.244,0
78,35.21,-97.439,1.4,9.97,15.17,315,-1.294,2.09,9.583,0
79,35.21,-97.439,0,9.54,15.17,317,-1.265,2.195,9.584,1
80,35.211,-97.439,359.8,9.24,13.653,320,-1.216,2.171,9.383,1
81,35.211,-97.439,1,8.93,13.653,320,-1.238,2.177,9.425,0
82,35.211,-97.439,1.5,8.58,13.653,318,-0.474,1.797,8.939,0
83,35.211,-97.439,359.7,8.38,13.653,319,-1.061,1.452,9.835,0
85,35.211,-97.439,1.6,7.71,13.653,319,-1.552,1.124,10.154,0
85,35.211,-97.439,1.6,7.71,13.653,319,-1.552,1.124,10.154,0
86,35.211,-97.439,1.7,5.57,13.653,318,-1.054,0.551,9.644,0
87,35.211,-97.439,359.9,4.78,13.653,319,-1.197,1.156,9.687,0
88,35.211,-97.439,355.1,3.11,15.17,319,-1.151,1.842,9.421,1
89,35.211,-97.439,355.1,3.11,15.17,319,-1.078,1.642,9.529,1
90,35.211,-97.439,355.1,3.11,15.17,319,-1.041,2.082,9.493,1
91,35.211,-97.439,355.1,3.11,15.17,319,-0.999,2.061,9.499,1
92,35.211,-97.439,355.1,3.11,15.17,319,-0.981,2.393,9.375,1
93,35.211,-97.439,355.1,3.11,15.17,319,-0.989,2.86,9.229,1
94,35.211,-97.439,358.8,0.34,13.653,323,-0.954,2.762,9.166,1
95,35.211,-97.439,342.8,0.78,13.653,324,-0.968,2.597,9.311,1
96,35.211,-97.439,339.4,1.1,13.653,323,-0.958,1.625,9.577,1
97,35.211,-97.439,339.4,1.1,13.653,323,-0.94,1.943,9.541,1
98,35.211,-97.439,339.4,1.1,13.653,323,-0.934,2.242,9.456,1
99,35.211,-97.439,339.4,1.1,13.653,323,-0.936,2.261,9.276,1
100,35.211,-97.439,339.4,1.1,13.653,323,-0.929,2.26,9.481,1
101,35.211,-97.439,339.4,1.1,13.653,323,-0.945,2.28,9.4,1
102,35.211,-97.439,339.4,1.1,13.653,323,-0.929,2.242,9.308,1
103,35.211,-97.439,339.4,1.1,13.653,323,-0.934,2.24,9.331,1
104,35.211,-97.439,339.4,1.1,13.653,323,-0.925,2.25,9.281,1
105,35.211,-97.439,339.4,1.1,13.653,323,-0.947,2.254,9.41,1
106,35.211,-97.439,339.4,1.1,13.653,323,-0.931,2.25,9.283,1
107,35.211,-97.439,339.4,1.1,13.653,323,-0.922,2.229,9.383,1
108,35.211,-97.439,339.4,1.1,13.653,323,-0.942,2.262,9.304,1
109,35.211,-97.439,339.4,1.1,13.653,323,-0.932,2.276,9.434,1
110,35.211,-97.439,339.4,1.1,13.653,323,-0.927,2.267,9.454,1
111,35.211,-97.439,339.4,1.1,13.653,323,-0.936,2.248,9.337,1
112,35.211,-97.439,339.4,1.1,13.653,323,-0.935,2.279,9.47,1
113,35.211,-97.439,339.4,1.1,13.653,323,-0.944,2.262,9.297,1
114,35.211,-97.439,0,0,13.653,319,-0.923,2.241,9.454,1
115,35.211,-97.439,0,0,13.653,319,-0.94,2.255,9.394,1
116,35.211,-97.439,0,0,13.653,319,-0.928,2.257,9.301,1
117,35.211,-97.439,0,0,13.653,319,-0.938,2.272,9.385,1
118,35.211,-97.439,0,0,13.653,319,-0.937,2.255,9.325,1
119,35.211,-97.439,0,0,13.653,319,-0.93,2.277,9.452,1
120,35.211,-97.439,0,0,13.653,319,-0.938,2.247,9.358,1
121,35.211,-97.439,0,0,13.653,319,-0.925,2.247,9.253,1
122,35.211,-97.439,0,0,13.653,319,-0.934,2.259,9.296,1
123,35.211,-97.439,0,0,13.653,319,-0.924,2.248,9.456,1
124,35.211,-97.439,0,0,13.653,319,-0.927,2.254,9.284,1
125,35.211,-97.439,0,0,13.653,319,-0.922,2.269,9.429,1
126,35.211,-97.439,0,0,13.653,319,-0.932,2.863,9.251,1
127,35.211,-97.439,0,0,13.653,319,-0.902,4.177,8.778,1
128,35.211,-97.439,0,0,13.653,319,-1.606,3.61,8.833,1
129,35.211,-97.439,13.8,1.76,13.653,320,-3.248,3.368,9.086,0
130,35.211,-97.439,355.4,4.32,13.653,320,-4.085,2.915,8.809,0
131,35.211,-97.439,314.6,5.17,13.653,319,-3.539,3.268,9.058,0
132,35.211,-97.439,289.2,5.51,13.653,319,-0.853,3.876,8.713,1
133,35.211,-97.439,279.1,6.37,13.653,319,-1.046,3.846,8.836,1
134,35.211,-97.439,272,9.22,13.653,320,-0.929,3.124,9.09,1
135,35.211,-97.439,270.6,10.72,13.653,320,-0.865,2.568,9.34,1
136,35.211,-97.439,272,11.41,13.653,321,-0.957,2.321,9.232,0
137,35.211,-97.44,270.6,11.51,15.17,322,-0.962,2.708,9.227,0
138,35.211,-97.44,270.7,11.59,15.17,322,-0.728,2.315,9.218,1
139,35.211,-97.44,270.7,11.83,15.17,322,-0.409,2.198,9.103,0
140,35.211,-97.44,270.9,11.65,15.17,323,-0.799,2.277,9.209,0
141,35.211,-97.44,272.2,11.65,15.17,323,-1.082,2.401,9.802,0
142,35.211,-97.44,272.4,11.56,15.17,323,-1.275,2.13,9.452,0
143,35.211,-97.44,272.9,11.27,15.17,323,-1.173,2.129,9.41,0
144,35.211,-97.44,271.8,11.3,13.653,324,-0.819,2.08,9.103,0
145,35.211,-97.441,270.8,10.93,13.653,323,-1.11,1.82,9.39,0
146,35.211,-97.441,270.9,10.5,13.653,322,-0.974,1.416,9.537,0
147,35.211,-97.441,269.6,10.06,13.653,323,-0.951,1.027,9.552,0
148,35.211,-97.441,268.5,9.33,13.653,324,-1.042,1.008,9.896,0
149,35.211,-97.441,268.4,8.15,13.653,322,-0.986,0.235,10.092,0
150,35.211,-97.441,267.5,6.52,13.653,323,-0.72,-0.316,10.223,0
151,35.211,-97.441,263.7,4.72,13.653,323,-0.911,0.823,9.795,0
152,35.211,-97.441,257.6,2.61,15.17,322,-0.924,2.384,9.236,1
153,35.211,-97.441,238.3,1.37,15.17,322,-0.93,2.423,9.324,1
154,35.211,-97.441,240,2,15.17,321,-0.932,2.416,9.306,1
155,35.211,-97.441,240,2,15.17,321,-0.917,2.397,9.29,1
156,35.211,-97.441,2.5,0.23,15.17,322,-0.922,2.414,9.383,1
157,35.211,-97.441,174.3,0.53,15.17,322,-0.931,2.432,9.252,1
158,35.211,-97.441,0,0,15.17,323,-0.938,2.407,9.347,1
159,35.211,-97.441,0,0,15.17,323,-0.945,2.396,9.324,1
160,35.211,-97.441,0,0,15.17,323,-0.921,2.425,9.409,1
162,35.211,-97.441,0,0,15.17,323,-0.921,2.404,9.417,1
162,35.211,-97.441,0,0,15.17,323,-0.921,2.404,9.417,1
163,35.211,-97.441,0,0,15.17,324,-0.926,2.407,9.264,1
164,35.211,-97.441,0,0,15.17,324,-0.936,2.434,9.357,1
165,35.211,-97.441,0,0,15.17,324,-0.929,2.384,9.265,1
166,35.211,-97.441,0,0,15.17,325,-0.936,2.437,9.395,0
167,35.211,-97.441,0,0,15.17,325,-0.935,2.406,9.384,1
168,35.211,-97.441,0,0,15.17,325,-0.945,2.426,9.34,1
169,35.211,-97.441,0,0,15.17,325,-0.932,2.413,9.233,1
170,35.211,-97.441,0,0,15.17,325,-0.928,2.407,9.298,1
171,35.211,-97.441,0,0,15.17,325,-0.934,2.427,9.224,1
172,35.211,-97.441,0,0,15.17,325,-0.923,2.413,9.255,1
173,35.211,-97.441,0,0,15.17,325,-0.936,2.394,9.367,1
174,35.211,-97.441,0,0,15.17,325,-0.939,2.426,9.334,1
175,35.211,-97.441,0,0,15.17,325,-0.938,2.438,9.447,1
176,35.211,-97.441,0,0,15.17,325,-0.918,2.406,9.212,1
177,35.211,-97.441,0,0,15.17,325,-0.935,2.431,9.302,1
178,35.211,-97.441,0,0,15.17,325,-0.934,2.421,9.265,1
179,35.211,-97.441,0,0,15.17,325,-0.936,2.428,9.375,1
180,35.211,-97.441,0,0,15.17,325,-0.93,2.426,9.253,1
181,35.211,-97.441,0,0,13.653,325,-0.93,2.427,9.365,1
182,35.211,-97.441,0,0,13.653,325,-0.92,2.4,9.219,1
183,35.211,-97.441,0,0,13.653,325,-0.939,2.414,9.308,1
184,35.211,-97.441,0,0,13.653,325,-0.927,2.397,9.293,1
185,35.211,-97.441,0,0,13.653,325,-0.927,2.422,9.379,1
186,35.211,-97.441,0,0,13.653,325,-0.924,2.818,9.154,1
187,35.211,-97.441,0,0,13.653,325,-0.915,4.685,8.534,1
188,35.211,-97.441,0,0,13.653,325,-1.015,4.4,8.96,0
189,35.211,-97.441,0,0,13.653,325,-0.844,4.294,8.415,0
190,35.211,-97.441,0,0,13.653,325,-1.017,3.955,8.884,0
191,35.211,-97.441,277.7,5.38,13.653,325,-0.948,4.073,8.609,1
192,35.211,-97.441,277.2,7.03,13.653,326,-1.053,2.978,9.43,0
193,35.211,-97.441,279.2,9.03,15.17,325,-0.972,2.575,9.151,0
194,35.211,-97.442,278.1,9.7,15.17,325,-1.212,2.826,9.274,0
195,35.211,-97.442,270,11.21,13.653,326,-0.9,2.761,9.366,0
196,35.211,-97.442,268.7,11.71,13.653,326,-1.076,2.793,9.353,0
197,35.211,-97.442,269.5,12.3,13.653,328,-0.829,2.77,9.526,0
198,35.211,-97.442,268.3,12.93,13.653,326,-0.835,2.379,9.365,0
199,35.211,-97.442,268.9,12.93,13.653,327,-0.796,2.219,9.578,0
200,35.211,-97.442,269.3,12.94,13.653,328,-0.872,2.099,9.316,1
201,35.211,-97.443,269.5,12.69,13.653,329,-0.846,1.659,9.24,0
202,35.211,-97.443,269.1,12.42,15.17,329,-1.036,1.556,9.402,0
203,35.211,-97.443,272.1,11.95,15.17,329,-0.951,1.681,9.668,1
204,35.211,-97.443,270.1,11.41,16.687,328,-1.018,1.566,9.448,0
205,35.211,-97.443,274.2,11.29,16.687,329,-0.942,1.402,9.456,0
206,35.211,-97.443,271,11.86,18.204,328,-0.825,1.672,9.716,1
207,35.211,-97.443,260.7,11.43,18.204,329,-0.853,1.613,9.407,1
208,35.211,-97.443,259.1,9.13,16.687,331,-0.859,0.996,9.635,1
209,35.211,-97.443,265.5,7.74,16.687,331,-0.837,0.363,9.84,0
210,35.211,-97.443,268.1,6.13,16.687,332,-0.896,1.321,9.716,1
211,35.211,-97.443,260.1,5.08,16.687,330,-0.91,1.497,9.579,1
212,35.211,-97.443,269.7,2.86,16.687,330,-0.903,1.728,9.579,1
213,35.211,-97.444,258.7,3.52,18.204,330,-0.922,1.966,9.555,1
214,35.211,-97.444,258.7,3.52,18.204,330,-0.932,2.419,9.25,1
215,35.211,-97.444,262.7,2.33,16.687,331,-0.919,2.389,9.237,1
216,35.211,-97.444,247.5,1.77,16.687,330,-0.923,2.396,9.355,1
217,35.211,-97.444,252.7,2.41,16.687,330,-0.909,2.372,9.231,1
218,35.211,-97.444,321.3,1.63,18.204,331,-0.923,2.382,9.224,1
219,35.211,-97.444,327.8,1.16,16.687,331,-0.918,2.366,9.295,1
220,35.211,-97.444,13.2,1.6,16.687,330,-0.916,2.387,9.265,1
221,35.211,-97.444,45.7,1.36,16.687,329,-0.928,2.37,9.298,1
222,35.211,-97.443,68.5,1.51,16.687,327,-0.937,2.366,9.327,1
223,35.211,-97.443,34.5,1.2,16.687,328,-0.934,2.397,9.389,1
224,35.211,-97.443,53.4,1.23,16.687,328,-0.934,2.4,9.347,1
225,35.211,-97.443,53.4,1.23,16.687,328,-0.92,2.381,9.283,1
226,35.211,-97.443,53.4,1.23,16.687,328,-0.908,2.354,9.198,1
227,35.211,-97.444,280.2,1.47,16.687,329,-0.919,2.387,9.409,1
228,35.211,-97.444,255.4,0.27,15.17,329,-0.934,2.396,9.383,1
229,35.211,-97.444,255.4,0.27,15.17,329,-0.917,2.365,9.415,1
230,35.211,-97.444,255.4,0.27,15.17,329,-0.905,2.367,9.263,1
232,35.211,-97.444,0,0,13.653,331,-0.934,2.392,9.364,1
232,35.211,-97.444,0,0,13.653,331,-0.934,2.392,9.364,1
233,35.211,-97.444,0,0,13.653,330,-0.911,2.364,9.223,1
234,35.211,-97.444,0,0,13.653,330,-0.919,2.391,9.456,1
235,35.211,-97.444,0,0,13.653,330,-0.934,2.376,9.288,1
236,35.211,-97.444,0,0,13.653,330,-0.924,2.389,9.418,1
237,35.211,-97.444,0,0,13.653,330,-0.918,2.357,9.403,1
238,35.211,-97.444,0,0,13.653,330,-0.946,2.387,9.304,1
239,35.211,-97.444,0,0,13.653,330,-0.921,2.389,9.41,1
240,35.211,-97.444,0,0,13.653,330,-0.918,2.359,9.229,1
241,35.211,-97.444,0,0,13.653,330,-0.931,2.388,9.275,1
242,35.211,-97.444,0,0,13.653,330,-0.925,2.364,9.28,1
243,35.211,-97.444,0,0,13.653,330,-0.9,2.365,9.203,1
244,35.211,-97.444,0,0,13.653,330,-0.918,2.37,9.23,1
245,35.211,-97.444,0,0,13.653,330,-0.93,2.381,9.396,1
246,35.211,-97.444,0,0,13.653,330,-0.942,2.392,9.36,1
247,35.211,-97.444,0,0,13.653,330,-0.921,2.388,9.417,1
248,35.211,-97.444,0,0,13.653,330,-0.927,2.381,9.431,1
249,35.211,-97.444,0,0,13.653,330,-0.928,2.359,9.368,1
250,35.211,-97.444,0,0,13.653,330,-0.937,2.395,9.39,1
251,35.211,-97.444,0,0,13.653,330,-0.91,2.362,9.221,1
252,35.211,-97.444,0,0,13.653,330,-0.917,2.374,9.452,1
253,35.211,-97.444,0,0,13.653,330,-0.938,2.366,9.362,1
254,35.211,-97.444,0,0,13.653,330,-0.902,2.376,9.209,1
255,35.211,-97.444,0,0,13.653,330,-0.943,2.709,9.286,1
256,35.211,-97.444,0,0,13.653,330,-0.946,4.08,8.747,1
257,35.211,-97.444,0,0,13.653,330,-0.902,3.753,8.691,1
258,35.211,-97.444,0,0,13.653,330,-0.975,3.629,8.912,0
259,35.211,-97.444,0,0,13.653,330,-0.985,3.274,8.909,0
260,35.211,-97.444,0,0,13.653,330,-1.014,3.145,9.004,0
261,35.211,-97.444,275.5,5.37,15.17,330,-1.366,2.443,9.94,0
262,35.211,-97.444,275.9,5.68,13.653,330,-0.824,2.144,9.148,0
263,35.211,-97.444,279.3,6.48,13.653,330,-0.991,2.196,9.336,1
264,35.211,-97.444,276,7.43,15.17,331,-1.028,2.233,9.21,1
265,35.211,-97.444,272.4,7.94,15.17,330,-0.941,2.181,9.506,1
266,35.211,-97.444,268.4,8.6,15.17,330,-1.025,2.484,9.194,1
267,35.211,-97.444,266.4,7.46,15.17,331,-1.045,2.425,9.235,0
268,35.211,-97.444,264.4,6.37,16.687,332,-0.913,2.43,9.406,0
269,35.211,-97.444,259.5,5.76,15.17,332,-1.099,2.46,9.482,1
270,35.211,-97.444,259.8,6.21,15.17,332,-0.95,2.448,9.37,1
271,35.211,-97.444,256.9,7.61,16.687,331,-0.928,2.478,9.293,1
272,35.211,-97.444,271.3,4.25,16.687,333,-0.925,2.691,9.196,1
273,35.211,-97.445,262.4,5.77,16.687,330,-1.019,2.283,9.024,1
274,35.211,-97.445,269.4,6.25,16.687,331,-0.923,2.038,9.358,0
275,35.211,-97.445,270.1,6.43,16.687,331,-1.083,2.139,9.462,1
276,35.211,-97.445,267.1,6.74,16.687,331,-0.903,2.149,9.373,1
277,35.211,-97.445,266.8,6.47,16.687,330,-0.987,2.122,9.749,0
278,35.211,-97.445,264.5,6.27,16.687,330,-0.893,1.897,9.608,1
279,35.211,-97.445,266.6,6.19,18.204,332,-1.002,1.62,9.487,1
280,35.211,-97.445,258.1,5.17,16.687,332,-0.921,-0.141,10.14,0
281,35.211,-97.445,263.4,5.13,16.687,331,-0.932,1.531,9.589,0
282,35.211,-97.445,272.8,4.77,16.687,329,-0.949,1.995,9.377,1
283,35.211,-97.445,291,0.4,15.17,329,-0.96,2.404,9.28,1
284,35.211,-97.445,291,0.4,15.17,329,-0.965,2.368,9.251,1
285,35.211,-97.445,291,0.4,15.17,329,-0.964,2.411,9.392,1
286,35.211,-97.445,0,0,13.653,325,-0.962,2.381,9.324,1
287,35.211,-97.445,0,0,13.653,325,-0.957,2.39,9.398,1
288,35.211,-97.445,0,0,13.653,325,-0.969,2.394,9.325,1
289,35.211,-97.445,0,0,13.653,326,-0.966,2.415,9.318,1
290,35.211,-97.445,0,0,13.653,326,-0.958,2.408,9.332,1
291,35.211,-97.445,0,0,13.653,326,-0.956,2.387,9.431,1
292,35.211,-97.445,0,0,13.653,326,-0.944,2.378,9.207,1
293,35.211,-97.445,0,0,13.653,326,-0.95,2.381,9.241,1
294,35.211,-97.445,0,0,13.653,326,-0.952,2.398,9.379,1
295,35.211,-97.445,0,0,13.653,326,-0.961,2.406,9.428,1
296,35.211,-97.445,0,0,13.653,326,-0.958,2.385,9.259,1
297,35.211,-97.445,0,0,13.653,326,-0.946,2.388,9.207,1
298,35.211,-97.445,0,0,13.653,326,-0.96,2.374,9.276,1
299,35.211,-97.445,0,0,13.653,326,-0.951,2.392,9.421,1
300,35.211,-97.445,0,0,13.653,326,-0.956,2.377,9.359,1
301,35.211,-97.445,0,0,13.653,326,-0.958,2.398,9.391,1
302,35.211,-97.445,0,0,13.653,326,-0.951,2.603,9.312,1
303,35.211,-97.445,0,0,13.653,326,-0.943,4.112,8.835,1
305,35.211,-97.445,0,0,13.653,326,-1.004,4.14,8.77,1
305,35.211,-97.445,0,0,13.653,326,-1.004,4.14,8.77,1
306,35.211,-97.445,284.7,2.19,15.17,326,-0.958,3.665,9.001,1
307,35.211,-97.445,285.9,3.26,15.17,326,-0.577,3.096,8.398,0
308,35.211,-97.445,287.1,3.21,13.653,329,-1.044,3.372,9.205,0
309,35.211,-97.445,277.3,5.63,13.653,327,-1.085,2.327,9.341,1
310,35.211,-97.445,275.4,6,13.653,326,-0.904,3.131,9.009,1
311,35.211,-97.445,284.4,5.58,15.17,328,-1.001,3.213,9.08,0
312,35.211,-97.445,273.8,6.38,15.17,328,-0.908,2.828,9.179,1
313,35.211,-97.446,272.8,7.47,16.687,329,-0.922,2.858,9.039,0
314,35.211,-97.446,274.5,8.16,16.687,329,-0.844,2.954,9.259,1
315,35.211,-97.446,268.2,10.21,16.687,327,-0.301,3.058,8.874,0
316,35.211,-97.446,279.5,8.5,16.687,330,-0.56,3.127,8.879,1
317,35.211,-97.446,278.3,10.43,18.204,331,-1.176,3.16,8.843,0
318,35.211,-97.446,273.6,12.4,16.687,331,-1.621,2.256,9.002,0
319,35.211,-97.446,275.4,11.53,16.687,331,-1.477,2.088,9.331,0
320,35.211,-97.446,275.1,11.08,16.687,331,-0.97,2.044,9.055,0
321,35.211,-97.447,272.1,11.41,16.687,331,-1.165,2.66,9.303,0
322,35.211,-97.447,272.2,12.64,16.687,330,-0.97,2.241,9.312,0
323,35.211,-97.447,270.4,12.89,18.204,329,-1.259,2.207,9.321,0
324,35.211,-97.447,277.5,13.33,18.204,329,-1.046,2.25,9.806,0
325,35.211,-97.447,277.5,10.86,18.204,328,-0.956,2.263,9.369,1
326,35.211,-97.447,275,13.22,18.204,325,-1.072,2.548,9.293,0
327,35.211,-97.447,273.3,12.94,18.204,325,-1.017,2.388,9.33,0
328,35.211,-97.448,268.8,11.69,16.687,327,-0.917,2.438,9.409,1
329,35.211,-97.448,270.4,11.78,15.17,327,-1.139,2.684,9.346,1
330,35.211,-97.448,270.4,11.66,15.17,327,-0.952,2.549,8.992,1
331,35.211,-97.448,270.1,11.61,15.17,328,-1.162,2.666,9.408,1
332,35.211,-97.448,270.3,12.6,16.687,327,-0.965,2.389,9.62,0
333,35.211,-97.448,271.5,12.46,16.687,329,-1.117,2.19,9.352,0
334,35.211,-97.448,266.2,12.86,16.687,328,-1.07,2.182,8.989,0
335,35.211,-97.448,268.6,12.33,18.204,328,-1.292,2.127,8.805,0
336,35.211,-97.449,269.3,12.37,18.204,329,-1.189,2.227,9.192,1
337,35.211,-97.449,270.6,13.49,16.687,326,-1.047,2.4,9.615,0
338,35.211,-97.449,269.2,12.52,16.687,327,-1.085,2.294,9.185,0
339,35.211,-97.449,268.5,11.62,16.687,327,-1.084,2.33,9.379,0
340,35.211,-97.449,269,11.48,16.687,327,-1.083,2.309,9.257,0
341,35.211,-97.449,275.4,12.62,16.687,326,-1.005,2.267,9.175,1
342,35.211,-97.449,274.4,12.19,18.204,328,-1.084,2.294,9.17,0
343,35.211,-97.45,271.1,12.64,18.204,327,-1.146,2.191,9.397,1
344,35.211,-97.45,269.1,12.26,16.687,328,-1.03,2.176,9.415,1
345,35.211,-97.45,268.3,11.8,16.687,326,-0.92,2.527,9.317,1
346,35.211,-97.45,267.5,12.39,16.687,326,-1.375,2.756,9.929,0
347,35.211,-97.45,269,11.94,16.687,323,-1.137,2.987,10.963,0
348,35.211,-97.45,269.7,12.47,16.687,323,-1.095,2.4,9.158,0
349,35.211,-97.45,267.6,12.42,16.687,322,-1.247,2.421,9.213,1
350,35.211,-97.451,270.4,12.67,16.687,322,-1.194,2.408,9.508,1
351,35.211,-97.451,270.2,13.15,16.687,319,-1.382,2.06,9.33,0
352,35.211,-97.451,271.2,13.78,18.204,318,-1.201,2.42,10.325,0
353,35.211,-97.451,271.4,12.08,18.204,319,-1.097,2.328,9.545,0
354,35.211,-97.451,271.2,12.05,18.204,318,-1.001,2.394,9.735,0
355,35.211,-97.451,269,11.68,16.687,317,-0.913,2.213,9.229,0
356,35.211,-97.451,269.9,11.05,16.687,318,-1.19,2.34,9.376,1
357,35.211,-97.451,273.4,10.63,16.687,320,-0.993,2.405,9.428,0
358,35.211,-97.452,269.2,11.42,16.687,321,-0.919,2.354,9.545,0
359,35.211,-97.452,267.2,12.22,16.687,322,-0.923,2.312,9.336,1
360,35.211,-97.452,268.8,13.42,18.204,321,-1.154,2.329,9.424,0
361,35.211,-97.452,271.2,14.08,18.204,317,-0.886,2.246,9.359,1
362,35.211,-97.452,274.3,13.87,19.721,318,-1.121,2.25,9.164,1
363,35.211,-97.452,273.9,14.46,19.721,317,-1.066,2.205,9.551,1
364,35.211,-97.452,270.8,12.94,18.204,316,-0.82,0.814,9.757,0
365,35.211,-97.453,268.9,13.53,16.687,318,-0.859,0.42,9.922,0
366,35.211,-97.453,269,12.87,16.687,319,-1.039,0.926,9.734,1
368,35.211,-97.453,272.2,11.11,18.204,319,-0.77,1.205,9.675,0
368,35.211,-97.453,272.2,11.11,18.204,319,-0.77,1.205,9.675,0
369,35.211,-97.453,273.8,9.32,19.721,320,1.703,0.6,10.392,0
370,35.211,-97.453,277.7,8.18,18.204,319,3.002,2.232,9.568,0
371,35.211,-97.453,291.2,6.05,18.204,319,1.342,2.87,8.926,0
372,35.211,-97.453,305.2,4.96,18.204,319,-0.431,3.654,9.045,0
373,35.211,-97.453,335.2,4.33,18.204,320,-0.813,3.602,8.871,1
374,35.211,-97.453,355.8,3.29,18.204,320,-1.065,3.579,9.082,1
375,35.211,-97.453,10,4.99,18.204,319,-1.295,3.45,8.767,1
376,35.212,-97.453,1.1,5.43,18.204,319,-1.025,2.827,8.977,1
377,35.212,-97.453,358.1,8.67,18.204,317,-1.031,2.751,9.29,0
378,35.212,-97.453,359.8,12.02,16.687,321,-0.885,2.529,9.32,1
379,35.212,-97.453,359.9,12.31,16.687,320,-0.87,2.342,9.636,0
380,35.212,-97.453,359,12.26,16.687,319,-1.062,2.213,9.175,1
381,35.212,-97.453,356.4,12.28,18.204,318,-1.007,2.306,9.377,0
382,35.212,-97.453,356.8,12,18.204,318,-0.941,2.337,9.4,1
383,35.212,-97.453,354.1,13.26,19.721,317,-0.891,2.341,9.433,0
384,35.213,-97.453,359.8,12.87,19.721,316,-0.959,2.305,9.241,0
385,35.213,-97.453,1.3,12.5,19.721,316,-0.96,2.238,9.303,0
386,35.213,-97.453,0.4,12.46,19.721,315,-1.004,2.182,9.034,0
387,35.213,-97.453,359.9,12.44,19.721,314,-0.805,2.274,9.165,0
388,35.213,-97.453,0.9,11.78,18.204,314,-0.737,2.335,9.604,0
389,35.213,-97.453,359.7,11.71,16.687,312,-0.9,2.319,9.038,0
390,35.213,-97.453,0.4,11.29,16.687,311,-0.91,2.199,9.207,0
391,35.213,-97.453,359.8,11.76,16.687,309,-0.842,2.439,9.72,0
392,35.213,-97.453,359.5,11.7,16.687,309,-0.732,2.037,8.875,0
393,35.214,-97.453,0.3,12.32,16.687,306,-1.122,2.412,9.83,0
394,35.214,-97.453,359.8,12.3,15.17,305,-0.796,2.094,9.571,0
395,35.214,-97.453,359.5,12.25,16.687,305,-0.83,1.929,9.255,0
396,35.214,-97.453,0,12.37,16.687,303,-1.298,2,9.238,0
397,35.214,-97.453,0.7,12.2,16.687,303,-0.966,2.171,8.84,0
398,35.214,-97.453,1.3,12.2,18.204,302,-0.812,1.9,9.023,0
399,35.214,-97.453,358.6,11.26,16.687,303,-1.105,1.923,9.168,0
400,35.214,-97.453,357.6,10.69,16.687,302,-1.065,1.854,9.672,0
401,35.214,-97.453,356.8,10.36,16.687,303,-0.836,1.681,9.246,1
402,35.214,-97.453,358.3,10.29,16.687,302,-0.797,1.417,9.713,0
403,35.215,-97.453,358.8,9.61,16.687,302,-1.284,0.715,10.051,0
404,35.215,-97.453,0.2,7.34,15.17,302,-1.895,0.47,11.228,0
405,35.215,-97.453,1.1,5.31,15.17,303,-0.649,0.556,9.499,0
406,35.215,-97.453,1.1,2.94,15.17,305,-0.896,1.71,9.574,0
407,35.215,-97.453,1.1,2.94,15.17,305,-0.972,3.467,9.011,1
408,35.215,-97.453,0.2,0.9,15.17,307,-0.665,3.067,9.061,0
409,35.215,-97.453,353.2,2,15.17,308,-0.8,3.897,8.824,1
410,35.215,-97.453,355.5,2.32,15.17,309,-0.835,3.604,9.174,0
411,35.215,-97.453,358.5,3.31,15.17,311,-1.074,3.206,8.938,0
412,35.215,-97.453,1.9,4.98,15.17,310,-1.018,3.363,9.26,0
413,35.215,-97.453,358.7,5.02,15.17,311,-1.529,3.37,9.125,0
414,35.215,-97.453,359.4,7.04,15.17,311,-1.121,3.292,9.006,1
415,35.215,-97.453,358.9,7.3,15.17,311,-0.821,2.907,9.229,1
416,35.215,-97.453,358.5,8.56,15.17,311,-0.96,3.089,9.097,1
417,35.215,-97.453,0.2,9.29,15.17,311,-1.147,3.085,9.24,1
418,35.215,-97.453,359.9,9.87,15.17,311,-0.88,2.361,9.409,0
419,35.215,-97.453,358.7,10.08,15.17,311,-0.873,2.388,9.667,0
420,35.215,-97.453,0.1,10.15,15.17,309,-1.107,2.025,8.929,0
421,35.216,-97.453,0.1,10.14,15.17,309,-0.964,2.332,9.27,0
422,35.216,-97.453,0.4,9.88,15.17,309,-0.805,2.474,9.138,0
423,35.216,-97.453,0,9.7,13.653,307,-1.275,2.498,9.06,0
424,35.216,-97.453,0.3,9.77,15.17,305,-1.062,2.531,9.224,0
425,35.216,-97.453,0.4,9.73,15.17,306,-1,2.446,9.402,0
426,35.216,-97.453,1.3,9.85,15.17,305,-1.065,2.461,9.383,1
427,35.216,-97.453,3.5,9.79,16.687,304,-0.924,2.494,9.73,0
428,35.216,-97.453,0.2,9.99,18.204,305,-1.109,2.511,9.607,0
429,35.216,-97.453,0.9,10.29,19.721,305,-1.272,2.317,9.153,0
430,35.216,-97.453,359.1,9.84,16.687,305,-1.015,2.451,9.412,0
431,35.216,-97.453,358.6,10,16.687,305,-0.934,2.329,9.316,0
433,35.217,-97.453,359,10.38,18.204,305,-1.017,2.491,9.528,0
433,35.217,-97.453,359,10.38,18.204,305,-1.017,2.491,9.528,0
434,35.217,-97.453,2.7,9.52,19.721,304,-1.148,2.582,8.803,0
435,35.217,-97.453,1.6,9.24,18.204,304,-1.461,2.412,10.778,0
436,35.217,-97.453,1.3,10.08,19.721,306,-0.642,2.339,9.011,0
437,35.217,-97.453,1.9,10.13,18.204,307,-1.121,2.476,9.432,0
438,35.217,-97.453,2.4,9.51,16.687,306,-1.102,2.387,9.335,0
439,35.217,-97.453,358.9,10.12,16.687,305,-1.025,2.427,9.23,1
440,35.217,-97.453,358.9,10.14,16.687,307,-0.821,2.462,9.419,1
441,35.217,-97.453,359.5,9.97,16.687,308,-0.793,2.417,9.304,1
442,35.217,-97.453,358.7,9.93,16.687,307,-0.814,2.435,9.482,1
443,35.217,-97.453,0.9,9.6,16.687,306,-0.794,2.466,9.581,0
444,35.218,-97.453,359.5,10.01,16.687,305,-1.314,2.247,9.342,1
445,35.218,-97.453,351.4,9.57,18.204,305,-1.58,2.067,9.396,1
446,35.218,-97.453,356.2,9.95,16.687,304,-0.634,2.061,9.442,0
447,35.218,-97.453,357.5,9.76,16.687,303,-0.742,1.619,10.125,0
448,35.218,-97.453,357.8,9.23,16.687,303,-1.241,1.231,9.49,0
449,35.218,-97.453,357.6,8.68,18.204,305,-1.005,0.426,9.871,0
450,35.218,-97.453,2.7,7.77,18.204,305,-0.905,0.698,9.811,0
451,35.218,-97.453,3.8,7.95,19.721,303,-0.996,0.647,9.817,0
452,35.218,-97.453,2.9,3.02,18.204,304,-1.033,0.687,9.946,0
453,35.218,-97.453,3.3,2.4,16.687,305,-1.094,2.465,9.211,1
454,35.218,-97.453,0.5,0.36,16.687,306,-1.035,2.374,9.31,1
455,35.218,-97.453,0.5,0.36,16.687,306,-1.053,2.393,9.393,1
456,35.218,-97.453,359.7,0.17,15.17,308,-1.048,2.365,9.287,1
457,35.218,-97.453,0,0.16,15.17,309,-1.055,2.364,9.226,1
458,35.218,-97.453,0,0.16,15.17,309,-1.031,2.37,9.419,1
459,35.218,-97.453,0,0.16,15.17,309,-1.032,2.366,9.246,1
460,35.218,-97.453,0,0.16,15.17,309,-1.052,2.349,9.354,1
461,35.218,-97.453,0,0.16,15.17,309,-1.044,2.349,9.296,1
462,35.218,-97.453,0,0,15.17,310,-1.042,2.345,9.217,1
463,35.218,-97.453,0,0,15.17,310,-1.052,2.355,9.259,1
464,35.218,-97.453,0,0,15.17,310,-1.039,2.386,9.389,1
465,35.218,-97.453,0,0,15.17,311,-1.053,2.376,9.303,1
466,35.218,-97.453,0,0,15.17,311,-1.041,2.372,9.336,1
467,35.218,-97.453,0,0,15.17,311,-1.042,2.693,9.301,1
468,35.218,-97.453,0,0,15.17,311,-1.049,2.606,9.361,1
469,35.218,-97.453,0,0,15.17,311,-1.051,2.419,9.285,1
470,35.218,-97.453,0,0,15.17,311,-1.063,2.155,9.443,1
471,35.218,-97.453,0,0,15.17,311,-1.05,1.961,9.332,1
472,35.218,-97.453,0,0,15.17,311,-1.06,2.365,9.451,1
473,35.218,-97.453,0,0,15.17,311,-1.034,2.343,9.358,1
474,35.218,-97.453,0,0,15.17,311,-1.052,2.355,9.438,1
475,35.218,-97.453,0,0,15.17,311,-1.054,2.377,9.264,1
476,35.218,-97.453,0,0,15.17,311,-1.065,2.801,9.133,1
477,35.218,-97.453,0,0,15.17,311,-1.025,1.9,9.42,1
478,35.218,-97.453,0,0,15.17,311,-1.044,2.26,9.312,1
479,35.218,-97.453,0,0,15.17,311,-1.063,2.302,9.283,1
480,35.218,-97.453,0,0,15.17,311,-1.1,2.229,9.325,1
481,35.218,-97.453,0,0,15.17,311,-1.05,2.799,9.126,1
482,35.218,-97.453,0,0,15.17,311,-1.08,2.681,9.306,1
483,35.218,-97.453,0,0,15.17,311,-1.026,1.948,9.424,1
484,35.218,-97.453,0,0,15.17,311,-1.03,2.29,9.43,1
485,35.218,-97.453,0,0,15.17,311,-1.017,2.178,9.373,1
486,35.218,-97.453,0,0,15.17,311,-1.023,2.299,9.312,1
487,35.218,-97.453,0,0,15.17,311,-1.017,2.458,9.27,1
488,35.218,-97.453,0,0,15.17,311,-1.024,2.219,9.486,1
489,35.218,-97.453,0,0,15.17,311,-1.065,1.957,9.461,1
490,35.218,-97.453,0,0,15.17,311,-1.013,2.22,9.484,1
491,35.218,-97.453,0,0,15.17,311,-1.015,2.26,9.498,1
492,35.218,-97.453,0,0,15.17,311,-1.02,2.264,9.284,1
493,35.218,-97.453,0,0,15.17,311,-1.03,2.626,9.188,1
494,35.218,-97.453,0,0,15.17,311,-1.036,2.671,9.392,1
495,35.218,-97.453,0,0,15.17,311,-0.999,2.433,9.184,1
496,35.218,-97.453,0,0,15.17,311,-0.993,2.033,9.36,1
497,35.218,-97.453,0,0,15.17,311,-0.948,2.068,9.491,1
498,35.218,-97.453,0,0,15.17,311,-0.948,2.451,9.358,1
499,35.218,-97.453,0,0,15.17,311,-0.957,2.718,9.199,1
500,35.218,-97.453,0,0,15.17,311,-0.908,2.641,9.289,1
501,35.218,-97.453,0,0,15.17,311,-0.91,2.668,9.239,1
502,35.218,-97.453,0,0,15.17,311,-0.964,4.028,8.779,1
503,35.218,-97.453,0,0,15.17,311,-1.802,3.704,8.526,0
504,35.218,-97.453,0,0,15.17,311,-2.937,3.238,9.513,0
506,35.218,-97.453,348.7,4.59,15.17,313,-3.593,3.24,8.995,0
506,35.218,-97.453,348.7,4.59,15.17,313,-3.593,3.24,8.995,0
507,35.218,-97.453,313.2,6.61,15.17,310,-4.216,3.017,8.5,0
508,35.218,-97.453,288.5,7.43,15.17,310,-2.745,3.425,8.967,0
509,35.218,-97.453,287.8,7.4,15.17,310,-0.922,3.496,8.536,0
510,35.218,-97.453,279.9,8.53,15.17,311,-0.797,3.353,8.549,0
511,35.218,-97.453,280.4,8.61,16.687,311,-0.851,3.174,8.785,0
512,35.218,-97.454,283.6,8.63,18.204,310,-0.704,3.014,8.487,0
513,35.218,-97.454,277.3,8.76,18.204,311,-0.696,2.903,9.091,0
514,35.218,-97.454,274.3,8.94,18.204,313,-0.693,2.542,9.046,0
515,35.219,-97.454,278.3,10.67,18.204,313,-0.689,2.289,9.377,0
516,35.219,-97.454,275,13.44,19.721,312,-0.832,2.213,9.56,0
517,35.219,-97.454,275.1,16.95,18.204,313,-0.95,2.395,9.553,0
518,35.219,-97.455,270.5,14.63,18.204,314,-0.893,2.416,9.415,0
519,35.218,-97.455,267.5,15.37,18.204,314,-0.732,2.264,9.379,0
520,35.218,-97.455,264.1,16.52,18.204,314,-0.912,2.507,9.474,0
521,35.218,-97.455,263.9,14.15,18.204,312,-0.801,2.51,9.408,0
522,35.218,-97.455,266.6,14.22,18.204,312,-0.617,2.249,9.43,0
523,35.218,-97.455,270.1,12.94,18.204,314,-0.809,2.344,9.809,0
524,35.219,-97.455,279,12.78,19.721,318,-0.655,0.857,9.814,0
525,35.219,-97.456,276.8,14.01,18.204,318,-0.829,0.677,9.695,0
526,35.219,-97.456,275.7,12.54,21.238,319,-0.788,0.642,9.988,0
527,35.218,-97.456,270.9,11.46,19.721,319,-0.715,1.188,9.837,0
528,35.219,-97.456,283.4,11.15,19.721,320,-0.78,0.491,10.073,0
529,35.219,-97.456,276.2,10.47,19.721,319,-0.587,0.187,9.793,0
530,35.219,-97.456,270.2,11.17,21.238,320,-0.683,-0.036,10.134,0
531,35.219,-97.456,277.8,8.5,19.721,318,-0.709,2.64,9.168,1
532,35.219,-97.456,279.2,8.62,21.238,315,-0.762,2.348,9.271,1
533,35.219,-97.456,272.2,5.11,21.238,314,-0.756,2.348,9.27,1
534,35.219,-97.456,258.4,2.54,19.721,314,-0.747,2.359,9.47,1
535,35.219,-97.456,282.7,2.13,21.238,314,-0.748,2.352,9.241,1
536,35.219,-97.456,338.3,1.02,19.721,314,-0.756,2.325,9.259,1
537,35.219,-97.456,1.7,1.17,21.238,314,-0.751,2.344,9.245,1
538,35.219,-97.456,207.8,0.16,21.238,312,-0.762,2.329,9.288,1
539,35.218,-97.456,164.5,1.84,21.238,313,-0.754,2.361,9.427,1
540,35.218,-97.456,152.8,2.9,21.238,314,-0.756,2.333,9.342,1
541,35.218,-97.456,169.1,3.31,21.238,316,-0.758,2.355,9.32,1
542,35.218,-97.456,155.7,2.07,19.721,315,-0.753,2.325,9.264,1
543,35.218,-97.456,186.9,1.43,19.721,314,-0.753,2.364,9.423,1
544,35.218,-97.456,357.9,0.51,19.721,315,-0.729,2.347,9.216,1
545,35.218,-97.456,62.5,1.6,19.721,315,-0.744,2.346,9.238,1
546,35.218,-97.456,58.4,2.55,19.721,317,-0.747,2.347,9.27,1
547,35.218,-97.456,69.6,0.78,18.204,315,-0.742,2.342,9.297,1
548,35.218,-97.456,92.5,1.33,18.204,316,-0.752,2.346,9.301,1
549,35.218,-97.456,92.5,1.33,18.204,316,-0.76,2.342,9.331,1
550,35.218,-97.456,92.5,1.33,18.204,316,-0.757,2.365,9.25,1
551,35.218,-97.456,293.7,0.29,16.687,319,-0.742,2.356,9.465,1
552,35.218,-97.456,326.8,0.24,16.687,319,-0.762,2.363,9.37,1
553,35.218,-97.456,326.8,0.24,16.687,319,-0.75,2.352,9.244,1
554,35.218,-97.456,304,0.23,16.687,322,-0.738,2.326,9.26,1
555,35.218,-97.456,304,0.23,16.687,322,-0.752,2.343,9.408,1
556,35.218,-97.456,304,0.23,16.687,322,-0.747,2.342,9.451,1
557,35.218,-97.456,304,0.23,16.687,322,-0.73,2.335,9.261,1
558,35.218,-97.456,304,0.23,16.687,322,-0.768,2.357,9.373,1
559,35.218,-97.456,0,0,15.17,321,-0.749,2.354,9.438,1
560,35.218,-97.456,0,0,15.17,321,-0.745,2.346,9.406,1
561,35.218,-97.456,0,0,15.17,321,-0.763,2.357,9.26,1
562,35.218,-97.456,0,0,15.17,321,-0.753,2.343,9.286,1
563,35.218,-97.456,0,0,15.17,321,-0.752,2.351,9.363,1
564,35.218,-97.456,0,0,15.17,321,-0.754,2.343,9.456,1
565,35.218,-97.456,0,0,15.17,321,-0.753,2.368,9.349,1
566,35.218,-97.456,0,0,15.17,321,-0.752,2.363,9.432,1
567,35.218,-97.456,0,0,15.17,321,-0.752,2.349,9.269,1
568,35.218,-97.456,0,0,15.17,321,-0.758,2.362,9.478,1
569,35.218,-97.456,0,0,15.17,321,-0.743,2.334,9.247,1
570,35.218,-97.456,0,0,15.17,321,-0.76,2.358,9.327,1
571,35.218,-97.456,0,0,15.17,321,-0.752,2.35,9.488,1
572,35.218,-97.456,0,0,15.17,321,-0.745,2.348,9.21,1
573,35.218,-97.456,0,0,15.17,321,-0.763,2.35,9.343,1
574,35.218,-97.456,0,0,15.17,321,-0.757,2.347,9.423,1
575,35.218,-97.456,0,0,15.17,321,-0.756,2.354,9.432,1
576,35.218,-97.456,0,0,15.17,321,-0.741,2.355,9.451,1
577,35.218,-97.456,0,0,15.17,321,-0.764,2.354,9.418,1
578,35.218,-97.456,0,0,15.17,321,-0.76,2.332,9.435,1
579,35.218,-97.456,0,0,15.17,321,-0.733,2.349,9.248,1
580,35.218,-97.456,0,0,15.17,321,-0.747,2.358,9.446,1
581,35.218,-97.456,0,0,15.17,321,-0.749,2.356,9.455,1
582,35.218,-97.456,0,0,15.17,321,-0.743,2.343,9.4,1
583,35.218,-97.456,0,0,15.17,321,-0.762,2.68,9.271,1
584,35.218,-97.456,0,0,15.17,321,-0.716,4.757,8.627,1
585,35.218,-97.456,0,0,15.17,321,-0.715,4.239,8.781,0
587,35.218,-97.456,0,0,15.17,321,-0.793,4.124,8.659,0
587,35.218,-97.456,0,0,15.17,321,-0.793,4.124,8.659,0
588,35.218,-97.456,270,5.98,15.17,319,-0.813,3.912,9.078,1
589,35.218,-97.456,268.6,7.34,15.17,319,-0.814,3.607,9.297,0
590,35.218,-97.456,269.4,7.73,15.17,311,-0.719,2.904,8.938,0
591,35.218,-97.457,270.1,8.24,16.687,310,-0.731,3.065,9.173,1
592,35.218,-97.457,270.9,8.59,16.687,308,-0.74,2.972,9.014,0
593,35.219,-97.457,285.4,8.95,18.204,312,-0.704,3.076,8.732,1
594,35.219,-97.457,281.8,9.37,19.721,311,-0.844,2.59,9.35,0
595,35.219,-97.457,274.3,9.68,19.721,313,-0.793,2.786,9.421,0
596,35.219,-97.457,275.1,10.6,21.238,313,-0.756,2.602,8.99,0
597,35.219,-97.457,270,11.02,21.238,314,-0.637,2.795,9.302,0
598,35.219,-97.457,270.9,12.24,21.238,312,-0.783,2.164,9.028,0
599,35.218,-97.458,268.2,13.01,21.238,308,-0.583,2.21,9.532,0
600,35.219,-97.458,274.8,12.99,19.721,309,-0.722,2.569,9.048,1
601,35.219,-97.458,274.5,13.81,21.238,310,-0.982,2.177,9.376,0
602,35.219,-97.458,272.9,12.01,21.238,309,-0.737,2.195,9.404,0
603,35.219,-97.458,266.1,10.93,24.272,308,-1.021,2.429,9.901,0
604,35.219,-97.458,273.6,12.37,22.755,307,-0.833,2.296,9.072,0
605,35.219,-97.458,273.8,12.73,24.272,308,-0.806,2.409,9.685,0
606,35.219,-97.459,264,12.22,22.755,308,-0.718,2.427,9.083,0
607,35.219,-97.459,272.4,13.45,21.238,307,-0.938,2.498,9.256,1
608,35.219,-97.459,273.2,13.92,21.238,307,-0.788,2.662,9.143,0
609,35.219,-97.459,271.5,13.49,21.238,305,-0.819,2.665,8.809,0
610,35.219,-97.459,274.7,14.21,21.238,306,-0.858,2.605,9.036,0
611,35.219,-97.459,271.7,13.98,21.238,307,-0.929,2.517,9.094,0
612,35.219,-97.459,270.4,13.47,21.238,306,-0.816,2.746,9.262,0
613,35.219,-97.46,267.7,16.31,21.238,302,-0.972,2.882,9.64,0
614,35.219,-97.46,272.7,15.69,21.238,304,-0.8,2.766,9.407,0
615,35.219,-97.46,271.2,15.27,19.721,305,-0.967,2.815,9.704,0
616,35.219,-97.46,269.2,14.45,21.238,308,-0.709,2.182,8.997,0
617,35.219,-97.46,267.2,14.39,21.238,309,-0.772,2.042,8.932,0
618,35.219,-97.46,268.8,15.07,21.238,307,-0.884,2.209,9.642,0
619,35.219,-97.461,270,14.41,22.755,307,-0.986,2.098,9.128,0
620,35.219,-97.461,267.1,14.79,22.755,308,-0.782,2.188,9.818,0
621,35.219,-97.461,261.9,14.91,21.238,307,-0.802,2.455,9.103,0
622,35.218,-97.461,260.8,15.57,21.238,309,-0.866,2.524,9.288,0
623,35.219,-97.461,267.3,15.62,19.721,309,-0.904,2.609,9.589,0
624,35.219,-97.462,269.7,15.85,19.721,312,-0.791,2.483,9.479,0
625,35.219,-97.462,269.6,14.45,19.721,311,-0.633,2.164,9.558,0
626,35.219,-97.462,271.5,15.92,18.204,311,-0.674,2.085,8.848,0
627,35.219,-97.462,269.9,16.09,19.721,311,-0.85,2.143,8.612,0
628,35.219,-97.462,271.9,16.71,19.721,310,-0.972,2.408,9.563,0
629,35.219,-97.462,271.3,15.75,19.721,309,-0.791,2.275,9.251,0
630,35.218,-97.462,265.9,13.81,19.721,309,-0.883,2.337,9.512,0
631,35.218,-97.463,266.7,14.03,21.238,307,-0.905,2.358,9.467,1
632,35.218,-97.463,267.4,14.1,19.721,307,-0.417,2.2,9.004,0
633,35.219,-97.463,270.5,14.2,21.238,310,-0.821,2.373,9.557,0
634,35.219,-97.463,271,12.79,21.238,311,-0.962,2.507,9.29,0
635,35.219,-97.463,276,15.13,21.238,312,-0.882,2.592,9.279,0
636,35.219,-97.463,281.8,14.24,22.755,310,-0.761,2.526,8.956,1
637,35.219,-97.464,274.8,15.48,22.755,310,-0.675,2.45,9.239,0
638,35.219,-97.464,272,15.55,22.755,311,-0.546,2.392,9.591,0
639,35.219,-97.464,268.1,15.7,22.755,312,-0.769,2.249,9.412,0
