time,lat,lng,bearing,spd,acc,alt,accx,accy,accz,stable,
0,35.406,-97.595,268.9,11.5,6.068,358,0.362,2.717,9.066,1
1,35.406,-97.595,271.1,12.73,6.068,358,-0.044,2.627,9.203,1
2,35.406,-97.596,270.5,13.85,6.068,358,-0.541,2.467,9.241,1
3,35.406,-97.596,269,14.84,4.551,358,-0.297,2.311,9.27,1
4,35.406,-97.596,268.7,15.51,4.551,358,-0.023,2.167,9.326,1
5,35.406,-97.596,269.7,16.08,4.551,358,-0.146,1.809,9.324,1
6,35.406,-97.596,270.1,16.35,4.551,359,-0.273,1.409,9.524,1
7,35.406,-97.596,270.6,16.36,4.551,359,-0.342,1.426,9.525,1
8,35.406,-97.597,269.9,16.23,4.551,360,-0.275,1.407,9.462,1
9,35.406,-97.597,269.7,16.19,4.551,359,-0.202,1.388,9.454,1
10,35.406,-97.597,270.6,16.28,4.551,359,-0.258,1.283,9.464,1
11,35.406,-97.597,270.3,16.15,4.551,359,-0.327,1.186,9.59,1
12,35.406,-97.597,269.9,15.89,4.551,359,-0.282,1.138,9.523,1
13,35.406,-97.597,269,15.55,4.551,359,-0.23,1.16,9.625,1
14,35.406,-97.598,270.7,15.58,4.551,359,-0.103,1.157,9.633,1
15,35.406,-97.598,270.1,15.23,4.551,360,-0.186,1.159,9.623,1
16,35.406,-97.598,269.9,14.96,4.551,359,-0.328,1.133,9.477,1
17,35.406,-97.598,270,14.8,4.551,359,-0.283,1.131,9.517,1
18,35.406,-97.598,269.2,14.48,4.551,360,-0.11,1.141,9.528,1
19,35.406,-97.598,269.1,14.22,4.551,361,-0.212,1.151,9.57,1
20,35.406,-97.599,269.6,14.11,4.551,361,-0.069,1.144,9.594,1
21,35.406,-97.599,270.3,13.85,4.551,361,-0.16,0.303,9.734,1
22,35.406,-97.599,270.4,13.21,4.551,361,-0.213,-0.456,9.951,1
23,35.406,-97.599,270.3,11.11,4.551,361,-0.173,-0.655,9.973,1
24,35.406,-97.599,270,8.88,4.551,361,-0.18,0.176,9.777,1
25,35.406,-97.599,270.2,7.35,4.551,361,-0.151,0.718,9.705,1
26,35.406,-97.599,269.9,6.88,4.551,360,-0.196,0.314,9.705,1
27,35.406,-97.599,269.3,5.7,4.551,360,-0.23,0.333,9.785,1
28,35.406,-97.599,269.7,4.67,4.551,360,-0.198,0.192,9.775,1
29,35.406,-97.599,270.1,3.48,4.551,360,-0.169,0.193,9.753,1
30,35.406,-97.599,269.1,2.1,4.551,360,-0.17,0.386,9.744,1
31,35.406,-97.599,268.7,1.23,4.551,360,-0.18,0.444,9.73,1
32,35.406,-97.599,268.7,1.23,4.551,360,-0.154,1.223,9.537,1
33,35.406,-97.599,268.7,1.23,4.551,360,-0.151,1.341,9.51,1
34,35.406,-97.599,268.7,1.23,4.551,360,-0.153,1.369,9.505,1
35,35.406,-97.599,268.7,1.23,4.551,360,-0.151,1.374,9.502,1
36,35.406,-97.599,268.7,1.23,4.551,360,-0.15,1.377,9.501,1
37,35.406,-97.599,268.7,1.23,4.551,360,-0.15,1.377,9.502,1
38,35.406,-97.599,268.7,1.23,4.551,360,-0.149,1.377,9.502,1
39,35.406,-97.599,268.7,1.23,4.551,360,-0.152,1.377,9.5,1
40,35.406,-97.599,268.7,1.23,4.551,360,-0.151,1.378,9.5,1
41,35.406,-97.599,268.7,1.23,4.551,360,-0.15,1.375,9.501,1
42,35.406,-97.599,268.7,1.23,4.551,360,-0.151,1.379,9.502,1
43,35.406,-97.599,268.7,1.23,4.551,360,-0.151,1.377,9.502,1
44,35.406,-97.599,268.7,1.23,4.551,360,-0.148,1.378,9.5,1
45,35.406,-97.599,268.7,1.23,4.551,360,-0.149,1.376,9.5,1
46,35.406,-97.599,268.7,1.23,4.551,360,-0.151,1.378,9.502,1
47,35.406,-97.599,268.7,1.23,4.551,360,-0.151,1.378,9.498,1
48,35.406,-97.599,268.7,1.23,4.551,360,-0.151,1.38,9.499,1
49,35.406,-97.599,268.7,1.23,4.551,360,-0.147,1.378,9.499,1
50,35.406,-97.599,268.7,1.23,4.551,360,-0.09,3.31,9.003,1
51,35.406,-97.6,265.6,2.54,4.551,362,-0.053,3.991,8.856,1
52,35.406,-97.6,269.3,5.46,4.551,361,-0.092,3.448,8.974,1
53,35.406,-97.6,269.7,6.75,4.551,361,-0.875,2.128,9.308,1
54,35.406,-97.6,262,7.36,4.551,360,-2.544,1.593,9.6,0
55,35.406,-97.6,250.1,6.61,4.551,360,-3.246,1.97,9.444,0
56,35.406,-97.6,201,7.76,4.551,360,-3.749,2.156,9.36,0
57,35.406,-97.6,193.2,8.01,4.551,361,-2.633,2.712,9.129,0
58,35.406,-97.6,170,9.63,4.551,360,-1.557,2.411,9.291,0
59,35.406,-97.6,164.9,10.4,4.551,361,-0.909,2.313,9.267,0
60,35.406,-97.6,161.4,11.51,4.551,360,-0.407,2.288,9.287,0
61,35.406,-97.6,160.4,12.67,4.551,362,-0.202,2.24,9.406,0
62,35.406,-97.6,161.1,13.55,4.551,362,-0.131,1.885,9.351,0
63,35.405,-97.6,161,13.81,4.551,362,-0.063,1.791,9.37,0
64,35.405,-97.6,161,13.99,4.551,363,0.054,1.919,9.343,0
65,35.405,-97.599,161.4,14.5,6.068,360,0.039,1.851,9.337,1
66,35.405,-97.599,161.2,14.8,6.068,361,0.02,1.848,9.41,1
67,35.405,-97.599,161.4,15.53,6.068,361,-0.351,1.718,9.443,1
68,35.405,-97.599,161.1,14.88,6.068,361,-0.199,1.693,9.44,1
70,35.405,-97.599,160.9,15.78,6.068,360,-0.099,1.339,9.479,1
71,35.405,-97.599,160.5,15.24,6.068,361,-0.096,1.191,9.549,1
72,35.404,-97.599,160.3,15,6.068,361,-0.032,1.305,9.499,1
73,35.404,-97.599,160.6,14.93,6.068,362,-0.014,1.82,9.408,1
74,35.404,-97.599,161.1,15.24,6.068,362,-0.095,1.987,9.303,1
75,35.404,-97.599,160.8,15.72,6.068,363,-0.168,1.762,9.426,1
76,35.404,-97.599,160.6,15.89,6.068,363,-0.175,1.606,9.417,1
77,35.404,-97.599,160.8,15.96,6.068,362,-0.277,1.808,9.391,1
78,35.404,-97.599,160.9,16.31,6.068,362,-0.169,2.055,9.351,1
79,35.403,-97.599,160.6,17.06,6.068,362,-0.051,1.929,9.348,1
80,35.403,-97.599,160.5,17.5,6.068,362,-0.129,1.883,9.353,1
81,35.403,-97.599,160.9,17.82,6.068,363,-0.182,1.889,9.418,1
82,35.403,-97.599,160.5,18.2,6.068,364,-0.069,1.511,9.514,1
83,35.403,-97.598,160.7,18.34,6.068,363,-0.099,1.221,9.479,1
84,35.403,-97.598,160.7,17.99,6.068,364,-0.154,1.198,9.549,1
85,35.403,-97.598,160.6,17.6,6.068,365,-0.15,1.263,9.445,1
86,35.402,-97.598,160.7,17.49,6.068,365,-0.197,1.712,9.438,1
87,35.402,-97.598,160.4,17.79,6.068,365,-0.117,1.612,9.426,1
88,35.402,-97.598,161.1,17.8,6.068,366,-0.075,1.721,9.448,1
89,35.402,-97.598,161.3,17.92,6.068,365,0.072,1.545,9.411,1
90,35.402,-97.598,162.1,18.06,6.068,365,-0.066,1.495,9.368,1
91,35.402,-97.598,162.6,18.19,6.068,365,-0.11,1.585,9.489,1
92,35.401,-97.598,163.4,18.08,6.068,365,-0.067,1.855,9.396,1
93,35.401,-97.598,163.6,18.38,6.068,359,0.004,1.829,9.369,1
94,35.401,-97.598,165.2,18.78,6.068,361,-0.125,1.772,9.434,1
95,35.401,-97.598,165.4,19.02,6.068,363,-0.083,1.588,9.541,1
96,35.401,-97.598,166.4,19.04,6.068,363,-0.075,1.27,9.577,1
97,35.401,-97.598,167.1,18.5,6.068,364,-0.014,1.233,9.488,1
98,35.4,-97.598,167.3,18.73,6.068,364,0.067,1.193,9.461,1
99,35.4,-97.598,168,18.59,6.068,364,0.166,1.19,9.504,1
100,35.4,-97.598,169.5,18.29,6.068,364,0.356,1.344,9.577,1
101,35.4,-97.597,171.4,18.13,6.068,364,0.287,1.398,9.523,1
102,35.4,-97.597,172.3,18.16,6.068,364,0.241,0.537,9.598,1
103,35.4,-97.597,173.2,17.41,7.585,364,0.051,0.894,9.554,1
104,35.4,-97.597,173.1,16.64,7.585,364,0.139,1.094,9.506,1
105,35.399,-97.597,173.2,16.68,9.102,363,0.075,1.048,9.664,1
106,35.399,-97.597,175.9,16.26,9.102,362,-0.077,1.103,9.73,1
107,35.399,-97.597,178.2,15.98,9.102,362,0.087,0.891,9.621,1
108,35.399,-97.597,178.7,15.8,7.585,362,0.146,0.816,9.652,1
109,35.399,-97.597,178.2,16.25,9.102,362,-0.022,1.087,9.497,1
110,35.399,-97.597,177.9,16.51,10.619,361,-0.078,1.101,9.321,1
111,35.399,-97.597,180.2,13.81,9.102,360,0.226,1.182,9.695,1
112,35.398,-97.597,180.8,13.12,9.102,362,0.114,1.185,9.634,1
113,35.398,-97.597,180.6,13,7.585,361,0.113,1.16,9.54,1
114,35.398,-97.597,181.1,12.88,9.102,364,0.08,1.138,9.46,1
115,35.398,-97.597,180.1,11.88,15.17,366,0.087,1.157,9.545,1
116,35.398,-97.597,179.8,11.85,15.17,366,0.07,1.118,9.421,1
117,35.398,-97.597,177.9,12.41,15.17,366,0.199,1.15,9.244,1
118,35.398,-97.597,178.7,12.12,15.17,365,0.444,1.813,9.308,1
119,35.398,-97.597,184,11.17,16.687,365,0.596,2.553,9.115,1
120,35.397,-97.597,184.8,12.28,16.687,365,0.511,2.63,9.095,1
121,35.397,-97.597,184.8,14.2,15.17,365,0.053,2.163,9.304,1
122,35.397,-97.597,185.2,14.21,16.687,364,-0.075,1.976,9.205,1
123,35.397,-97.597,181.3,15.59,16.687,363,-0.048,1.629,9.381,1
124,35.397,-97.597,183.4,14.8,16.687,364,-0.352,1.592,9.502,1
125,35.397,-97.597,177.2,15.94,15.17,364,-0.925,1.279,9.537,1
126,35.397,-97.597,172.9,15.74,15.17,364,-1.223,1.185,9.482,1
127,35.396,-97.597,167,15.45,15.17,364,-1.167,1.219,9.662,1
128,35.396,-97.597,163.8,14.8,15.17,363,-1.237,0.793,9.801,1
129,35.396,-97.597,158.6,15.27,15.17,363,-0.874,-0.634,10.095,0
130,35.396,-97.597,157.8,14.74,16.687,363,-0.583,-1.006,10.141,0
131,35.396,-97.597,155.6,10.1,16.687,363,-0.286,-1.25,10.161,0
132,35.396,-97.597,151.3,8.57,18.204,363,-0.014,-0.68,9.996,0
133,35.396,-97.597,148.1,8.21,19.721,363,0.22,0.601,9.884,0
135,35.396,-97.597,146.2,5.78,19.721,362,0.154,2.975,9.107,0
136,35.396,-97.597,143.2,4.68,19.721,361,-0.105,2.635,9.164,0
137,35.396,-97.597,142.9,5.16,19.721,361,-0.29,1.715,9.389,0
138,35.396,-97.597,134.6,5.51,19.721,361,-0.131,1.025,9.629,0
139,35.396,-97.597,136.1,5.35,21.238,361,-0.025,0.605,9.677,0
140,35.396,-97.597,134.1,4.76,19.721,361,-0.065,0.509,9.74,0
141,35.396,-97.597,143.8,4.14,19.721,361,0.038,0.495,9.696,0
142,35.396,-97.597,149.3,2.76,19.721,361,0.095,0.758,9.633,1
143,35.396,-97.597,154.6,2.08,21.238,360,0.14,1.164,9.55,1
144,35.396,-97.597,86.3,0.61,21.238,361,0.152,1.516,9.461,1
145,35.396,-97.597,91.9,1.47,21.238,360,0.169,1.596,9.433,1
146,35.396,-97.597,80.1,0.83,22.755,359,0.175,1.6,9.449,1
147,35.396,-97.597,119.5,1.74,24.272,360,0.219,1.35,9.496,1
148,35.396,-97.597,94,1.73,22.755,359,0.23,0.513,9.69,1
149,35.396,-97.597,96.6,0.79,22.755,358,0.237,0.754,9.635,1
150,35.396,-97.597,96.6,0.79,22.755,358,0.252,1.727,9.383,1
151,35.396,-97.597,96.6,0.79,22.755,358,0.251,2.181,9.276,1
152,35.396,-97.597,122.1,0.72,30.34,359,0.318,1.802,9.213,1
153,35.396,-97.597,117.1,1.07,30.34,359,0.203,2.111,9.313,1
154,35.396,-97.597,98,1.69,31.857,359,0.102,2.682,9.183,1
155,35.396,-97.597,90,2.38,33.374,358,0.049,2.745,9.117,1
156,35.396,-97.597,87,2.82,33.374,359,0.012,2.034,9.322,1
157,35.396,-97.597,102.1,3.85,33.374,357,0.038,1.839,9.4,1
158,35.396,-97.597,100,3.85,34.891,356,-0.093,1.727,9.433,1
159,35.396,-97.596,97.9,3.32,33.374,356,-0.154,1.471,9.45,1
160,35.396,-97.596,87.8,3.42,34.891,356,-0.19,1.367,9.498,1
161,35.396,-97.596,90.7,4.47,34.891,356,-0.221,1.094,9.588,1
162,35.396,-97.596,96.4,3.86,34.891,356,-0.114,0.759,9.64,1
163,35.396,-97.596,96.2,2.57,34.891,355,-0.078,1.121,9.561,1
164,35.396,-97.596,97.2,3.19,37.925,355,-0.023,1.553,9.45,1
165,35.396,-97.596,93.8,3.42,39.442,354,0.041,1.094,9.541,1
166,35.396,-97.596,95.1,2.64,43.993,354,0.087,0.331,9.722,1
167,35.396,-97.596,87.6,2.21,45.51,355,0.121,0.094,9.791,1
168,35.396,-97.596,76.5,2.18,48.544,355,0.147,0.295,9.746,1
169,35.396,-97.596,60.8,1.26,48.544,355,0.172,1.407,9.482,1
170,35.396,-97.596,60.8,1.26,48.544,355,0.195,2.131,9.306,1
171,35.396,-97.596,32.6,0.79,48.544,355,0.213,1.781,9.47,1
172,35.396,-97.596,29.4,0.59,45.51,355,0.117,2.261,9.267,1
173,35.396,-97.596,37.1,0.65,47.027,355,0.043,2.163,9.315,1
174,35.396,-97.596,28.2,0.94,45.51,356,0.077,2.711,9.15,1
175,35.396,-97.596,38.4,1.11,45.51,355,0.011,2.774,9.096,1
176,35.396,-97.596,35.6,3.2,48.544,355,-0.063,2.582,9.204,1
177,35.396,-97.596,41.7,3.98,51.578,355,-0.066,2.237,9.339,1
178,35.396,-97.596,47.2,4.63,53.095,355,-0.166,1.813,9.394,1
179,35.396,-97.596,71,5.06,53.095,357,-0.218,1.384,9.516,1
180,35.396,-97.596,65.4,6.28,54.612,356,-0.299,1.557,9.473,1
181,35.396,-97.596,57,6,50.061,354,-0.424,1.604,9.458,1
182,35.396,-97.596,55.4,6.75,53.095,355,-0.436,1.791,9.424,1
183,35.396,-97.595,54.8,7.29,53.095,357,-0.386,1.757,9.506,1
184,35.396,-97.595,52.9,8.1,43.993,360,-0.35,1.732,9.398,1
185,35.396,-97.595,46,8.47,36.408,360,-0.432,1.711,9.474,1
186,35.396,-97.595,35,9.19,24.272,362,-0.612,1.691,9.468,1
187,35.396,-97.595,29.1,9.44,21.238,366,-0.608,1.669,9.46,1
188,35.396,-97.595,25.3,9.79,19.721,366,-0.704,1.601,9.558,1
189,35.396,-97.595,23,10,18.204,366,-0.744,1.293,9.504,1
190,35.397,-97.595,16.7,9.77,16.687,364,-0.689,1.275,9.526,1
191,35.397,-97.595,9.9,9.86,15.17,363,-0.709,1.406,9.493,1
192,35.397,-97.595,7.4,9.5,15.17,364,-0.735,1.501,9.46,1
193,35.397,-97.595,8.2,9.55,15.17,364,-0.517,1.409,9.426,1
194,35.397,-97.595,357.9,9.07,15.17,365,-0.171,1.279,9.515,1
195,35.397,-97.595,353.9,9.35,15.17,365,-0.069,0.86,9.616,1
196,35.397,-97.595,351,9.07,15.17,365,-0.05,-0.131,9.865,1
197,35.397,-97.595,349,8.21,13.653,366,0.116,-0.542,9.978,1
198,35.397,-97.595,355.4,4.43,15.17,365,0.195,-0.709,9.983,0
199,35.397,-97.595,356.3,2.85,13.653,364,0.222,0.849,9.642,0
200,35.397,-97.595,350.5,2.48,15.17,364,0.223,1.484,9.431,0
201,35.397,-97.595,350.6,2.74,13.653,364,0.329,2.064,9.307,0
202,35.397,-97.595,348.1,2.88,13.653,364,0.348,1.408,9.47,0
203,35.397,-97.595,351.4,2.3,13.653,364,0.205,0.392,9.742,0
204,35.397,-97.595,7.9,1.03,13.653,363,0.133,0.447,9.699,0
205,35.397,-97.595,348.8,0.84,13.653,363,0.166,2.45,9.241,0
206,35.397,-97.595,343.4,1.62,15.17,363,0.178,3.528,8.948,0
207,35.397,-97.595,353.5,4.43,13.653,363,0.378,3.385,9.035,1
208,35.397,-97.595,357.3,6.61,13.653,363,0.486,3.22,8.998,1
209,35.398,-97.595,1.7,8.26,13.653,363,0.438,2.985,9.13,1
210,35.398,-97.595,359.7,8.51,13.653,363,0.239,2.762,9.198,1
211,35.398,-97.595,356,9.78,15.17,363,0.143,2.452,9.31,1
212,35.398,-97.595,350.7,10.92,16.687,362,0.079,2.148,9.405,1
213,35.398,-97.595,354.4,10.98,16.687,363,0.126,2.13,9.305,1
214,35.398,-97.595,0.3,11.63,16.687,364,0.131,2.185,9.277,1
215,35.398,-97.595,357.6,12.34,16.687,365,0.189,2.169,9.281,1
216,35.398,-97.595,359.5,13.89,16.687,364,0.193,2.147,9.293,1
217,35.398,-97.595,0.2,14.16,15.17,364,0.168,2.125,9.314,1
218,35.399,-97.595,0.8,15.26,15.17,365,0.076,2.072,9.431,1
219,35.399,-97.595,359.3,15.69,15.17,365,0.034,1.664,9.212,1
220,35.399,-97.595,359.6,15.91,15.17,364,0.075,1.806,9.478,1
221,35.399,-97.595,2.1,16.65,15.17,365,0.058,1.627,9.588,1
222,35.399,-97.595,359.2,16.39,13.653,364,-0.166,1.585,9.487,1
223,35.399,-97.595,357.2,16.07,13.653,365,-0.186,1.694,9.414,1
224,35.399,-97.595,356.6,16.64,13.653,365,-0.262,1.722,9.454,1
225,35.4,-97.595,354.9,16.45,13.653,365,-0.036,1.828,9.416,1
226,35.4,-97.595,352.6,16.94,13.653,365,0.173,1.98,9.289,1
227,35.4,-97.595,351.7,17.5,13.653,366,0.09,1.999,9.308,1
229,35.4,-97.595,350.2,18.15,13.653,366,0.065,2.016,9.357,1
230,35.4,-97.595,349.1,18.16,13.653,367,0.084,1.969,9.33,1
231,35.4,-97.595,347.3,18.97,13.653,367,0.108,1.918,9.404,1
232,35.401,-97.595,346.4,19.24,13.653,367,-0.018,1.843,9.345,1
233,35.401,-97.595,344.7,19.61,13.653,366,-0.267,1.761,9.526,1
234,35.401,-97.595,342.4,19.98,13.653,367,-0.247,1.712,9.323,1
235,35.401,-97.595,340.7,20.23,13.653,367,-0.224,1.557,9.401,1
236,35.401,-97.595,338.9,20.49,13.653,367,0.025,1.326,9.541,1
237,35.401,-97.596,337.7,20.32,13.653,367,0.002,1.335,9.539,1
238,35.402,-97.596,335.8,20.06,13.653,368,-0.026,1.456,9.517,1
239,35.402,-97.596,334.9,20.08,13.653,368,-0.162,1.636,9.486,1
240,35.402,-97.596,332.9,20.21,13.653,368,-0.086,1.73,9.479,1
241,35.402,-97.596,331.1,20.56,13.653,367,-0.082,1.72,9.376,1
242,35.402,-97.596,329.5,20.82,13.653,367,-0.036,1.703,9.455,1
243,35.402,-97.596,328,21.03,13.653,367,-0.086,1.627,9.346,1
244,35.403,-97.596,326.3,21.18,13.653,367,-0.408,1.541,9.519,1
245,35.403,-97.596,324.4,21.51,13.653,367,-0.272,1.286,9.557,1
246,35.403,-97.597,322.4,21.25,13.653,367,-0.176,1.406,9.433,1
247,35.403,-97.597,320.5,21.26,13.653,367,-0.11,1.501,9.534,1
248,35.403,-97.597,319.3,21.33,15.17,367,-0.01,1.383,9.494,1
249,35.403,-97.597,317.6,20.63,15.17,367,-0.241,1.376,9.403,1
250,35.403,-97.597,315.6,21.14,13.653,367,-0.38,1.383,9.453,1
251,35.404,-97.597,315,21.23,13.653,366,-0.513,1.371,9.528,1
252,35.404,-97.598,312.5,21.33,15.17,367,-0.383,1.349,9.576,1
253,35.404,-97.598,310.5,20.92,13.653,366,0.022,1.264,9.499,1
254,35.404,-97.598,310.5,20.81,15.17,366,0.256,1.332,9.536,1
255,35.404,-97.598,311.3,21.14,15.17,366,0.366,1.433,9.548,1
256,35.404,-97.598,312.2,20.41,16.687,366,0.441,1.454,9.461,1
257,35.404,-97.598,313.4,19.98,18.204,366,0.269,1.484,9.55,1
258,35.404,-97.599,317.9,20.76,15.17,366,0.41,1.487,9.555,1
259,35.405,-97.599,319.1,20.53,15.17,366,0.426,1.255,9.535,1
260,35.405,-97.599,322.4,20.65,15.17,367,0.326,1.187,9.717,1
261,35.405,-97.599,325,20.51,13.653,366,0.198,0.83,9.682,1
262,35.405,-97.599,326.6,20.09,13.653,367,0.2,0.111,9.793,1
263,35.405,-97.599,328.3,18.88,13.653,366,0.224,-0.044,9.878,1
264,35.405,-97.599,331,18.02,13.653,367,0.12,0.061,9.891,1
265,35.405,-97.599,333.2,16.85,13.653,368,0.183,0.054,9.936,1
266,35.406,-97.599,332.7,15.32,13.653,368,-0.151,-0.112,9.916,1
267,35.406,-97.6,335.2,14.14,13.653,367,-0.16,-0.266,9.917,1
268,35.406,-97.6,337.3,10.66,13.653,366,-0.063,-0.185,9.881,1
269,35.406,-97.6,338.1,9.97,13.653,365,0.034,-0.06,9.847,1
270,35.406,-97.6,338.8,8.71,13.653,366,0.044,0.239,9.774,1
271,35.406,-97.6,338.7,5.81,13.653,365,0.056,0.42,9.72,1
272,35.406,-97.6,339,4.72,13.653,364,0.073,-0.033,9.815,1
273,35.406,-97.6,340.7,3.93,13.653,363,0.093,0.573,9.676,1
274,35.406,-97.6,338,1.82,13.653,363,0.095,1.411,9.486,1
275,35.406,-97.6,338,1.82,13.653,363,0.084,1.669,9.426,1
276,35.406,-97.6,338.5,1.82,13.653,362,0.062,2.09,9.293,1
277,35.406,-97.6,338.6,2.53,13.653,363,-0.01,2.562,9.195,1
278,35.406,-97.6,339.7,3.41,13.653,363,-0.026,2.863,9.153,1
279,35.406,-97.6,340.5,4.86,13.653,363,0.003,2.799,9.148,1
280,35.406,-97.6,339.5,6.2,13.653,362,0.047,3.071,9.065,1
281,35.406,-97.6,341.3,7.5,13.653,362,-0.068,3.167,9.079,1
282,35.406,-97.6,341.2,9.38,13.653,362,-0.058,2.977,8.977,1
283,35.406,-97.6,341.3,10.72,13.653,362,-0.058,2.844,9.089,1
284,35.407,-97.6,340.6,12.05,13.653,362,-0.293,2.729,9.154,1
285,35.407,-97.6,340.9,13.36,13.653,362,-0.703,2.634,9.198,1
286,35.407,-97.6,339.3,14.38,13.653,362,-0.634,2.512,9.202,1
287,35.407,-97.6,337.9,14.93,13.653,362,-0.368,2.399,9.235,1
288,35.407,-97.6,336.3,15.55,13.653,361,-0.053,2.223,9.354,1
289,35.407,-97.6,337.2,17.03,13.653,361,0.302,1.973,9.435,1
290,35.407,-97.6,339.7,17.73,13.653,360,0.048,1.813,9.377,1
291,35.408,-97.6,340.4,17.91,13.653,360,-0.163,1.619,9.525,1
292,35.408,-97.6,341.2,18.31,15.17,360,-0.24,1.666,9.319,1
293,35.408,-97.601,340.8,18.24,13.653,360,-0.227,1.696,9.424,1
294,35.408,-97.601,341,18.38,13.653,360,-0.306,1.677,9.446,1
295,35.408,-97.601,341.5,18.41,13.653,360,-0.169,1.554,9.415,1
296,35.408,-97.601,342.7,18.48,13.653,359,0.31,1.639,9.516,1
297,35.409,-97.601,344.8,18.55,13.653,359,0.365,1.695,9.504,1
298,35.409,-97.601,346.6,18.59,13.653,360,0.268,1.7,9.488,1
299,35.409,-97.601,349,18.57,13.653,361,0.107,1.724,9.52,1
300,35.409,-97.601,349.3,18.41,13.653,362,0.005,1.724,9.528,1
301,35.409,-97.601,351.7,18.73,13.653,364,0.016,1.719,9.42,1
302,35.409,-97.601,354.2,18.44,13.653,365,-0.22,1.694,9.29,1
303,35.41,-97.601,355,18.35,13.653,366,-0.044,1.419,9.304,1
304,35.41,-97.601,357.2,17.94,13.653,366,-0.212,1.563,9.493,1
305,35.41,-97.601,357.8,17.85,13.653,367,-0.41,1.758,9.481,1
306,35.41,-97.601,356.8,17.85,13.653,367,-0.384,1.479,9.392,1
307,35.41,-97.601,356.6,17.17,13.653,368,-0.043,1.491,9.199,1
308,35.41,-97.601,357.1,17.51,13.653,368,-0.201,1.567,9.483,1
309,35.411,-97.601,356.3,17.46,13.653,368,-0.253,1.601,9.388,1
310,35.411,-97.601,357.5,17.59,13.653,367,-0.182,1.614,9.407,1
311,35.411,-97.601,356.2,17.74,13.653,368,-0.081,1.622,9.366,1
312,35.411,-97.601,356.6,18.02,13.653,368,0.058,1.303,9.496,1
314,35.411,-97.601,356.8,17.33,13.653,368,0.175,1.161,9.576,1
315,35.411,-97.601,358,16.92,13.653,368,0.223,0.961,9.583,1
316,35.411,-97.601,359.7,16.47,13.653,368,0.129,0.927,9.602,1
317,35.412,-97.601,1,15.85,13.653,368,-0.162,0.498,9.724,1
318,35.412,-97.601,0.5,14.93,13.653,369,-0.178,0.106,9.731,1
319,35.412,-97.601,0.3,13.38,13.653,368,-0.114,-0.177,9.636,1
320,35.412,-97.601,359.8,12.5,13.653,369,-0.097,-0.214,9.79,1
321,35.412,-97.601,358.3,11.38,15.17,369,0,-0.669,9.945,1
322,35.412,-97.601,358.2,9.65,15.17,368,-0.088,-1.008,10.058,0
323,35.412,-97.601,4.9,5.8,15.17,368,-0.181,-0.91,10.045,0
324,35.412,-97.601,6.4,3.65,13.653,367,-0.238,-1.092,10.082,0
325,35.412,-97.601,6.3,1.34,13.653,366,-0.246,-0.441,9.933,0
326,35.412,-97.601,6.3,1.34,13.653,366,-0.206,0.892,9.618,0
327,35.412,-97.601,6.3,1.34,13.653,366,-0.199,1.098,9.568,0
328,35.412,-97.601,6.3,1.34,13.653,366,-0.199,1.154,9.555,0
329,35.412,-97.601,6.3,1.34,13.653,366,-0.195,1.164,9.556,0
330,35.412,-97.601,6.3,1.34,13.653,366,-0.188,1.475,9.485,0
331,35.412,-97.601,6.3,1.34,13.653,366,-0.175,1.767,9.405,0
332,35.412,-97.601,4.3,0.97,13.653,367,-0.122,2.58,9.205,0
333,35.412,-97.601,6.4,2.13,13.653,366,-0.148,3.019,9.094,0
334,35.412,-97.601,7.2,4.11,13.653,366,-0.1,3.136,9.066,1
335,35.412,-97.601,8.4,6.18,13.653,367,-0.001,2.759,9.19,1
336,35.412,-97.601,9.8,7.66,13.653,367,-0.131,2.704,9.165,1
337,35.412,-97.601,10.2,8.91,13.653,366,-0.235,2.196,9.26,1
338,35.413,-97.601,9.3,10.35,13.653,366,-0.375,1.822,9.432,1
339,35.413,-97.601,7.4,10.67,13.653,365,-0.597,1.573,9.543,1
340,35.413,-97.601,5.3,10.92,13.653,365,-0.602,1.419,9.482,1
341,35.413,-97.601,2.5,10.84,13.653,366,-0.369,1.097,9.818,1
342,35.413,-97.601,358.5,11,15.17,365,-0.216,0.204,9.818,1
343,35.413,-97.601,358.5,10.31,15.17,365,-0.163,-0.114,9.857,1
344,35.413,-97.601,3.2,8.89,16.687,365,-0.118,-0.785,9.986,0
345,35.413,-97.601,3.6,7.26,16.687,364,-0.115,-1.063,10.09,0
346,35.413,-97.601,1.1,5.31,16.687,364,-0.102,-0.293,9.907,0
347,35.413,-97.601,350.9,3.35,16.687,364,-0.113,0.533,9.707,0
348,35.413,-97.601,343.5,2,16.687,363,-0.099,1.087,9.569,0
349,35.413,-97.601,335.4,1.33,16.687,364,-0.081,1.557,9.455,0
350,35.413,-97.601,14.8,0.6,15.17,365,-0.094,1.784,9.408,0
351,35.413,-97.601,356.3,0.98,15.17,364,-0.08,2.382,9.267,0
352,35.413,-97.601,335.4,1.89,15.17,364,-0.062,3,9.105,0
353,35.413,-97.601,347.4,2.99,15.17,365,-0.015,3.217,8.998,0
354,35.413,-97.601,351.6,4.56,15.17,365,-0.03,3.097,9.037,0
355,35.413,-97.601,5.8,6.35,15.17,365,-0.092,3.138,9.037,1
356,35.414,-97.601,0.8,7.93,15.17,366,-0.221,2.917,9.129,1
357,35.414,-97.601,7.1,9.35,15.17,366,-0.259,2.746,9.206,1
358,35.414,-97.601,358.7,11.16,15.17,366,-0.232,2.574,9.201,1
359,35.414,-97.601,1.6,12.29,15.17,367,-0.196,2.408,9.252,1
360,35.414,-97.601,358.6,14.71,15.17,367,-0.137,2.253,9.245,1
361,35.414,-97.601,357.8,16.18,13.653,367,-0.139,2.192,9.297,1
362,35.414,-97.601,357.4,16.78,13.653,369,-0.032,1.924,9.363,1
363,35.415,-97.601,358.1,17.07,13.653,367,0.171,1.422,9.497,1
364,35.415,-97.601,358.6,17.08,13.653,367,-0.011,1.379,9.463,1
365,35.415,-97.601,359.6,16.74,13.653,366,-0.146,1.258,9.551,1
366,35.415,-97.601,359.9,16.96,13.653,367,-0.28,1.218,9.494,1
367,35.415,-97.601,359.8,16.9,13.653,368,-0.33,1.355,9.47,1
368,35.415,-97.601,0,16.81,13.653,368,-0.32,1.527,9.502,1
369,35.415,-97.601,0,17.38,13.653,367,-0.302,1.334,9.436,1
370,35.416,-97.601,0.1,17.11,13.653,367,-0.342,1.207,9.561,1
371,35.416,-97.601,0,17.1,13.653,367,-0.383,1.323,9.472,1
372,35.416,-97.601,356.6,17.24,15.17,366,-0.436,1.507,9.512,1
373,35.416,-97.601,358.6,16.67,15.17,366,-0.408,1.574,9.422,1
374,35.416,-97.601,359.2,17.19,15.17,366,-0.369,1.64,9.378,1
375,35.416,-97.601,359.2,17.64,15.17,366,-0.256,1.587,9.504,1
376,35.417,-97.601,0.8,17.84,13.653,367,-0.273,1.433,9.504,1
378,35.417,-97.601,359.9,18.07,13.653,366,-0.297,1.526,9.555,1
379,35.417,-97.601,359.7,18.32,13.653,365,-0.334,1.7,9.464,1
380,35.417,-97.601,359,18.54,13.653,358,-0.367,1.702,9.528,1
381,35.417,-97.601,359.6,18.93,13.653,361,-0.386,1.426,9.423,1
382,35.417,-97.601,359.8,18.96,13.653,362,-0.437,1.515,9.244,1
383,35.418,-97.601,0.6,19.17,13.653,362,-0.532,1.653,9.557,1
384,35.418,-97.601,0.5,19.42,13.653,362,-0.671,1.818,9.412,1
385,35.418,-97.601,0.7,19.53,13.653,363,-0.7,1.849,9.361,1
386,35.418,-97.601,0.3,20.03,13.653,364,-0.79,1.659,9.467,1
387,35.418,-97.601,0.4,19.98,13.653,364,-0.717,1.54,9.498,1
388,35.418,-97.601,359.6,20,13.653,364,-0.54,1.431,9.494,1
389,35.419,-97.601,0.1,19.93,13.653,364,-0.536,1.285,9.516,1
390,35.419,-97.601,359.7,19.69,13.653,364,-0.43,1.417,9.529,1
391,35.419,-97.601,359.7,19.48,13.653,364,-0.36,1.412,9.537,1
392,35.419,-97.601,359.2,19.54,13.653,365,-0.34,1.266,9.549,1
393,35.419,-97.601,359.6,19.18,13.653,365,-0.316,1.4,9.459,1
394,35.42,-97.601,359.7,19.22,13.653,365,-0.306,1.323,9.519,1
395,35.42,-97.601,0,18.96,13.653,365,-0.169,1.589,9.423,1
396,35.42,-97.601,0.4,19.06,13.653,366,-0.273,1.683,9.505,1
397,35.42,-97.601,0.3,19.24,13.653,366,-0.348,1.507,9.479,1
398,35.42,-97.601,359.8,19.26,13.653,367,-0.292,1.226,9.46,1
399,35.42,-97.601,359.8,19,13.653,367,-0.229,0.517,9.735,1
400,35.421,-97.601,0.9,18.25,13.653,368,-0.019,0.224,9.815,1
401,35.421,-97.601,1.2,16.83,13.653,367,0.123,0.468,9.744,1
402,35.421,-97.601,3.3,15.52,13.653,367,-0.157,-0.144,9.939,0
403,35.421,-97.601,4.7,14.06,13.653,367,-0.129,0.008,9.868,0
404,35.421,-97.601,4.5,13.24,13.653,367,0.788,0.306,9.594,0
405,35.421,-97.601,8.5,11.39,13.653,367,2.107,0.649,9.537,0
406,35.421,-97.601,21,10,13.653,368,2.223,0.84,9.596,0
407,35.421,-97.601,29.1,9.99,13.653,368,2.287,0.904,9.52,0
408,35.421,-97.601,41.4,8.93,13.653,367,2.432,1.68,9.442,0
409,35.421,-97.601,70.3,9.31,13.653,367,1.834,2.204,9.242,0
410,35.421,-97.6,82.8,10.47,13.653,367,1.014,2.037,9.411,0
411,35.421,-97.6,89.4,11.27,13.653,366,-0.598,1.736,9.457,1
412,35.421,-97.6,88.7,12.08,13.653,366,-1.035,1.355,9.514,1
413,35.421,-97.6,82.4,11.96,13.653,366,-1.44,1.724,9.586,1
414,35.421,-97.6,72.7,12.49,13.653,365,-1.713,1.974,9.53,1
415,35.422,-97.6,63.3,13,13.653,364,-1.528,2.126,9.432,1
416,35.422,-97.6,54.6,13.8,13.653,365,-1.027,2.093,9.486,1
417,35.422,-97.6,47.4,14.61,13.653,364,0.092,2.324,9.284,1
418,35.422,-97.599,45.9,15.4,13.653,362,0.326,1.923,9.382,1
419,35.422,-97.599,46.8,16.34,13.653,362,0.142,1.636,9.444,1
420,35.422,-97.599,48.1,16.37,13.653,362,0.554,1.677,9.518,1
421,35.422,-97.599,51.3,16.6,13.653,361,0.539,1.72,9.443,1
422,35.422,-97.599,51.4,16.25,15.17,361,0.605,1.543,9.566,1
423,35.422,-97.599,53.4,16.99,16.687,360,0.685,1.465,9.566,1
424,35.422,-97.599,55.9,16.87,18.204,360,0.695,1.274,9.652,1
425,35.422,-97.598,70.6,17.27,13.653,358,0.799,1.288,9.503,1
426,35.422,-97.598,75.5,16.86,13.653,359,0.677,1.39,9.503,1
427,35.423,-97.598,78.7,16.89,13.653,359,0.564,1.52,9.582,1
428,35.423,-97.598,81.9,16.91,13.653,359,0.496,1.737,9.52,1
429,35.423,-97.597,86,17.61,13.653,358,0.196,2.052,9.209,1
430,35.423,-97.597,87,18.36,13.653,358,0.144,2.436,9.241,1
431,35.423,-97.597,88.8,19.41,13.653,358,0.116,2.475,9.219,1
432,35.423,-97.597,89.7,20.65,13.653,357,-0.218,2.446,9.223,1
433,35.423,-97.597,89.3,21.63,13.653,357,-0.307,2.342,9.203,1
434,35.423,-97.596,89.4,22.29,13.653,355,-0.24,2.314,9.318,1
435,35.423,-97.596,89.4,23.32,13.653,356,-0.005,2.228,9.248,1
436,35.423,-97.596,91.6,23.73,13.653,357,0.401,2.031,9.322,1
437,35.423,-97.596,90.9,24.66,13.653,357,0.14,1.785,9.398,1
438,35.423,-97.595,91.5,25.04,13.653,357,0.254,1.46,9.448,1
439,35.423,-97.595,91.3,24.94,13.653,356,0.072,1.34,9.551,1
440,35.423,-97.595,91.8,24.52,15.17,356,0.027,1.168,9.556,1
441,35.423,-97.594,93.6,24.93,13.653,357,0.139,1.435,9.47,1
442,35.423,-97.594,94.3,24.93,13.653,356,0.301,1.611,9.387,1
443,35.422,-97.594,95.3,24.82,13.653,357,0.145,1.599,9.429,1
444,35.422,-97.594,96.8,25.48,15.17,355,0.218,1.664,9.471,1
445,35.422,-97.593,97.7,25.81,13.653,355,0.24,1.753,9.417,1
446,35.422,-97.593,98.4,25.99,13.653,355,0.284,1.761,9.407,1
448,35.422,-97.593,99.8,25.84,13.653,356,0.264,1.762,9.424,1
449,35.422,-97.593,101,26.53,13.653,356,0.182,1.882,9.422,1
450,35.422,-97.592,102.4,27.29,13.653,355,0.299,1.892,9.486,1
451,35.422,-97.592,103.9,27.53,15.17,356,0.312,1.877,9.417,1
452,35.422,-97.592,105,28.33,13.653,357,0.325,1.882,9.465,1
453,35.422,-97.591,106.6,28.8,13.653,357,0.415,1.818,9.488,1
454,35.422,-97.591,107.8,29.13,13.653,357,0.316,1.548,9.539,1
455,35.422,-97.591,109,29.16,13.653,358,0.274,1.258,9.587,1
456,35.422,-97.59,110.3,28.8,13.653,358,0.356,1.2,9.594,1
457,35.422,-97.59,111.7,28.42,13.653,358,0.1,1.701,9.538,1
458,35.422,-97.59,112.4,28.48,13.653,358,0.217,1.818,9.374,1
459,35.421,-97.589,113.8,28.86,13.653,358,0.256,1.853,9.37,1
460,35.421,-97.589,114.9,29.13,13.653,359,0.303,1.63,9.422,1
461,35.421,-97.589,116.2,29.18,13.653,360,0.39,1.565,9.446,1
462,35.421,-97.589,117.7,29.23,13.653,360,0.562,1.48,9.4,1
463,35.421,-97.588,119.4,29.1,13.653,360,0.389,1.614,9.457,1
464,35.421,-97.588,120.9,29.1,13.653,361,0.222,1.522,9.462,1
465,35.421,-97.588,121.8,28.98,13.653,361,0.122,1.417,9.423,1
466,35.421,-97.588,122.2,28.92,13.653,361,0.332,1.415,9.431,1
467,35.42,-97.587,123.9,28.72,13.653,361,0.218,1.363,9.481,1
468,35.42,-97.587,124.9,28.51,13.653,361,0.343,1.529,9.424,1
469,35.42,-97.587,126.5,28.54,13.653,360,0.419,1.646,9.392,1
470,35.42,-97.587,127.9,28.6,13.653,360,0.451,1.684,9.388,1
471,35.42,-97.586,129.4,28.77,13.653,361,0.335,1.703,9.443,1
472,35.42,-97.586,131,29.01,13.653,361,0.283,1.661,9.382,1
473,35.419,-97.586,131.9,29.07,13.653,361,0.306,1.496,9.431,1
474,35.419,-97.586,133.3,29.01,13.653,361,0.314,1.386,9.538,1
475,35.419,-97.585,134.7,28.86,13.653,361,0.253,1.265,9.5,1
476,35.419,-97.585,135.8,28.71,13.653,362,0.249,1.407,9.472,1
477,35.419,-97.585,136.7,28.59,13.653,362,0.458,1.3,9.517,1
478,35.418,-97.585,137.9,28.32,13.653,362,0.286,1.151,9.529,1
479,35.418,-97.584,139.7,27.91,13.653,362,0.3,1.094,9.572,1
480,35.418,-97.584,140.9,27.54,13.653,362,0.267,1.097,9.598,1
481,35.418,-97.584,142.1,27.07,13.653,362,-0.11,1.505,9.548,1
482,35.418,-97.584,142.8,27.01,13.653,363,-0.12,1.448,9.418,1
483,35.418,-97.584,142.7,26.9,13.653,363,-0.111,1.73,9.334,1
484,35.417,-97.584,143,27.05,13.653,364,-0.043,1.855,9.443,1
485,35.417,-97.583,142.3,27.06,13.653,363,0.003,1.699,9.346,1
486,35.417,-97.583,142.5,27.4,13.653,364,-0.233,1.575,9.29,1
487,35.417,-97.583,142.8,27.58,13.653,364,0.06,1.639,9.543,1
488,35.417,-97.583,142.8,28,13.653,363,0.072,1.651,9.414,1
489,35.416,-97.583,143,28.36,13.653,364,0.017,1.617,9.281,1
490,35.416,-97.582,143,28.5,13.653,364,-0.141,1.658,9.409,1
491,35.416,-97.582,143.4,29.15,15.17,364,-0.121,1.681,9.561,1
492,35.416,-97.582,142.8,29.32,15.17,364,-0.001,1.648,9.493,1
493,35.416,-97.582,143.4,29.87,15.17,365,-0.111,1.396,9.638,1
494,35.415,-97.582,143.2,29.82,15.17,363,-0.167,1.197,9.56,1
495,35.415,-97.582,143.5,29.79,15.17,364,-0.144,1.169,9.563,1
496,35.415,-97.581,143.4,29.55,15.17,365,-0.307,1.25,9.544,1
497,35.415,-97.581,142.9,29.39,15.17,362,-0.166,1.209,9.429,1
498,35.414,-97.581,142.9,29.44,15.17,361,0.063,1.084,9.471,0
499,35.414,-97.581,143.4,29.19,13.653,361,0.318,0.997,9.369,0
500,35.414,-97.581,144.4,28.87,13.653,361,0.44,1.016,9.446,0
501,35.414,-97.58,146,28.75,13.653,362,0.393,1.047,9.554,0
502,35.414,-97.58,147.7,28.22,13.653,362,0.254,1.145,9.716,0
503,35.413,-97.58,149.3,27.86,13.653,362,0.481,1.534,9.661,0
504,35.413,-97.58,151,28.36,13.653,362,0.334,1.606,9.743,0
505,35.413,-97.58,152.7,28.32,13.653,362,0.051,1.227,9.592,0
506,35.413,-97.58,153.4,27.91,13.653,362,-0.312,1.267,9.639,0
507,35.412,-97.579,153.9,27.56,13.653,361,-0.365,1.444,9.429,1
508,35.412,-97.579,153.7,27.39,13.653,360,-0.171,1.506,9.383,1
509,35.412,-97.579,152.9,27.53,13.653,357,-0.158,1.549,9.416,1
510,35.412,-97.579,153.4,27.43,13.653,357,-0.174,1.292,9.491,1
511,35.412,-97.579,152.9,27.6,13.653,358,-0.142,1.296,9.532,1
512,35.411,-97.579,153,27.6,13.653,359,-0.185,1.407,9.676,1
513,35.411,-97.579,152.8,27.34,13.653,359,0.445,1.242,9.484,1
514,35.411,-97.579,153.9,27.37,13.653,359,0.494,1.363,9.516,1
515,35.411,-97.578,154.6,27.7,15.17,359,0.688,1.545,9.489,1
516,35.41,-97.578,156.3,26.96,13.653,359,0.202,1.694,9.524,1
517,35.41,-97.578,158.2,27.29,13.653,360,-0.113,1.745,9.599,1
518,35.41,-97.578,159.2,27.57,13.653,359,-0.225,1.74,9.552,1
519,35.41,-97.578,160,27.28,15.17,358,0.191,1.78,9.726,1
520,35.409,-97.578,160.8,26.23,16.687,361,0.609,1.923,9.563,1
521,35.409,-97.578,162,27.95,15.17,361,0.813,2.004,9.408,1
522,35.409,-97.578,163.3,27.77,15.17,361,0.371,2.005,9.291,1
523,35.409,-97.578,163.9,27.87,16.687,361,0.245,2.01,9.297,1
524,35.408,-97.577,166.3,28.57,15.17,361,0.21,2.009,9.318,1
525,35.408,-97.577,167.2,28.42,15.17,359,0.2,1.998,9.255,1
526,35.408,-97.577,167.8,28.28,15.17,358,0.314,1.974,9.306,1
527,35.408,-97.577,169.6,29.53,15.17,360,0.362,1.89,9.309,1
528,35.407,-97.577,170.6,29.67,13.653,361,0.428,1.321,9.374,1
529,35.407,-97.577,171.5,29.19,13.653,359,0.219,1.153,9.345,1
530,35.407,-97.577,173,28.84,13.653,359,0.243,1.153,9.455,1
531,35.406,-97.577,173.2,28.72,13.653,360,0.276,1.189,9.561,1
532,35.406,-97.577,174.2,28.39,13.653,362,0.371,1.235,9.471,1
533,35.406,-97.577,175.2,28.31,13.653,363,0.446,1.225,9.315,1
534,35.406,-97.577,176.3,28.06,13.653,363,0.211,1.399,9.266,1
535,35.405,-97.577,176.9,28.52,13.653,361,0.132,1.57,9.329,1
536,35.405,-97.577,177.9,28.57,13.653,361,0.134,1.61,9.419,1
537,35.405,-97.577,178.7,29.11,13.653,360,0.307,1.659,9.523,1
538,35.405,-97.577,179.6,29.16,13.653,360,0.418,1.383,9.673,1
540,35.404,-97.577,180.4,29.44,13.653,359,0.226,1.399,9.679,1
541,35.404,-97.577,182.2,29.49,13.653,359,0.189,1.592,9.692,1
542,35.404,-97.577,182.5,29.68,13.653,359,0.517,1.671,9.595,1
543,35.404,-97.577,184,29.88,13.653,360,0.2,1.641,9.31,1
544,35.403,-97.577,184.7,29.98,13.653,360,0.173,1.662,9.426,1
545,35.403,-97.577,184.9,30.24,13.653,359,0.155,1.658,9.349,1
546,35.403,-97.577,185.8,30.33,13.653,359,-0.015,1.7,9.464,1
547,35.403,-97.577,186,30.46,13.653,360,-0.22,1.503,9.431,1
548,35.402,-97.577,185.8,30.36,13.653,360,-0.073,1.528,9.557,1
549,35.402,-97.577,185.5,30.52,13.653,361,-0.035,1.464,9.39,1
550,35.402,-97.577,185.3,30.38,13.653,361,0.088,1.503,9.501,1
551,35.401,-97.577,185.4,30.48,13.653,362,0.162,1.496,9.555,1
552,35.401,-97.577,185.1,30.5,13.653,362,0.332,1.463,9.379,1
553,35.401,-97.577,185.2,30.37,13.653,362,0.722,1.459,9.437,1
554,35.401,-97.577,185.4,30.39,13.653,362,0.642,1.294,9.537,1
555,35.4,-97.577,185.3,30.07,13.653,363,-0.882,1.246,9.633,1
556,35.4,-97.577,182.9,29.69,13.653,363,-1.444,1.199,9.576,1
557,35.4,-97.577,179,29.42,13.653,363,-1.294,1.307,9.841,0
558,35.4,-97.577,177.4,29.53,13.653,364,-1.049,1.289,9.654,0
559,35.399,-97.577,171.1,28.79,13.653,363,-0.93,1.27,9.623,0
560,35.399,-97.577,167.9,28.68,13.653,363,-0.975,1.508,9.495,0
561,35.399,-97.577,166.3,28.7,13.653,363,-1.079,1.653,9.559,0
562,35.399,-97.577,162.4,28.1,13.653,363,-1.427,1.714,9.621,0
563,35.398,-97.577,158.6,28.67,13.653,363,-1.291,1.66,9.614,0
564,35.398,-97.577,152.4,28.84,13.653,363,-1.178,1.535,9.615,0
565,35.398,-97.577,149.5,29.13,13.653,361,-1.502,1.282,9.691,0
566,35.398,-97.576,146.5,28.91,13.653,362,-1.463,1.209,9.626,1
567,35.397,-97.576,143.4,28.76,13.653,363,-1.425,1.4,9.547,1
568,35.397,-97.576,139.6,28.32,13.653,363,-0.874,1.534,9.628,1
569,35.397,-97.576,136.5,28.22,13.653,363,-0.698,1.583,9.558,1
570,35.397,-97.576,133.7,28.14,13.653,363,-0.542,1.697,9.463,1
571,35.397,-97.575,131.6,28.37,13.653,364,-0.441,1.837,9.443,1
572,35.397,-97.575,130,28.56,13.653,364,-0.802,1.826,9.375,1
573,35.396,-97.575,127.5,28.91,13.653,363,-0.713,1.82,9.401,1
574,35.396,-97.575,126.2,29.07,13.653,363,-0.711,1.845,9.55,1
575,35.396,-97.574,124.6,29.55,13.653,363,-0.765,1.827,9.49,1
576,35.396,-97.574,123.9,29.79,13.653,364,-0.866,1.741,9.485,1
577,35.396,-97.574,119.6,30.06,13.653,364,-0.439,1.348,9.571,1
578,35.396,-97.573,117.7,29.9,13.653,365,-0.492,1.178,9.529,1
579,35.396,-97.573,116.2,29.59,13.653,365,-0.791,1.187,9.637,1
580,35.395,-97.573,113.3,29.18,13.653,366,-0.748,1.146,9.533,1
581,35.395,-97.573,110.8,28.72,13.653,366,-0.406,1.135,9.506,1
582,35.395,-97.572,109.1,28.58,13.653,366,-0.389,1.11,9.455,1
583,35.395,-97.572,107.5,28.32,13.653,366,-0.266,1.119,9.581,1
584,35.395,-97.572,107,27.97,13.653,367,0.029,1.306,9.608,1
585,35.395,-97.571,104.9,27.73,13.653,367,0.136,1.52,9.436,1
586,35.395,-97.571,104.5,27.85,13.653,367,-0.101,1.583,9.402,1
587,35.395,-97.571,104.2,28,13.653,366,-0.351,1.686,9.693,1
588,35.395,-97.571,104.3,27.97,15.17,365,-0.363,1.598,9.355,1
589,35.395,-97.57,103.7,28.38,16.687,365,-0.197,1.406,9.557,1
590,35.395,-97.57,103.9,28.8,16.687,364,-0.047,1.185,9.507,1
591,35.395,-97.57,102.3,26.94,16.687,364,-0.247,1.368,9.526,1
592,35.395,-97.569,102.8,26.79,18.204,364,-0.401,1.405,9.505,1
593,35.395,-97.569,103.7,28.29,16.687,364,-0.281,1.569,9.764,1
594,35.395,-97.569,104.8,30.04,18.204,361,-0.164,1.575,9.686,1
595,35.395,-97.568,103.9,28.81,15.17,362,-0.134,1.581,9.647,1
596,35.394,-97.568,104.3,28.73,15.17,362,-0.192,1.588,9.674,1
597,35.394,-97.568,104,28.21,13.653,362,-0.25,1.604,9.536,1
598,35.394,-97.567,104.1,28.23,13.653,364,-0.244,1.619,9.372,1
599,35.394,-97.567,103.9,27.99,13.653,365,-0.221,1.717,9.456,1
600,35.394,-97.567,103.9,27.99,13.653,365,-0.115,1.736,9.326,1
601,35.394,-97.566,103.9,28.21,13.653,366,-0.1,1.712,9.207,1
602,35.394,-97.566,104.2,28.32,13.653,366,-0.126,1.675,9.203,1
603,35.394,-97.566,103.7,28.37,13.653,366,-0.164,1.626,9.221,1
604,35.394,-97.565,103.4,28.54,13.653,366,-0.04,1.608,9.266,1
607,35.394,-97.564,103.9,28.64,15.17,366,-0.175,1.491,9.301,1
608,35.394,-97.564,104.2,29.27,16.687,366,-0.271,1.6,9.432,1
