time,lat,lng,bearing,spd,acc,alt,accx,accy,accz,stable,
0,35.254,-97.486,359.9,24.59,3,328,-0.815,-0.27,9.766,0
1,35.254,-97.486,359.9,24.83,3,328,-0.736,-0.066,9.633,0
2,35.255,-97.486,359.9,25.35,3,328,-0.94,-0.042,9.742,0
3,35.255,-97.486,0.1,25.82,3,328,-1.008,-0.14,9.607,0
4,35.255,-97.486,0.1,26.25,3,328,-0.775,-0.321,9.615,0
5,35.255,-97.486,359.9,26.64,3,328,-0.857,-0.15,9.653,0
6,35.256,-97.486,0,26.95,3,328,-0.844,-0.18,9.67,0
7,35.256,-97.486,0.1,27.17,3,329,-0.745,-0.159,9.66,1
8,35.256,-97.486,0.1,27.39,3,329,-0.74,0.019,9.737,1
9,35.256,-97.486,0.1,27.65,3,329,-0.755,-0.178,9.956,1
10,35.257,-97.486,359.9,27.94,3,329,-0.654,-0.099,9.735,0
11,35.257,-97.486,359.7,28.08,3,329,-0.506,-0.06,9.678,0
12,35.257,-97.486,359.5,28.02,3,328,-0.524,0.058,9.584,0
13,35.257,-97.486,359.7,28.02,3,328,-0.524,0.172,9.722,0
14,35.258,-97.486,359.9,27.84,3,328,-0.299,0.291,9.65,0
15,35.258,-97.486,359.9,27.52,3,328,-0.455,0.087,9.77,0
16,35.258,-97.486,359.9,27.47,3,328,-0.461,0.162,9.836,0
17,35.258,-97.486,0.1,27.43,3,329,-0.324,0.031,9.717,1
18,35.259,-97.486,0.2,27.28,3,329,-0.28,0.026,9.697,1
19,35.259,-97.486,0.1,27.05,3,329,-0.243,0.157,9.652,1
20,35.259,-97.485,0.1,26.68,3,329,-0.143,0.113,9.945,0
21,35.259,-97.486,0.1,26.32,3,329,-0.157,0.149,9.824,0
22,35.26,-97.486,0,25.98,3,330,-0.303,-0.04,9.803,0
23,35.26,-97.486,359.9,25.94,3,330,-0.591,0.04,9.752,0
24,35.26,-97.485,0,26.03,3,330,-0.551,-0.088,9.733,0
25,35.26,-97.485,359.8,26.12,3,330,-0.6,0.054,9.781,0
26,35.261,-97.486,359.8,26.19,3,330,-0.605,0.001,9.858,0
27,35.261,-97.486,359.9,26.27,3,330,-0.617,-0.019,9.78,0
28,35.261,-97.486,359.9,26.34,3,330,-0.617,0.061,9.904,0
30,35.261,-97.486,359.9,26.38,3,330,-0.563,0.061,9.652,0
30,35.261,-97.486,359.9,26.38,3,330,-0.563,0.061,9.652,0
31,35.262,-97.486,359.8,26.44,3,330,-0.855,-0.048,9.671,0
32,35.262,-97.486,359.9,26.75,3,329,-0.921,-0.212,9.625,0
33,35.262,-97.486,0.2,27.06,3,330,-0.946,-0.284,9.768,0
34,35.262,-97.486,0.6,27.661,3,330,-0.928,-0.218,9.679,1
35,35.263,-97.486,359.6,28.11,3,330,-0.927,-0.222,9.758,1
36,35.263,-97.486,359.7,28.52,3,330,-0.944,-0.142,9.702,1
37,35.263,-97.486,359.9,28.81,3,329,-0.59,0.065,9.897,1
38,35.263,-97.486,0,28.78,3,329,-0.641,0.247,9.789,1
39,35.264,-97.486,0.1,28.72,3,329,-0.472,0.155,9.896,1
40,35.264,-97.486,0.1,28.61,3,329,-0.639,-0.046,9.784,1
41,35.264,-97.486,0,28.65,3,329,-0.758,-0.026,9.939,1
42,35.264,-97.486,359.9,28.85,3,328,-0.717,-0.137,9.786,1
43,35.265,-97.486,359.9,29.1,3,328,-0.638,-0.106,9.684,1
44,35.265,-97.486,359.9,29.3,3,328,-0.801,-0.074,9.676,1
45,35.265,-97.486,359.9,29.55,3,328,-0.789,-0.086,9.756,1
46,35.265,-97.486,359.9,29.8,3,328,-0.697,0.063,9.856,1
47,35.266,-97.486,0.1,29.88,3,328,-0.716,0.032,9.615,1
48,35.266,-97.486,0.1,30.06,3,328,-0.805,0.051,9.526,1
49,35.266,-97.486,0.2,30.26,3,327,-0.69,0.004,9.783,1
50,35.267,-97.486,0.2,30.46,3,327,-0.531,-0.129,9.732,1
51,35.267,-97.486,0.1,30.6,3,328,-0.518,-0.173,9.846,1
52,35.267,-97.486,359.9,30.62,3,328,-0.583,-0.03,9.89,1
53,35.267,-97.486,0,30.69,3,328,-0.551,-0.01,9.768,1
54,35.268,-97.486,359.9,30.8,3,328,-0.574,-0.088,9.709,1
55,35.268,-97.486,359.9,30.87,3,327,-0.609,-0.157,9.611,1
56,35.268,-97.486,359.7,30.98,3,327,-0.669,0.013,9.58,1
57,35.268,-97.486,359.6,31.15,3,327,-0.584,-0.027,9.905,1
58,35.269,-97.486,359.7,31.28,3,327,-0.638,0.121,9.761,1
59,35.269,-97.486,359.7,31.36,3,326,-0.498,0.117,9.791,1
60,35.269,-97.486,359.8,31.46,3,326,-0.52,-0.068,9.968,1
61,35.27,-97.486,359.9,31.45,3,326,-0.714,-0.065,9.834,1
62,35.27,-97.486,359.9,31.61,3,326,-0.528,0.034,9.758,1
63,35.27,-97.486,359.9,31.78,3,326,-0.561,0.065,9.793,1
64,35.27,-97.486,0,31.851,3,326,-0.651,0.196,9.504,1
65,35.271,-97.486,359.9,31.961,3,325,-0.619,-0.065,9.741,1
66,35.271,-97.486,359.9,32.091,3,324,-0.707,0.049,9.659,1
67,35.271,-97.486,359.9,32.341,3,324,-0.751,0.095,9.844,1
68,35.272,-97.486,0,32.6,3,323,-0.74,-0.114,9.801,1
69,35.272,-97.486,0,32.87,3,324,-0.669,-0.223,9.808,1
70,35.272,-97.486,359.9,33.07,3,325,-0.643,-0.062,9.777,0
71,35.273,-97.486,359.9,33.34,3,325,-0.356,0.17,9.94,0
72,35.273,-97.486,0,33.16,3,325,-0.297,0.067,9.775,0
73,35.273,-97.486,359.8,33.151,3,325,-0.368,-0.057,9.727,0
74,35.274,-97.486,359.9,33.11,3,324,-0.48,0.105,9.804,0
75,35.274,-97.486,0.1,33.2,3,323,-0.598,0.233,9.818,0
76,35.274,-97.486,0.2,33.211,3,323,-0.323,0.103,9.902,0
77,35.275,-97.486,0,32.99,3,323,-0.485,0.052,9.821,0
78,35.275,-97.486,0,33.05,3,322,-0.53,0.1,9.805,0
79,35.275,-97.486,0.1,33.07,3,322,-0.366,0.081,9.875,0
80,35.276,-97.486,0,32.891,3,322,-0.214,0.149,9.836,0
81,35.276,-97.486,359.8,32.55,3,322,-0.216,0.414,9.827,0
82,35.276,-97.486,359.9,32.14,3,321,-0.151,0.285,10.137,0
83,35.276,-97.486,0,31.55,3,321,-0.058,0.419,10.066,0
84,35.277,-97.486,0.5,30.881,3,322,-0.301,0.64,9.976,0
85,35.277,-97.486,1.6,30.273,3,322,-0.373,0.582,9.941,0
86,35.277,-97.485,3.5,29.672,3,323,-0.473,0.713,9.845,0
87,35.277,-97.485,6.2,29.261,3,324,-0.91,1.359,10.128,0
88,35.278,-97.485,10.4,28.621,3,325,-1.044,1.38,9.756,0
89,35.278,-97.485,14.3,28.251,3,325,-0.896,0.998,9.869,0
90,35.278,-97.485,17.1,28.12,3,325,-0.523,0.16,9.613,0
91,35.278,-97.485,18.3,27.98,3,326,-0.412,-0.057,9.638,0
92,35.279,-97.485,18.7,27.88,3,326,-0.406,-0.47,9.715,0
93,35.279,-97.485,18.6,27.84,3,326,-0.481,-0.274,9.712,0
94,35.279,-97.485,18.6,27.82,3,326,-0.374,-0.24,9.651,0
95,35.279,-97.485,18.5,27.72,3,327,-0.504,-0.188,9.68,0
96,35.28,-97.485,18.1,27.71,3,327,-0.569,-0.138,9.693,0
97,35.28,-97.485,16,27.22,3,326,-0.447,-0.409,9.673,1
98,35.28,-97.484,16.7,27.85,3,326,-0.246,-1.107,9.513,1
100,35.28,-97.484,13.9,28.05,3,326,-0.172,-1.208,9.492,1
100,35.28,-97.484,13.9,28.05,3,326,-0.172,-1.208,9.492,1
101,35.281,-97.484,10.8,28.22,3,327,-0.33,-0.836,9.656,1
102,35.281,-97.484,8.4,28.42,3,327,-0.34,-1.086,9.661,1
103,35.281,-97.484,6.1,28.661,3,327,-0.377,-1.116,9.669,1
104,35.281,-97.484,3.5,28.921,3,328,-0.327,-1.178,9.58,1
105,35.282,-97.484,0.6,29.14,3,328,-0.247,-1.174,9.651,1
106,35.282,-97.484,357.6,29.41,3,328,-0.395,-1.095,9.676,1
107,35.282,-97.484,354.9,29.7,3,328,-0.331,-1.014,9.625,1
108,35.282,-97.484,352.4,29.98,3,328,-0.163,-1.006,9.63,1
109,35.283,-97.484,350,30.11,3,328,-0.089,-1.07,9.724,1
110,35.283,-97.484,347.2,30.131,3,328,-0.07,-1.122,9.702,1
111,35.283,-97.485,344.5,30.171,3,329,-0.478,-0.309,9.816,1
112,35.283,-97.485,343.3,30.192,3,329,-0.62,-0.097,9.61,1
113,35.284,-97.485,343,30.251,3,330,-0.803,-0.013,9.737,1
114,35.284,-97.485,343.1,30.39,3,331,-0.655,0.014,9.635,1
115,35.284,-97.485,343.4,30.47,3,331,-0.784,-0.078,9.63,1
116,35.285,-97.485,343.7,30.68,3,330,-0.571,-0.315,9.589,1
117,35.285,-97.485,343.5,30.91,3,329,-0.539,-0.379,9.778,1
118,35.285,-97.485,343.2,31.09,3,329,-0.6,-0.014,9.828,1
119,35.285,-97.485,343.1,31.24,3,330,-0.624,-0.061,9.674,1
120,35.286,-97.485,343.2,31.39,3,329,-0.68,-0.15,9.964,0
121,35.286,-97.486,343.3,31.55,3,330,-0.562,-0.146,9.706,0
122,35.286,-97.486,343.2,31.62,3,330,-0.57,-0.122,9.781,0
123,35.286,-97.486,343.1,31.66,3,330,-0.572,-0.207,9.695,0
124,35.287,-97.486,343.1,31.67,3,330,-0.624,-0.15,9.612,0
125,35.287,-97.486,343.2,31.81,3,330,-0.562,-0.149,9.697,0
126,35.287,-97.486,343.3,31.85,3,330,-0.417,-0.379,9.773,0
127,35.288,-97.486,343.3,31.89,3,331,-0.429,-0.203,9.701,1
128,35.288,-97.486,343.2,31.94,3,331,-0.554,-0.087,9.744,1
129,35.288,-97.486,343.4,31.991,3,331,-0.514,-0.32,9.881,1
130,35.288,-97.486,343.6,31.96,3,331,-0.413,-0.385,9.914,1
131,35.289,-97.487,343.6,31.97,3,331,-0.412,-0.428,9.761,1
132,35.289,-97.487,343.5,31.97,3,331,-0.491,-0.314,9.664,1
133,35.289,-97.487,343.3,32.02,3,333,-0.408,-0.277,9.472,1
134,35.289,-97.487,343.1,32.03,3,333,-0.548,-0.154,9.654,1
135,35.29,-97.487,343.1,32.03,3,332,-0.489,-0.247,9.754,1
136,35.29,-97.487,343.3,32.07,3,332,-0.462,-0.232,9.728,1
137,35.29,-97.487,343.3,32.12,3,332,-0.347,-0.408,9.568,1
138,35.291,-97.487,343.2,32.14,3,333,-0.509,-0.337,9.961,1
139,35.291,-97.487,343,32.15,3,333,-0.492,-0.226,9.601,1
140,35.291,-97.487,343.2,32.13,3,333,-0.446,-0.178,9.724,1
141,35.291,-97.488,343.5,32.04,3,333,-0.415,-0.163,9.523,1
142,35.292,-97.488,343.3,32.17,3,332,-0.321,-0.185,9.565,1
143,35.292,-97.488,343.4,32.07,3,332,-0.139,-0.333,9.669,1
144,35.293,-97.488,343.3,31.87,3,332,-0.143,-0.022,9.648,1
145,35.293,-97.488,343.4,31.76,3,332,-0.228,-0.345,9.701,1
146,35.293,-97.488,343.2,31.69,3,331,-0.417,-0.468,9.752,1
147,35.293,-97.488,343.1,31.9,3,331,-0.578,-0.499,9.837,1
148,35.294,-97.488,343.1,32.131,3,331,-0.473,-0.394,9.741,1
149,35.294,-97.488,343,32.371,3,330,-0.476,-0.349,9.574,1
150,35.294,-97.489,343.1,32.701,3,330,-0.464,-0.357,9.664,1
151,35.294,-97.489,343.2,32.92,3,330,-0.544,-0.273,9.599,1
152,35.295,-97.489,343.3,33.071,3,329,-0.362,-0.291,9.779,1
153,35.295,-97.489,343.4,33.22,3,329,-0.336,-0.278,9.54,1
154,35.295,-97.489,343.4,33.36,3,329,-0.332,-0.344,9.663,1
155,35.296,-97.489,343.4,33.36,3,328,-0.502,0.036,9.802,1
156,35.296,-97.489,344.2,33.411,3,328,-0.481,-0.02,9.902,1
157,35.296,-97.489,345,33.401,3,328,-0.53,0.017,9.892,1
158,35.296,-97.489,345.8,33.45,3,328,-0.361,0.063,10.062,0
159,35.297,-97.489,346.7,33.23,3,328,-0.208,0.298,9.795,0
160,35.297,-97.49,347.6,32.821,3,328,-0.333,0.462,9.815,0
161,35.297,-97.49,348.9,32.341,3,329,-0.148,0.575,10.062,0
162,35.298,-97.49,350.2,31.61,3,329,0.236,0.861,10.186,0
163,35.298,-97.49,351.6,30.37,3,329,-0.155,0.329,9.811,0
164,35.298,-97.49,352.4,29.88,3,329,-0.417,0.065,9.875,0
165,35.298,-97.49,353.5,29.44,3,332,-0.483,-0.047,9.838,0
166,35.299,-97.49,354.3,29.28,3,331,-0.476,-0.183,9.742,0
167,35.299,-97.49,355,29.24,3,331,-0.656,-0.055,9.774,0
168,35.299,-97.49,355.9,29.192,3,331,-0.635,-0.05,9.682,0
169,35.299,-97.49,356.9,29.162,3,332,-0.447,0.186,9.708,0
171,35.3,-97.49,358.1,28.942,3,333,-0.466,0.335,9.6,0
171,35.3,-97.49,358.1,28.942,3,333,-0.466,0.335,9.6,0
172,35.3,-97.49,359.4,28.612,3,333,-0.432,-0.285,9.548,1
173,35.3,-97.49,359.7,28.532,3,334,-0.525,-0.387,9.56,1
174,35.3,-97.49,359.8,28.581,3,334,-0.445,-0.403,9.628,1
175,35.301,-97.49,359.9,28.621,3,335,-0.615,-0.204,9.612,1
176,35.301,-97.49,0.1,28.69,3,335,-0.597,-0.336,9.637,1
177,35.301,-97.49,0.3,28.83,3,335,-0.595,-0.49,9.675,1
178,35.302,-97.49,0.3,29.04,3,335,-0.798,-0.644,9.572,1
179,35.302,-97.49,0.2,29.44,3,336,-0.911,-0.714,9.418,1
180,35.302,-97.49,0.2,30.13,3,336,-0.836,-0.774,9.555,1
181,35.302,-97.49,359.7,30.82,3,337,-0.957,-0.548,9.614,1
182,35.303,-97.49,359.8,31.41,3,337,-0.652,-0.239,9.713,1
183,35.303,-97.49,0.2,31.9,3,337,0.028,-0.221,9.731,1
184,35.303,-97.49,0.2,31.49,3,337,-0.093,0.123,9.565,1
185,35.303,-97.49,0.4,31.04,3,337,-0.118,0.099,9.794,1
186,35.304,-97.49,1,30.64,3,336,0.101,-0.041,9.699,1
187,35.304,-97.49,1,30.22,3,336,0.219,-0.319,9.671,1
188,35.304,-97.49,0.7,29.8,3,337,0.114,-0.331,9.815,1
189,35.305,-97.49,0.2,29.41,3,337,-0.011,-0.235,9.732,1
190,35.305,-97.49,359.9,29.02,3,336,0.057,-0.252,9.825,1
191,35.305,-97.49,359.3,28.941,3,337,0.029,-0.198,9.858,1
192,35.305,-97.49,0,29.021,3,337,-0.166,-0.436,9.89,1
193,35.306,-97.49,0.2,28.88,3,337,-0.124,-0.563,9.71,1
194,35.306,-97.49,359.2,27.91,3,337,-0.3,-0.53,10.057,0
195,35.306,-97.49,358.8,27.92,3,337,-0.406,-0.335,9.688,0
196,35.306,-97.49,358.4,27.96,3,337,-0.534,-0.101,9.624,0
197,35.307,-97.49,358.9,28.13,3,337,-0.647,-0.134,9.65,0
198,35.307,-97.49,359.4,28.34,3,337,-0.626,-0.379,9.83,0
199,35.307,-97.49,359.9,28.62,3,337,-0.538,-0.502,9.738,0
200,35.307,-97.49,359.9,28.87,3,337,-0.703,-0.59,9.52,0
201,35.308,-97.49,359.8,29.22,3,337,-0.817,-0.415,9.622,0
202,35.308,-97.49,0,29.72,3,336,-0.676,-0.385,9.775,1
203,35.308,-97.49,0,30.13,3,336,-0.658,-0.528,9.863,1
204,35.308,-97.49,0,30.5,3,336,-0.648,-0.676,9.759,1
205,35.309,-97.49,0,30.83,3,336,-0.567,-0.339,9.657,1
206,35.309,-97.49,0,31.1,3,337,-0.473,-0.285,9.564,1
207,35.309,-97.49,0.1,31.2,3,337,-0.482,-0.361,9.857,1
208,35.31,-97.49,0.1,31.27,3,336,-0.512,-0.595,9.849,0
209,35.31,-97.49,0,31.38,3,336,-0.467,-0.176,9.707,0
210,35.31,-97.49,0.1,31.51,3,336,-0.225,-0.19,9.676,0
211,35.31,-97.49,0.4,31.39,3,336,-0.118,-0.638,9.544,0
212,35.311,-97.49,359.7,31.26,3,337,-0.367,-0.306,9.657,0
213,35.311,-97.49,359.8,31.29,3,337,-0.51,-0.238,9.362,0
214,35.312,-97.49,359.8,31.321,3,337,-0.5,-0.29,9.654,0
215,35.312,-97.49,0.1,31.33,3,337,-0.455,-0.43,9.64,1
216,35.312,-97.49,0,31.321,3,338,-0.483,-0.348,9.679,1
217,35.312,-97.49,0,31.27,3,337,-0.178,-0.152,9.8,1
218,35.313,-97.49,0,30.93,3,337,-0.02,-0.222,9.89,1
219,35.313,-97.49,359.9,30.531,3,337,-0.239,-0.447,9.677,1
220,35.313,-97.49,359.8,30.421,3,338,-0.337,-0.294,9.584,1
221,35.313,-97.49,359.6,30.39,3,338,-0.365,-0.431,9.702,1
222,35.314,-97.49,359.7,30.351,3,339,-0.485,-0.227,9.856,1
223,35.314,-97.49,359.8,30.311,3,339,-0.301,-0.452,9.797,1
224,35.314,-97.49,359.9,30.271,3,339,-0.363,-0.503,9.608,1
225,35.315,-97.49,359.9,30.231,3,340,-0.403,-0.311,9.622,1
226,35.315,-97.49,0.1,30.18,3,339,-0.344,-0.555,9.697,1
227,35.315,-97.49,0.2,30.22,3,339,-0.418,-0.36,9.53,1
228,35.315,-97.49,0,30.19,3,340,-0.389,-0.485,9.646,1
229,35.316,-97.49,359.9,30.131,3,340,-0.285,-0.408,9.75,1
230,35.316,-97.49,359.9,29.991,3,341,-0.222,-0.275,9.686,1
231,35.316,-97.49,359.9,29.811,3,341,-0.196,-0.331,9.824,1
232,35.316,-97.49,359.9,29.551,3,341,-0.147,-0.373,9.614,1
233,35.317,-97.49,359.9,29.321,3,342,-0.48,-0.102,9.784,1
234,35.317,-97.49,0.2,29.18,3,341,-0.477,-0.303,9.778,1
235,35.317,-97.49,0.4,29.09,3,341,-0.248,-0.448,9.579,1
236,35.318,-97.49,0.1,29.08,3,342,-0.428,-0.363,9.693,1
238,35.318,-97.49,0,29.03,3,342,-0.446,-0.357,9.816,1
238,35.318,-97.49,0,29.03,3,342,-0.446,-0.357,9.816,1
239,35.318,-97.49,0,29.011,3,342,-0.339,-0.52,9.631,1
240,35.318,-97.49,359.9,29.001,3,342,-0.24,-0.531,9.566,1
241,35.319,-97.49,359.7,28.951,3,343,-0.364,-0.323,9.564,1
242,35.319,-97.49,359.7,28.911,3,343,-0.417,-0.311,9.616,1
243,35.319,-97.49,359.8,28.9,3,343,-0.324,-0.314,9.598,1
244,35.319,-97.49,359.9,28.86,3,343,-0.659,-0.121,9.766,1
245,35.32,-97.49,0,28.92,3,343,-0.502,-0.351,9.659,1
246,35.32,-97.49,0,29.02,3,343,-0.578,-0.326,9.555,1
247,35.32,-97.49,0.1,29.21,3,343,-0.579,-0.343,9.768,1
248,35.32,-97.49,0.2,29.14,3,343,-0.465,-0.376,9.861,1
249,35.321,-97.49,0,29.531,3,343,-0.43,-0.463,9.91,1
250,35.321,-97.49,359.8,29.76,3,343,-0.338,-0.534,9.687,1
251,35.321,-97.49,359.6,29.83,3,342,-0.534,-0.278,9.695,1
252,35.321,-97.49,359.7,29.95,3,342,-0.578,-0.243,9.819,1
253,35.322,-97.49,0,30.09,3,342,-0.538,-0.49,9.744,1
254,35.322,-97.49,0.1,30.28,3,342,-0.533,-0.6,9.82,1
255,35.322,-97.49,0,30.45,3,342,-0.49,-0.47,9.586,1
256,35.323,-97.49,0,30.64,3,342,-0.481,-0.402,9.789,1
257,35.323,-97.49,0,30.77,3,342,-0.354,-0.492,9.788,1
258,35.323,-97.49,359.9,30.84,3,342,-0.391,-0.47,9.778,1
259,35.323,-97.49,359.9,30.88,3,341,-0.436,-0.404,9.599,1
260,35.324,-97.49,359.9,30.94,3,342,-0.451,-0.356,9.494,1
261,35.324,-97.49,0.1,30.94,3,342,-0.363,-0.384,9.656,1
262,35.324,-97.49,0.1,30.95,3,342,-0.36,-0.408,9.583,1
263,35.325,-97.49,0.1,30.95,3,342,-0.284,-0.47,9.777,1
264,35.325,-97.49,0.1,30.95,3,342,-0.388,-0.369,9.609,1
265,35.325,-97.49,0.2,30.93,3,342,-0.371,-0.587,9.628,1
266,35.325,-97.49,0,30.911,3,342,-0.368,-0.503,9.638,1
267,35.326,-97.49,359.9,30.93,3,342,-0.385,-0.469,9.609,1
268,35.326,-97.49,359.9,30.94,3,342,-0.388,-0.526,9.509,1
269,35.326,-97.49,359.7,30.93,3,342,-0.394,-0.589,9.843,1
270,35.326,-97.49,359.7,30.95,3,342,-0.486,-0.407,9.858,1
271,35.327,-97.49,359.6,31,3,343,-0.416,-0.32,9.617,1
272,35.327,-97.49,359.8,30.99,3,343,-0.359,-0.384,9.598,1
273,35.327,-97.49,0,31,3,343,-0.463,-0.356,9.807,1
274,35.328,-97.49,359.8,31.06,3,344,-0.491,-0.463,9.767,1
275,35.328,-97.49,359.9,31.071,3,344,-0.443,-0.361,9.733,1
276,35.328,-97.49,0,31.07,3,345,-0.54,-0.301,9.64,1
277,35.328,-97.49,0,31.1,3,344,-0.437,-0.362,9.778,1
278,35.329,-97.49,0.2,31.11,3,344,-0.303,-0.57,9.585,1
279,35.329,-97.49,359.8,31.12,3,345,-0.301,-0.435,9.696,1
280,35.33,-97.49,359.8,31.12,3,346,-0.404,-0.277,9.821,1
281,35.33,-97.49,359.9,31.14,3,346,-0.456,-0.281,9.647,1
282,35.33,-97.49,0,31.121,3,345,-0.328,-0.374,9.616,1
283,35.33,-97.49,359.9,31.13,3,345,-0.299,-0.53,9.713,1
284,35.331,-97.49,359.8,31.1,3,345,-0.383,-0.364,9.749,1
285,35.331,-97.49,359.8,31.1,3,346,-0.382,-0.343,9.73,0
286,35.331,-97.49,359.8,31.07,3,346,-0.429,-0.331,9.973,0
287,35.332,-97.49,359.8,31.1,3,346,-0.629,-0.128,9.915,0
288,35.332,-97.49,0,31.11,3,346,-0.472,-0.179,9.622,0
289,35.332,-97.49,359.9,31.1,3,346,-0.406,-0.202,9.738,0
290,35.332,-97.49,359.8,31.13,3,346,-0.349,-0.327,9.774,0
291,35.333,-97.49,359.4,31.111,3,346,-0.348,-0.489,9.756,0
292,35.333,-97.49,358.6,31.11,3,347,-0.189,-0.693,9.467,1
293,35.333,-97.49,357.1,31.13,3,347,-0.336,-0.595,9.725,1
294,35.333,-97.49,355.8,31.18,3,346,-0.331,-0.438,9.714,1
295,35.334,-97.49,354.7,31.19,3,347,-0.299,-0.618,9.798,1
296,35.334,-97.49,353.6,30.87,3,347,-0.266,-0.656,9.762,0
297,35.334,-97.49,351.8,31.051,3,348,-0.248,-0.85,9.573,0
298,35.335,-97.49,350.3,31.14,3,348,-0.146,-0.863,9.703,0
299,35.335,-97.49,348.7,31.151,3,348,-0.237,-0.706,9.908,0
300,35.335,-97.49,347.2,31.14,3,349,-0.313,-0.565,9.859,0
301,35.335,-97.49,346.1,31.13,3,349,-0.269,-0.523,9.618,0
302,35.336,-97.49,344.7,31.16,3,349,-0.276,-0.48,9.776,0
303,35.336,-97.491,343.4,31.07,3,349,-0.449,-0.372,9.69,0
304,35.336,-97.491,342.6,31.061,3,349,-0.484,-0.445,9.924,0
306,35.337,-97.491,341.9,31.003,3,349,-0.442,-0.295,10.01,0
306,35.337,-97.491,341.9,31.003,3,349,-0.442,-0.295,10.01,0
307,35.337,-97.491,341.6,30.835,3,350,-0.446,-0.317,9.618,0
308,35.337,-97.491,341.5,30.676,3,351,-0.652,-0.176,9.769,0
309,35.337,-97.491,341.8,30.578,3,351,-0.555,-0.261,9.692,0
310,35.338,-97.491,342.2,30.425,3,352,-0.535,-0.443,9.494,0
311,35.338,-97.491,342.2,30.423,3,352,-0.412,-0.757,9.195,0
312,35.338,-97.491,341.7,30.502,3,353,-1.03,-0.774,9.793,0
313,35.338,-97.492,341.3,30.661,3,353,-0.64,-0.757,9.488,0
314,35.339,-97.492,341.2,30.832,3,354,-0.354,-0.366,9.041,1
315,35.339,-97.492,341.2,30.962,3,354,-0.458,-0.44,9.438,1
316,35.339,-97.492,341.4,31.121,3,355,-0.392,-0.482,9.54,1
317,35.339,-97.492,341.5,31.28,3,355,-0.358,-0.558,9.823,1
318,35.34,-97.492,341.5,31.38,3,355,-0.278,-0.636,9.655,1
319,35.34,-97.492,341.4,31.43,3,355,-0.32,-0.432,9.685,1
320,35.34,-97.492,341.2,31.46,3,355,-0.391,-0.427,9.87,1
321,35.34,-97.492,341.3,31.47,3,356,-0.263,-0.379,9.578,1
322,35.341,-97.493,341.3,31.38,3,356,-0.322,-0.362,9.585,1
323,35.341,-97.493,341.4,31.39,3,356,-0.334,-0.372,9.778,1
324,35.341,-97.493,341.4,31.38,3,356,-0.367,-0.378,9.592,1
325,35.342,-97.493,341.5,31.39,3,356,-0.353,-0.37,9.817,1
326,35.342,-97.493,341.5,31.42,3,356,-0.194,-0.45,9.593,1
327,35.342,-97.493,341.4,31.46,3,356,-0.276,-0.259,9.854,1
328,35.342,-97.493,341.4,31.49,3,357,-0.287,-0.291,9.584,1
329,35.343,-97.493,341.3,31.45,3,357,-0.075,-0.233,9.728,1
330,35.343,-97.493,341.3,31.27,3,357,-0.317,0.002,9.993,0
331,35.343,-97.494,341.5,30.951,3,356,-0.457,-0.099,9.886,0
332,35.343,-97.494,341.9,31.06,3,356,-0.358,0.297,10.029,0
333,35.344,-97.494,342.3,30.99,3,356,-0.368,0.33,9.57,0
334,35.344,-97.494,342.9,30.751,3,355,-0.386,0.058,9.536,0
335,35.344,-97.494,343.7,31.081,3,355,-0.526,0.13,9.567,0
336,35.344,-97.494,344.7,30.911,3,355,-0.605,0.184,9.768,0
337,35.345,-97.494,345.6,31.121,3,354,-0.54,0.116,9.895,0
338,35.345,-97.494,346.8,31.272,3,354,-0.613,0.28,10.181,0
339,35.345,-97.494,348.2,31.422,3,353,-0.388,0.158,10.167,0
340,35.346,-97.494,349.2,31.31,3,353,-0.53,0.15,10.065,0
341,35.346,-97.494,350,31.14,3,353,-0.647,0.165,9.955,0
342,35.346,-97.494,351.1,31.071,3,353,-0.447,0.33,9.777,0
343,35.346,-97.494,352.1,30.92,3,353,-0.537,0.065,9.66,0
344,35.347,-97.495,353.3,30.741,3,354,-0.598,-0.136,9.731,0
345,35.347,-97.495,354.3,30.77,3,354,-0.582,-0.054,9.738,0
346,35.347,-97.495,355,30.821,3,354,-0.565,-0.062,9.549,0
347,35.347,-97.495,355.9,30.89,3,355,-0.629,0.035,9.81,0
348,35.348,-97.495,356.8,30.88,3,355,-0.688,0.092,9.877,0
349,35.348,-97.495,358.8,30.951,3,355,-0.693,0.106,9.633,0
350,35.349,-97.495,359.4,30.931,3,356,-0.555,-0.255,9.677,0
351,35.349,-97.495,359.8,31.101,3,357,-0.486,-0.152,8.067,0
352,35.349,-97.495,359.7,31.491,3,357,-0.643,-0.229,9.454,0
353,35.349,-97.495,0.3,30.951,3,357,-0.37,-0.454,9.776,0
354,35.35,-97.495,359.9,30.931,3,356,-0.179,-0.279,9.242,0
355,35.35,-97.495,359.8,30.89,3,357,-0.267,-0.386,9.441,1
356,35.35,-97.495,359.7,30.89,3,356,-0.323,-0.53,9.441,1
357,35.351,-97.495,359.6,30.921,3,357,-0.435,-0.598,9.937,0
358,35.351,-97.495,359.5,30.901,3,357,-0.476,-0.517,9.562,0
359,35.351,-97.495,359.5,30.881,3,358,-0.347,-0.47,9.674,0
360,35.351,-97.495,359.5,30.901,3,358,-0.374,-0.402,9.419,0
361,35.352,-97.495,359.6,30.861,3,359,-0.417,-0.38,9.797,0
362,35.352,-97.495,359.6,30.831,3,360,-0.299,-0.601,9.621,0
363,35.352,-97.495,359.5,30.821,3,360,-0.319,-0.464,9.698,0
364,35.353,-97.495,359.6,30.74,3,360,-0.526,-0.529,10.05,0
365,35.353,-97.495,359.6,30.761,3,361,-0.335,-0.387,9.887,0
366,35.353,-97.495,359.6,30.761,3,361,-0.332,-0.517,9.828,0
367,35.353,-97.495,359.4,30.751,3,362,-0.339,-0.408,9.38,0
368,35.354,-97.495,359.5,30.771,3,362,-0.412,-0.37,9.749,0
369,35.354,-97.495,359.3,30.892,3,362,-0.398,-0.416,9.787,0
370,35.354,-97.495,359.7,30.781,3,359,-0.468,-0.503,9.778,0
371,35.354,-97.495,359.9,30.79,3,360,-0.307,-0.599,9.558,0
372,35.355,-97.495,359.7,30.79,3,361,-0.586,-0.462,10.036,0
373,35.355,-97.495,359.7,30.84,3,361,-0.267,-0.318,9.476,0
374,35.355,-97.495,359.7,30.891,3,362,-0.398,-0.246,9.748,0
375,35.356,-97.495,359.8,30.91,3,362,-0.341,-0.542,9.823,0
377,35.356,-97.495,359.6,30.931,3,363,-0.372,-0.615,9.723,0
377,35.356,-97.495,359.6,30.931,3,363,-0.372,-0.615,9.723,0
378,35.356,-97.495,359.4,30.991,3,363,-0.432,-0.515,9.609,0
379,35.356,-97.495,359.2,31.011,3,362,-0.541,-0.214,9.747,0
380,35.357,-97.495,359.3,30.981,3,363,-0.597,-0.216,9.707,0
381,35.357,-97.495,359.3,30.94,3,362,-0.44,-0.281,9.597,0
382,35.357,-97.495,359.3,30.89,3,362,-0.28,-0.443,9.572,0
383,35.358,-97.495,359.2,30.93,3,362,-0.356,-0.109,9.327,1
384,35.358,-97.495,359.1,30.881,3,363,-0.427,-0.201,9.593,1
385,35.358,-97.495,359.5,30.801,3,363,-0.394,-0.293,9.527,1
386,35.358,-97.495,359.7,30.82,3,363,-0.3,-0.694,9.795,1
387,35.359,-97.495,359.4,30.881,3,363,-0.431,-0.341,9.776,0
388,35.359,-97.495,359.3,30.881,3,364,-0.288,-0.484,9.581,0
389,35.359,-97.495,359.3,30.861,3,364,-0.551,-0.204,9.644,0
390,35.359,-97.495,359.4,30.82,3,364,-0.52,-0.18,10,0
391,35.36,-97.495,359.4,30.87,3,364,-0.327,-0.674,9.791,0
392,35.36,-97.495,359.3,30.89,3,365,-0.381,-0.475,9.76,0
393,35.36,-97.495,359.3,30.911,3,365,-0.482,-0.474,9.851,0
394,35.361,-97.495,359.4,30.871,3,366,-0.414,-0.551,10.029,0
395,35.361,-97.495,359.3,30.832,3,366,-0.327,-0.459,9.564,0
396,35.361,-97.495,359.1,30.704,3,365,-0.356,-0.546,9.595,0
397,35.361,-97.495,359,30.634,3,366,-0.427,-0.252,9.74,0
398,35.362,-97.495,359.1,30.564,3,368,-0.456,-0.58,9.706,0
399,35.362,-97.495,359.4,30.552,3,369,-0.829,-0.204,9.53,0
400,35.362,-97.495,359.4,30.523,3,369,-0.641,-0.252,9.337,0
401,35.363,-97.495,359.5,30.582,3,370,-0.731,-0.534,9.413,0
402,35.363,-97.495,359.5,30.711,3,371,-0.578,-0.469,9.359,0
403,35.363,-97.495,359.4,30.89,3,371,-0.412,-0.317,9.574,0
404,35.363,-97.495,359.3,31.1,3,371,-0.538,-0.145,9.626,0
405,35.364,-97.495,359.3,31.24,3,371,-0.085,-0.508,9.048,0
406,35.364,-97.495,359.3,31.38,3,372,-0.157,-0.545,9.231,0
407,35.364,-97.495,359.4,31.552,3,371,-0.156,-0.569,9.659,0
408,35.364,-97.495,359.4,31.724,3,370,-0.226,-0.477,9.723,0
409,35.365,-97.495,359.2,31.832,3,369,-0.23,-0.35,10.049,0
410,35.365,-97.495,359.1,31.831,3,369,-0.06,-0.267,10.066,0
411,35.365,-97.495,359.3,31.77,3,369,0.013,-0.393,9.879,0
412,35.366,-97.495,359.1,31.63,3,369,-0.02,-0.173,9.709,0
413,35.366,-97.495,359.1,31.3,3,369,0.069,-0.563,9.596,0
414,35.366,-97.495,359.1,31.28,3,369,-0.04,-0.553,9.772,0
415,35.366,-97.495,359.2,30.991,3,370,-0.228,-0.444,9.73,0
416,35.367,-97.495,359.3,30.781,3,370,-0.349,-0.473,9.802,0
417,35.367,-97.495,359.4,30.641,3,370,-0.314,-0.496,9.371,0
418,35.367,-97.495,359.4,30.572,3,371,-0.308,-0.592,9.692,0
419,35.368,-97.495,359.3,30.492,3,372,-0.221,-0.488,9.488,0
420,35.368,-97.495,359.1,30.513,3,373,-0.266,-0.539,9.738,0
421,35.368,-97.495,359.1,30.552,3,373,-0.5,-0.438,9.622,0
422,35.369,-97.495,359.2,30.622,3,374,-0.357,-0.463,9.379,0
423,35.369,-97.495,359.3,30.641,3,374,-0.322,-0.42,9.326,0
424,35.369,-97.495,359.3,30.681,3,374,-0.418,-0.42,9.437,0
425,35.37,-97.495,359.3,30.741,3,374,-0.413,-0.314,9.801,0
426,35.37,-97.495,359.4,30.781,3,374,-0.474,-0.434,9.777,0
427,35.37,-97.495,359.5,30.89,3,375,-0.522,-0.463,9.782,1
428,35.37,-97.495,359.4,31.01,3,376,-0.202,-0.586,9.624,1
429,35.371,-97.495,359.3,31.091,3,376,-0.457,-0.539,9.784,1
430,35.371,-97.495,359.2,31.17,3,376,-0.389,-0.54,9.906,0
431,35.371,-97.495,359.1,31.19,3,376,-0.317,-0.449,9.903,0
432,35.371,-97.495,359.2,31.18,3,376,-0.295,-0.37,9.62,0
433,35.372,-97.495,359.4,31.22,3,377,-0.262,-0.473,9.678,0
434,35.372,-97.495,359.2,31.18,3,377,-0.404,-0.482,9.654,0
435,35.372,-97.495,359.2,31.2,3,377,-0.447,-0.297,10.016,0
436,35.373,-97.495,359.2,31.21,3,377,-0.235,-0.499,9.66,0
437,35.373,-97.495,359.3,31.241,3,378,-0.338,-0.387,9.782,0
438,35.373,-97.495,359.4,31.231,3,378,-0.235,-0.539,9.632,0
439,35.373,-97.495,359.5,31.291,3,378,-0.183,-0.383,9.734,0
440,35.374,-97.495,359.5,31.06,3,378,-0.057,-0.363,9.586,0
441,35.374,-97.495,359.6,30.77,3,378,-0.025,-0.255,9.815,0
442,35.374,-97.495,359.6,30.49,3,378,0.031,-0.492,9.784,0
443,35.375,-97.495,359.6,30.17,3,378,-0.089,-0.283,9.723,0
445,35.375,-97.495,359.4,29.91,3,378,0.016,-0.515,9.543,0
445,35.375,-97.495,359.4,29.91,3,378,0.016,-0.515,9.543,0
446,35.375,-97.495,359.4,29.641,3,377,-0.085,-0.483,9.743,0
447,35.375,-97.495,359.5,29.373,3,379,-0.347,-0.491,9.996,0
448,35.376,-97.495,359.8,29.103,3,380,-0.301,-0.403,9.751,0
449,35.376,-97.495,359.9,28.834,3,381,-0.38,-0.546,9.638,0
450,35.376,-97.495,359.9,28.612,3,381,-0.334,-0.364,9.651,0
451,35.376,-97.495,0,28.461,3,382,-0.339,-0.476,9.658,0
452,35.377,-97.495,0.1,28.381,3,382,-0.605,-0.552,9.975,0
453,35.377,-97.495,0,28.392,3,382,-0.276,-0.418,10.283,0
454,35.377,-97.495,0,28.411,3,383,-0.546,-0.499,9.738,0
455,35.377,-97.495,359.8,28.581,3,383,-0.33,-0.764,9.593,0
456,35.378,-97.495,359.6,28.77,3,382,-0.348,-0.406,8.462,0
457,35.378,-97.495,359.7,29.02,3,382,-0.431,-0.471,8.817,0
458,35.378,-97.495,359.6,29.32,3,382,-0.442,-0.448,9.366,0
459,35.378,-97.495,359.7,29.621,3,382,-0.479,-0.348,9.63,0
460,35.379,-97.495,359.9,29.941,3,382,-0.428,-0.503,9.673,0
461,35.379,-97.495,0,30.242,3,381,-0.469,-0.413,9.89,0
462,35.379,-97.495,0,30.531,3,381,-0.272,-0.555,9.498,0
463,35.38,-97.495,0.1,30.761,3,380,-0.086,-0.701,9.604,1
464,35.38,-97.495,359.8,30.96,3,380,-0.264,-0.28,9.757,1
465,35.38,-97.495,359.6,31.04,3,380,-0.308,-0.446,9.971,0
466,35.38,-97.495,359.7,31.04,3,378,-0.068,-0.372,9.712,0
467,35.381,-97.495,359.6,30.98,3,378,-0.143,-0.351,9.818,0
468,35.381,-97.495,359.7,30.87,3,378,-0.186,-0.3,9.697,0
469,35.381,-97.495,359.7,30.76,3,379,-0.439,-0.084,9.727,0
470,35.382,-97.495,359.8,30.66,3,379,-0.365,-0.112,9.777,0
471,35.382,-97.495,359.9,30.761,3,378,-0.142,-0.314,9.588,0
472,35.382,-97.495,0,30.792,3,378,-0.266,-0.275,9.659,0
473,35.382,-97.495,359.8,30.923,3,377,-0.06,-0.001,9.511,0
474,35.383,-97.495,359.7,30.986,3,376,-0.055,-0.184,9.616,0
475,35.383,-97.495,359.8,31.018,3,375,0.084,-0.229,9.721,0
476,35.383,-97.495,359.8,31.021,3,370,0.142,-0.199,9.826,1
477,35.383,-97.495,359.8,31.017,3,371,0.035,-0.151,10.181,0
478,35.384,-97.495,359.7,31.067,3,370,-0.113,-0.12,10.072,0
479,35.384,-97.495,359.7,31.066,3,369,-0.06,-0.053,10.097,0
480,35.384,-97.495,359.9,31.045,3,368,-0.099,-0.408,10.59,0
481,35.385,-97.495,357.9,31.59,3,368,0.02,-0.085,9.867,0
482,35.385,-97.495,359.9,30.97,3,369,-0.031,-0.189,10.121,0
483,35.385,-97.495,359.7,30.46,3,369,0.066,-0.224,9.905,0
484,35.385,-97.495,359.7,30.02,3,368,-0.012,-0.172,9.93,0
485,35.386,-97.495,359.7,29.692,3,369,0.1,-0.241,9.749,0
486,35.386,-97.495,359.7,29.11,3,368,-0.047,-0.094,9.684,0
487,35.386,-97.495,359.9,28.601,3,368,-0.34,-0.264,9.584,0
488,35.387,-97.495,359.9,28.33,3,368,-0.43,-0.466,9.395,0
489,35.387,-97.495,359.8,28.56,3,368,-0.479,-0.491,9.682,0
490,35.387,-97.495,359.7,28.84,3,368,-0.522,-0.535,9.754,0
491,35.387,-97.495,359.7,29.05,3,368,-0.499,-0.333,9.685,1
492,35.388,-97.495,359.8,29.241,3,368,-0.409,-0.449,9.645,1
493,35.388,-97.495,359.6,29.35,3,367,-0.018,-0.205,9.945,1
494,35.388,-97.495,359.5,29.11,3,367,-0.484,-0.118,9.869,1
495,35.389,-97.495,0,29.41,3,366,-0.643,-0.405,9.932,1
496,35.389,-97.495,359.9,29.89,3,366,-0.678,-0.504,9.765,1
497,35.389,-97.495,359.9,30.42,3,366,-0.765,-0.547,9.889,1
498,35.389,-97.495,0,30.92,3,366,-0.671,-0.641,9.763,0
499,35.39,-97.495,359.9,31.43,3,365,-0.648,-0.665,9.823,0
500,35.39,-97.495,359.9,31.92,3,365,-0.809,-0.654,9.783,0
501,35.39,-97.495,359.7,32.42,3,365,-0.713,-0.632,9.646,0
502,35.391,-97.495,359.6,33,3,364,-0.654,-0.62,9.797,0
503,35.391,-97.495,359.6,33.51,3,364,-0.799,-0.496,9.832,0
504,35.391,-97.495,359.8,34.01,3,364,-0.606,-0.445,9.903,0
505,35.391,-97.495,359.9,34.22,3,364,-0.267,-0.173,9.837,0
506,35.392,-97.495,359.6,33.95,3,364,-0.287,-0.267,9.946,0
507,35.392,-97.495,0.1,34.541,3,365,-0.329,0.024,9.96,0
508,35.392,-97.495,359.8,33.49,3,365,-0.386,0.005,9.622,0
509,35.393,-97.495,0.2,33.31,3,364,-0.305,-0.387,9.615,0
510,35.393,-97.495,359.9,33.29,3,365,-0.39,-0.362,9.69,0
511,35.393,-97.495,359.9,33.25,3,365,-0.338,-0.565,9.906,0
512,35.394,-97.495,359.9,33.241,3,365,-0.394,-0.288,9.905,0
513,35.394,-97.495,0.1,33.231,3,365,-0.271,-0.362,9.655,0
514,35.394,-97.495,0.2,33.251,3,366,-0.163,-0.401,9.652,0
516,35.394,-97.495,0,33.161,3,366,-0.316,-0.466,9.872,1
516,35.394,-97.495,0,33.161,3,366,-0.316,-0.466,9.872,1
517,35.395,-97.495,359.9,33.05,3,367,-0.32,-0.499,9.808,0
518,35.395,-97.495,359.9,33.03,3,367,-0.453,-0.266,9.76,0
519,35.395,-97.495,0.2,33.04,3,367,-0.366,-0.256,9.635,0
520,35.396,-97.495,359.9,32.99,3,366,-0.294,-0.306,9.683,0
521,35.396,-97.495,0,33.04,3,367,-0.389,-0.455,9.476,0
522,35.396,-97.495,359.7,33.32,3,367,-0.326,-0.353,9.433,0
523,35.397,-97.495,359.8,33.22,3,367,-0.446,-0.225,9.651,0
524,35.397,-97.495,359.9,33.31,3,366,-0.166,-0.364,9.96,1
525,35.397,-97.495,0,33.291,3,366,-0.076,0.075,9.441,1
526,35.397,-97.495,0.1,33.062,3,365,0.132,-0.31,9.563,1
527,35.398,-97.495,0,32.855,3,364,0.064,-0.175,9.939,0
528,35.398,-97.495,359.9,32.654,3,364,0.295,0.031,9.753,0
529,35.398,-97.495,359.9,32.243,3,363,0.301,0.091,10.066,0
530,35.399,-97.495,359.9,31.672,3,363,0.353,0.052,10.209,0
531,35.399,-97.495,0.1,31.05,3,362,0.123,-0.088,10.051,0
532,35.399,-97.495,0,29.27,3,362,0.202,-0.364,9.802,0
533,35.399,-97.495,0,29.541,3,362,0.063,-0.142,10.147,0
534,35.4,-97.495,0.1,29.751,3,363,-0.249,-0.087,9.979,0
535,35.4,-97.495,0.4,29.371,3,364,-0.102,-0.325,9.805,0
536,35.4,-97.495,0.5,29.021,3,364,-0.139,-0.917,9.587,0
537,35.4,-97.495,0,28.873,3,365,-0.52,-0.768,9.594,0
538,35.401,-97.495,359.3,29.022,3,366,-0.695,-0.416,9.838,0
539,35.401,-97.495,359.3,29.152,3,366,-0.792,-0.04,9.678,0
540,35.401,-97.495,359.8,29.391,3,366,-1.026,-0.084,9.548,0
541,35.402,-97.495,0.8,29.611,3,366,-0.901,0.137,9.726,0
542,35.402,-97.495,2.2,29.971,3,366,-1.033,-0.053,9.669,0
543,35.402,-97.495,3.4,30.27,3,365,-0.858,-0.119,9.539,0
544,35.402,-97.495,4.6,30.65,3,365,-0.851,-0.133,9.702,0
545,35.403,-97.495,5.5,31.11,3,365,-0.571,0.074,9.63,1
546,35.403,-97.495,6.4,31.29,3,365,-0.586,0.194,8.619,1
547,35.403,-97.495,7.3,31.47,3,365,-0.436,0.342,9.337,1
548,35.403,-97.495,8.3,31.571,3,364,-0.409,0.218,9.521,1
549,35.404,-97.495,9.6,31.6,3,364,-0.513,0.052,10.069,0
550,35.404,-97.495,11,31.64,3,363,-0.287,-0.209,10.343,0
551,35.404,-97.495,11.7,31.56,3,363,-0.331,-0.039,10.216,0
552,35.405,-97.494,12.4,31.39,3,363,-0.401,0.159,10.054,0
553,35.405,-97.494,13.5,31.09,3,363,-0.383,0.006,10.015,0
554,35.405,-97.494,14.6,30.891,3,364,-0.45,0.222,9.805,0
555,35.405,-97.494,15.7,30.612,3,364,-0.425,-0.123,10.069,0
556,35.406,-97.494,17.4,29.982,3,366,-0.695,-0.046,10.297,0
557,35.406,-97.494,17.6,29.692,3,366,-0.223,-0.433,9.978,0
558,35.406,-97.494,17.7,29.331,3,367,-0.091,-0.099,9.716,0
559,35.407,-97.494,17.6,29.08,3,367,0.143,-0.718,9.585,0
560,35.407,-97.494,17.4,28.93,3,368,-0.248,-0.435,9.654,0
561,35.407,-97.494,17.3,28.87,3,368,-0.277,-0.336,9.541,0
562,35.407,-97.493,17.5,28.8,3,368,-0.339,-0.329,9.563,0
563,35.408,-97.493,17.5,28.76,3,368,-0.458,-0.292,9.676,0
564,35.408,-97.493,17.7,28.71,3,369,-0.322,-0.47,9.748,0
565,35.408,-97.493,17.7,28.691,3,369,-0.369,-0.387,9.701,1
566,35.408,-97.493,17.5,28.65,3,370,-0.566,-0.18,10.068,0
567,35.409,-97.493,17.4,28.63,3,370,-0.207,-0.488,9.182,0
568,35.409,-97.493,17.4,28.67,3,369,-0.047,-0.691,9.179,0
569,35.409,-97.493,17.4,28.69,3,369,-0.364,-0.326,9.998,0
570,35.409,-97.493,17.5,28.77,3,369,-0.242,-0.385,9.016,0
571,35.41,-97.493,17.6,28.88,3,369,-0.752,-0.345,9.638,0
572,35.41,-97.493,17.6,28.96,3,369,-0.185,-0.549,9.551,0
573,35.41,-97.492,17.5,29.191,3,369,-0.223,-0.373,9.837,0
574,35.41,-97.492,17.4,29.201,3,369,-0.305,-0.167,9.765,0
575,35.411,-97.492,17.4,29.262,3,366,0.034,-0.356,9.575,0
576,35.411,-97.492,17.6,29.113,3,367,0.132,-0.206,9.413,0
577,35.411,-97.492,17.3,28.895,3,367,-0.15,-0.043,9.782,0
578,35.411,-97.492,17.6,28.724,3,366,0.039,-0.229,9.873,0
579,35.412,-97.492,17.5,28.573,3,366,-0.096,0.005,9.743,0
580,35.412,-97.492,17.7,28.413,3,365,0.021,-0.229,9.838,0
581,35.412,-97.492,17.8,28.293,3,364,-0.126,-0.336,9.654,0
582,35.412,-97.492,17.6,28.362,3,364,-0.062,-0.312,9.536,0
583,35.413,-97.491,17.4,28.272,3,364,-0.334,-0.268,9.687,0
585,35.413,-97.491,17.5,28.432,3,364,-0.23,-0.425,9.729,0
585,35.413,-97.491,17.5,28.432,3,364,-0.23,-0.425,9.729,0
586,35.413,-97.491,17.4,28.703,3,363,-0.229,-0.51,9.716,0
587,35.413,-97.491,17.4,28.944,3,363,-0.286,-0.58,9.763,0
588,35.414,-97.491,17.4,29.201,3,362,-0.129,-0.11,9.988,0
589,35.414,-97.491,17.6,29.12,3,362,-0.014,-0.286,10.038,0
590,35.414,-97.491,17.4,28.75,3,362,-0.306,-0.116,9.922,0
591,35.414,-97.491,17.4,28.971,3,362,-0.422,-0.324,10.156,0
592,35.415,-97.491,17.8,28.515,3,363,-0.268,-0.547,9.792,0
593,35.415,-97.491,17.3,28.582,3,364,-0.418,-0.494,9.92,0
594,35.415,-97.491,17.3,28.453,3,364,-0.562,-0.587,9.612,0
595,35.415,-97.49,17.1,28.541,3,364,-0.786,-0.473,9.696,0
596,35.416,-97.49,17.5,28.702,3,365,-0.652,-0.537,9.767,0
597,35.416,-97.49,17.6,28.912,3,366,-0.209,-0.619,9.61,0
598,35.416,-97.49,17.5,29.101,3,366,-0.081,-0.327,9.473,0
599,35.416,-97.49,17.4,28.751,3,366,-0.436,-0.215,9.502,0
600,35.417,-97.49,17.5,28.611,3,366,-0.457,-0.462,9.577,1
601,35.417,-97.49,17.7,28.72,3,366,-0.363,-0.56,9.837,1
602,35.417,-97.49,17.7,28.9,3,367,-0.473,-0.474,9.593,1
603,35.417,-97.49,17.4,29.2,3,366,-0.153,-0.373,9.629,1
604,35.418,-97.49,17.5,29.352,3,366,0.079,-0.201,9.728,1
605,35.418,-97.489,17.4,29.131,3,366,-0.314,-0.048,9.841,0
606,35.418,-97.489,17.6,29,3,365,-0.474,-0.053,10.014,0
607,35.418,-97.489,17.6,29.03,3,365,-0.164,-0.422,9.849,0
608,35.419,-97.489,17.7,28.98,3,365,-0.21,-0.542,9.864,0
609,35.419,-97.489,17.7,28.841,3,365,-0.222,-0.488,9.823,0
610,35.419,-97.489,17.6,28.712,3,365,-0.219,-0.274,9.914,0
611,35.419,-97.489,17.9,28.582,3,366,-0.719,0.034,9.664,0
612,35.42,-97.489,18.8,28.531,3,366,-0.708,-0.441,9.674,0
613,35.42,-97.489,19.9,28.761,3,366,-0.809,-0.263,9.606,0
614,35.42,-97.489,20.5,29.061,3,367,-0.818,-0.345,9.796,0
615,35.42,-97.488,21.2,29.351,3,366,-0.519,-0.029,9.274,0
616,35.421,-97.488,21.8,29.6,3,366,-0.117,0.077,10.001,0
617,35.421,-97.488,22.3,29.33,3,366,-0.048,-0.228,9.393,0
618,35.421,-97.488,22.3,28.91,3,366,0.093,-0.156,9.766,0
619,35.421,-97.488,22.3,28.7,3,366,-0.094,-0.248,9.746,0
620,35.421,-97.488,22.1,28.57,3,365,0.069,-0.168,9.57,0
621,35.422,-97.488,22.1,28.321,3,365,-0.168,-0.186,9.69,0
622,35.422,-97.488,22.2,28.221,3,364,-0.298,-0.379,9.584,0
623,35.422,-97.488,22.2,28.201,3,364,-0.231,-0.371,9.417,0
624,35.422,-97.487,22.2,28.322,3,364,-0.113,-0.348,9.42,1
625,35.423,-97.487,22.3,28.512,3,363,-0.197,-0.356,9.574,1
626,35.423,-97.487,22,28.561,3,363,-0.413,-0.161,9.955,1
627,35.423,-97.487,21.3,28.752,3,361,-0.325,-0.443,9.913,0
628,35.424,-97.487,20.3,28.963,3,360,-0.272,-0.702,9.829,0
629,35.424,-97.487,18.9,29.183,3,359,-0.205,-0.703,9.75,0
630,35.424,-97.487,17.2,29.432,3,359,-0.157,-0.64,9.754,0
631,35.424,-97.487,15.7,29.662,3,358,-0.144,-0.745,9.791,0
632,35.425,-97.486,14.2,29.882,3,358,-0.302,-0.607,9.923,0
633,35.425,-97.486,13.3,30,3,357,-0.137,-0.605,9.922,0
634,35.425,-97.486,11.3,30.331,3,356,-0.125,-0.697,9.945,0
635,35.425,-97.486,9.9,30.4,3,356,-0.228,-0.715,9.85,0
636,35.426,-97.486,8.6,30.341,3,356,-0.349,-0.601,9.722,0
637,35.426,-97.486,7.3,30.45,3,356,-0.156,-0.465,9.542,0
638,35.426,-97.486,5.2,31.223,3,355,0.051,-0.253,9.759,0
639,35.427,-97.486,3.7,31.021,3,355,0.3,-0.458,9.808,0
640,35.427,-97.486,2.1,30.951,3,354,-0.297,-0.497,9.491,0
641,35.427,-97.486,0.8,31.152,3,353,-0.306,-0.498,9.694,0
642,35.427,-97.486,0.2,31.43,3,353,-0.607,-0.135,9.745,0
643,35.428,-97.486,359.9,31.82,3,353,-0.617,-0.19,9.541,0
644,35.428,-97.486,359.9,32.161,3,352,-0.3,-0.143,9.433,0
645,35.428,-97.486,358,30.912,3,352,-0.481,-0.553,9.786,0
646,35.429,-97.486,0.2,32.1,3,352,-0.602,-0.503,9.817,0
647,35.429,-97.486,0.3,32.74,3,352,-0.658,-0.424,9.598,0
648,35.429,-97.486,0.4,33.4,3,352,-0.571,-0.703,9.794,0
649,35.429,-97.486,0.2,33.91,3,353,-0.614,-0.625,9.403,0
650,35.43,-97.486,0.1,34.24,3,353,-0.839,-0.529,9.993,0
651,35.43,-97.486,0.2,34.841,3,353,-0.823,-0.589,9.76,0
652,35.43,-97.486,0.5,35.241,3,354,-0.87,-0.502,9.831,0
653,35.431,-97.486,0.8,35.791,3,354,-0.749,-0.682,9.912,0
655,35.431,-97.486,1,36.27,3,354,-0.56,-0.713,9.572,0
655,35.431,-97.486,1,36.27,3,354,-0.56,-0.713,9.572,0
656,35.431,-97.486,0.9,36.04,3,355,0.192,-0.322,9.946,0
657,35.432,-97.486,0.6,35.68,3,355,0.282,-0.416,9.924,0
658,35.432,-97.486,0.4,35.32,3,355,0.465,-0.053,9.055,0
659,35.432,-97.486,0.2,34.98,3,355,0.343,-0.116,9.509,0
660,35.433,-97.486,0,34.49,3,355,-0.005,-0.114,9.652,0
661,35.433,-97.486,0,34.13,3,355,0.164,-0.059,9.765,0
662,35.433,-97.486,0.1,33.771,3,355,0.057,-0.072,9.613,0
663,35.434,-97.486,0,33.432,3,354,0.075,-0.213,9.888,0
664,35.434,-97.486,0.1,33.165,3,353,0.206,0.004,9.613,0
665,35.434,-97.486,0,32.914,3,352,-0.092,0.085,9.999,0
666,35.434,-97.486,0.2,32.591,3,352,0.165,-0.193,9.932,0
667,35.435,-97.486,0.2,32.311,3,352,0.118,0.101,9.692,0
668,35.435,-97.486,0.2,31.99,3,352,0.064,-0.208,9.904,0
669,35.435,-97.486,0.5,31.73,3,352,0.076,-0.205,9.963,0
670,35.436,-97.486,1.2,31.74,3,352,-0.02,-0.186,9.919,0
671,35.436,-97.486,359.9,30.85,3,352,-0.212,-0.067,9.691,0
672,35.436,-97.486,0.1,30.52,3,352,0.096,-0.297,9.722,0
673,35.436,-97.486,0,30.22,3,352,-0.02,-0.119,9.786,0
674,35.437,-97.486,359.8,29.77,3,352,0.125,-0.206,9.729,0
675,35.437,-97.486,359.7,29.38,3,345,-0.185,-0.126,9.638,0
676,35.437,-97.486,359.7,28.98,3,349,-0.13,-0.206,9.572,0
677,35.437,-97.486,359.8,28.601,3,350,-0.016,-0.363,9.714,0
678,35.438,-97.486,0,28.211,3,351,-0.072,0.009,9.524,0
679,35.438,-97.486,0,27.8,3,352,-0.078,-0.146,9.581,0
680,35.438,-97.486,0.2,27.46,3,352,-0.044,-0.266,9.735,0
681,35.438,-97.486,0.3,27.24,3,352,-0.017,-0.26,9.865,1
682,35.439,-97.486,0.2,26.8,3,354,-0.56,-0.734,9.695,0
683,35.439,-97.486,359.9,26.79,3,354,-0.539,-0.615,9.5,0
684,35.439,-97.486,359.6,26.92,3,354,-0.733,-0.669,9.805,0
685,35.439,-97.486,359.2,27.081,3,355,-0.516,-0.651,9.496,0
686,35.44,-97.486,359.9,27.752,3,344,-0.578,-0.642,9.584,0
687,35.44,-97.486,359.8,28.32,3,349,-0.673,-0.471,10.074,0
688,35.44,-97.486,0,28.68,3,351,-0.443,-0.477,9.36,0
689,35.44,-97.486,0,28.92,3,353,-0.257,-0.183,9.81,0
690,35.441,-97.486,359.9,28.97,3,353,-0.38,-0.304,9.675,0
691,35.441,-97.486,359.9,28.85,3,354,-0.342,-0.287,9.764,0
692,35.441,-97.486,0.1,28.66,3,354,-0.581,-0.229,9.434,0
693,35.441,-97.486,0.2,28.69,3,355,-0.361,-0.46,9.464,0
694,35.442,-97.486,0.3,28.83,3,356,-0.451,-0.485,9.486,0
695,35.442,-97.486,0.3,29.12,3,356,-0.134,-0.282,9.859,1
696,35.443,-97.486,0.1,28.801,3,356,0.09,-0.347,9.528,1
697,35.443,-97.486,0.2,28.592,3,355,-0.039,-0.077,9.702,1
698,35.443,-97.486,359.9,28.371,3,354,-0.048,-0.279,9.462,1
699,35.443,-97.486,359.9,28.162,3,353,0.046,-0.458,9.456,1
700,35.444,-97.486,359.8,27.932,3,352,0.006,-0.269,9.733,1
701,35.444,-97.486,359.4,27.901,3,352,-0.409,-0.243,9.221,1
702,35.444,-97.486,359.3,28.061,3,351,-0.427,-0.154,9.713,1
703,35.444,-97.486,358.9,28.302,3,351,-0.296,-0.21,9.826,1
704,35.445,-97.486,358.3,28.352,3,349,-0.072,0,10.058,0
705,35.445,-97.486,357.7,28.092,3,349,-0.172,-0.027,9.904,0
706,35.445,-97.486,356.7,27.921,3,348,-0.239,-0.368,9.958,0
707,35.445,-97.486,355.9,27.84,3,347,-0.411,-0.295,9.699,0
708,35.446,-97.486,354.9,27.85,3,342,-0.405,-0.631,9.411,0
709,35.446,-97.486,353.9,28.14,3,343,-0.459,-0.625,9.36,0
710,35.446,-97.486,352.9,28.45,3,344,-0.102,-0.704,9.647,0
711,35.446,-97.486,351.8,28.53,3,344,-0.335,-0.529,9.802,0
712,35.447,-97.486,350.9,28.67,3,344,-0.431,-0.523,9.77,0
713,35.447,-97.486,349.9,28.9,3,344,-0.09,-0.388,9.65,1
714,35.447,-97.486,349,28.821,3,344,-0.232,-0.224,9.777,1
715,35.447,-97.487,348.4,28.751,3,340,-0.289,-0.378,9.996,0
716,35.448,-97.487,347.6,28.71,3,341,-0.303,-0.413,9.994,0
717,35.448,-97.487,346.6,28.68,3,342,-0.142,-0.487,9.906,0
718,35.448,-97.487,345.6,28.52,3,342,-0.104,-0.078,9.858,0
719,35.448,-97.487,344.6,28.35,3,342,0.036,-0.117,9.68,0
720,35.449,-97.487,344,28.31,3,342,-0.028,-0.156,9.823,0
721,35.449,-97.487,342.6,27.891,3,341,-0.192,-0.423,9.708,0
722,35.449,-97.487,341.4,27.902,3,339,-0.442,-0.444,9.761,0
723,35.449,-97.487,340.3,28.131,3,339,-0.582,-0.21,9.55,0
725,35.45,-97.487,340,28.48,3,338,-0.632,-0.37,9.705,1
725,35.45,-97.487,340,28.48,3,338,-0.632,-0.37,9.705,1
726,35.45,-97.487,339.3,29.16,3,338,-0.685,-0.517,9.882,1
727,35.45,-97.488,339,29.44,3,338,-0.435,-0.369,9.864,0
728,35.45,-97.488,339,29.4,3,337,-0.244,-0.434,9.779,0
729,35.451,-97.488,338.9,29.461,3,338,-0.013,-0.247,9.865,0
730,35.451,-97.488,339.1,29.012,3,338,-0.115,-0.263,9.733,0
731,35.451,-97.488,339.3,28.572,3,339,-0.331,-0.262,9.594,0
732,35.451,-97.488,339.5,28.381,3,339,-0.571,-0.263,9.617,0
733,35.452,-97.488,339.9,28.422,3,340,-0.524,-0.601,9.753,0
734,35.452,-97.488,340,28.492,3,341,-0.757,-0.29,9.662,0
735,35.452,-97.488,340.2,28.653,3,341,-0.612,-0.454,9.67,0
736,35.452,-97.489,340.5,28.792,3,339,-0.98,-0.221,10.133,0
737,35.453,-97.489,340.9,29.005,3,341,-0.868,-0.288,9.748,0
738,35.453,-97.489,341.1,29.174,3,342,-0.334,-0.525,9.501,0
739,35.453,-97.489,341.4,29.193,3,339,-0.338,-0.312,9.386,0
740,35.453,-97.489,341.3,28.982,3,339,-0.584,-0.431,9.654,0
741,35.454,-97.489,341.2,28.941,3,341,-0.16,-0.519,9.303,0
742,35.454,-97.489,341,28.9,3,342,-0.451,-0.223,9.581,0
743,35.454,-97.489,340.9,28.86,3,343,-0.133,-0.145,8.957,0
744,35.454,-97.489,340.8,28.9,3,343,-0.306,-0.279,9.37,0
745,35.455,-97.489,340.9,28.96,3,343,-0.3,-0.491,9.04,0
746,35.455,-97.49,341.1,29.26,3,340,-0.513,-0.485,9.586,0
747,35.455,-97.49,340.8,29.712,3,341,-0.62,-0.428,9.565,0
748,35.455,-97.49,340.7,30.323,3,341,-0.187,-0.329,9.677,0
749,35.456,-97.49,340.8,30.814,3,341,-0.237,-0.337,9.758,0
750,35.456,-97.49,340.7,31.071,3,341,-0.251,-0.487,9.465,1
751,35.456,-97.49,340.7,31.332,3,341,-0.391,-0.468,9.941,1
752,35.456,-97.49,340.6,31.572,3,340,-0.26,-0.603,9.695,0
753,35.457,-97.49,340.5,31.832,3,340,-0.44,-0.466,9.809,0
754,35.457,-97.49,340.2,32.131,3,339,-0.392,-0.324,9.722,0
755,35.457,-97.491,340.2,32.37,3,339,-0.583,-0.22,9.781,0
756,35.457,-97.491,340.4,32.58,3,339,-0.833,0.107,10.256,0
757,35.458,-97.491,340.6,32.73,3,339,-0.976,0.046,8.891,0
758,35.458,-97.491,340.9,32.841,3,339,-1.197,-0.213,11.189,0
759,35.458,-97.491,340.9,33.001,3,340,-0.685,-0.372,10.321,0
760,35.459,-97.491,341,33.191,3,340,-0.32,-0.217,9.659,0
761,35.459,-97.491,341.1,33.201,3,341,-0.167,-0.1,9.501,0
762,35.459,-97.491,341.3,33.002,3,341,-0.567,-0.316,9.673,0
763,35.459,-97.492,341.3,32.611,3,342,-0.65,0.033,9.132,0
764,35.46,-97.492,341.7,32.381,3,342,-0.37,-0.211,9.988,0
765,35.46,-97.492,342.1,32.181,3,343,-0.251,-0.549,9.897,0
766,35.46,-97.492,341.9,31.92,3,339,-0.221,-0.167,9.541,0
767,35.46,-97.492,341.3,31.941,3,341,-0.281,-0.124,9.535,0
768,35.461,-97.492,341,31.681,3,342,-0.526,-0.027,9.792,0
769,35.461,-97.492,341,31.671,3,342,-0.8,-0.554,10.408,0
770,35.462,-97.492,338.2,31.511,3,343,0.676,-1.105,10.308,0
771,35.462,-97.493,334.5,31.711,3,343,0.822,-2.099,9.713,0
772,35.462,-97.493,328.8,31.312,3,344,0.742,-2.136,9.776,0
773,35.462,-97.493,326.5,30.601,3,344,0.713,-2.044,9.79,0
774,35.463,-97.493,320.8,32.843,3,343,0.618,-1.631,9.91,0
775,35.463,-97.494,315,30.95,3,340,0.64,-2.033,9.594,0
776,35.463,-97.494,310.2,30.701,3,341,0.663,-2.182,9.866,0
777,35.463,-97.494,305.8,30.891,3,342,0.468,-2.031,9.822,0
778,35.463,-97.494,301.5,30.95,3,342,0.472,-1.793,9.517,0
779,35.463,-97.495,297.9,31.13,3,342,0.367,-1.12,9.23,0
780,35.463,-97.495,296.1,30.96,3,342,0.173,-0.294,9.883,0
781,35.464,-97.495,295.6,30.64,3,342,-0.155,0.185,9.857,0
782,35.464,-97.496,295.5,30.29,3,342,-0.176,-0.024,10.069,0
783,35.464,-97.496,295.7,29.97,3,343,-0.124,-0.077,9.556,0
784,35.464,-97.496,296,29.63,3,343,-0.257,0.008,10.153,0
785,35.464,-97.496,296.2,29.27,3,343,0.074,-0.067,9.707,0
786,35.464,-97.497,296.4,28.94,3,343,-0.078,-0.442,10.124,0
787,35.464,-97.497,296.4,28.851,3,344,-0.389,-0.325,9.545,0
788,35.464,-97.497,296.5,28.93,3,344,-0.259,0.13,9.792,0
789,35.464,-97.498,298,28.67,3,344,-0.464,0.757,9.997,0
790,35.465,-97.498,300.7,28.36,3,344,-0.646,0.916,10.151,0
791,35.465,-97.498,303.6,28.08,3,344,-0.565,0.665,10.057,0
792,35.465,-97.498,306.1,27.83,3,344,-0.731,0.574,9.695,0
793,35.465,-97.499,308.7,27.54,3,345,-0.345,0.024,10.067,0
794,35.465,-97.499,310.1,27.44,3,345,-0.559,-0.343,9.993,0
796,35.465,-97.499,311.3,27.62,3,345,-1.151,-0.002,9.952,0
796,35.465,-97.499,311.3,27.62,3,345,-1.151,-0.002,9.952,0
797,35.466,-97.499,312.9,27.941,3,345,-1.131,-0.023,9.661,0
798,35.466,-97.499,312.8,28.712,3,346,-1.337,0.305,9.568,0
799,35.466,-97.5,317.3,28.62,3,346,-0.637,0.55,10.107,0
800,35.466,-97.5,319.4,28.45,3,346,-0.588,0.556,9.886,0
801,35.466,-97.5,321.5,28.13,3,347,-0.072,0.255,10.022,0
802,35.466,-97.5,323.1,27.86,3,346,-0.279,0.492,9.561,0
803,35.467,-97.5,324.1,27.45,3,342,-0.436,-0.222,10.112,0
804,35.467,-97.501,324.4,27.16,3,344,-0.048,-0.281,9.984,0
805,35.467,-97.501,324.4,26.743,3,345,-0.131,-0.286,9.626,0
806,35.467,-97.501,324.6,26.363,3,346,-0.288,-0.445,9.58,0
807,35.467,-97.501,324.6,26.186,3,347,-0.685,-0.687,9.97,0
808,35.468,-97.501,324.4,26.216,3,348,-0.491,-0.797,9.348,0
809,35.468,-97.501,324.3,26.285,3,346,-0.771,-0.355,9.933,0
810,35.468,-97.502,324.1,26.095,3,348,-0.393,-0.498,9.978,0
811,35.468,-97.502,324,25.902,3,349,-0.429,-0.643,9.235,0
812,35.468,-97.502,323.6,25.734,3,349,-0.625,-0.526,9.522,0
813,35.469,-97.502,323.4,25.714,3,349,-0.553,-0.645,9.885,0
814,35.469,-97.502,323.4,25.864,3,350,-0.315,-0.776,9.967,0
815,35.469,-97.502,323,25.923,3,350,-0.417,-0.889,9.59,0
816,35.469,-97.503,322.2,26.012,3,351,-0.483,-0.811,9.39,0
817,35.469,-97.503,321.8,26.171,3,351,-0.545,-0.666,9.705,0
818,35.47,-97.503,321.6,26.361,3,352,-0.466,-0.667,9.549,0
819,35.47,-97.503,321.5,26.591,3,352,-0.209,-0.504,9.865,0
820,35.47,-97.503,321.3,26.801,3,353,-0.019,-0.569,9.525,0
821,35.47,-97.504,321.3,26.85,3,353,-0.242,-0.599,9.629,0
822,35.47,-97.504,320.9,26.811,3,353,-0.344,-0.482,9.639,1
823,35.471,-97.504,320.9,26.87,3,354,-0.34,-0.489,9.697,1
824,35.471,-97.504,320.6,26.81,3,354,-0.127,-0.378,9.592,1
825,35.471,-97.504,320.3,26.8,3,354,-0.077,-0.321,9.947,1
826,35.471,-97.504,320,26.541,3,354,-0.212,-0.182,9.84,1
827,35.471,-97.505,320.1,26.24,3,354,-0.047,-0.129,9.826,1
828,35.471,-97.505,320.2,25.93,3,354,-0.359,-0.662,9.52,1
829,35.472,-97.505,320.5,25.86,3,347,-0.778,-0.434,10.045,0
830,35.472,-97.505,320.6,26.22,3,350,-0.137,-0.277,9.606,0
831,35.472,-97.505,320.6,26.51,3,351,-0.179,-0.109,9.5,0
832,35.472,-97.506,320.5,26.41,3,352,-0.097,-0.101,9.427,0
833,35.472,-97.506,320.5,26.22,3,352,-0.018,-0.241,9.587,0
834,35.473,-97.506,320.3,26.072,3,352,-0.388,-0.361,9.566,0
835,35.473,-97.506,320.2,25.8,3,352,-0.336,-0.449,9.606,0
836,35.473,-97.506,320.3,26.021,3,352,-0.414,-0.413,9.377,0
837,35.473,-97.507,320.3,26.35,3,352,-0.392,-0.467,9.846,0
838,35.473,-97.507,320.4,26.835,3,350,-0.133,0.032,9.446,0
839,35.473,-97.507,320.5,27.164,3,349,-0.306,-0.313,9.506,0
840,35.474,-97.507,320.4,27.26,3,349,-0.48,-0.337,10.006,0
841,35.474,-97.507,321.2,27.965,3,347,-0.341,-0.098,9.924,0
842,35.474,-97.508,321.7,27.82,3,346,-0.348,0.41,10.064,0
843,35.474,-97.508,323.9,27.76,3,345,-0.569,0.651,10.461,0
844,35.475,-97.508,324.5,27.799,3,348,-0.644,0.417,9.988,0
845,35.475,-97.508,327.5,27.341,3,348,-0.534,0.433,9.955,0
846,35.475,-97.508,330.3,27.03,3,348,-0.358,0.468,9.82,0
847,35.475,-97.508,332.2,26.661,3,340,-0.339,0.332,9.565,0
848,35.475,-97.509,333.7,26.32,3,343,-0.253,0.238,9.708,0
849,35.476,-97.509,335.1,26.02,3,343,-0.394,0.282,9.541,0
850,35.476,-97.509,336.8,25.891,3,343,-0.556,0.081,9.728,0
851,35.476,-97.509,338.6,26.042,3,344,-0.696,0.137,9.845,0
852,35.476,-97.509,340.4,26.371,3,343,-0.743,0.304,9.634,0
853,35.477,-97.509,342.5,26.601,3,343,-0.681,0.147,9.736,0
854,35.477,-97.509,344.2,26.891,3,343,-0.546,0.329,9.686,0
855,35.477,-97.509,346,26.85,3,343,-0.26,0.311,9.857,0
856,35.477,-97.509,347.8,26.74,3,343,-0.524,-0.051,10.023,0
857,35.478,-97.509,349.2,26.86,3,336,-0.638,0.023,9.882,0
858,35.478,-97.509,350.9,26.95,3,339,-0.825,0.366,9.836,0
859,35.478,-97.509,352.8,27.11,3,340,-0.769,0.288,10.026,0
860,35.478,-97.509,353.4,27,3,340,-0.508,0.239,9.92,0
861,35.478,-97.509,356.1,26.66,3,341,-0.351,-0.247,9.788,0
862,35.479,-97.509,356.9,26.741,3,343,-0.234,-0.28,9.621,0
863,35.479,-97.51,356.8,26.591,3,343,-0.371,-0.151,9.723,0
865,35.479,-97.51,356.9,26.481,3,343,-0.285,-0.374,9.786,0
865,35.479,-97.51,356.9,26.481,3,343,-0.285,-0.374,9.786,0
866,35.479,-97.51,356.8,26.321,3,344,-0.418,-0.274,9.778,0
867,35.48,-97.51,356.8,26.28,3,344,-0.26,-0.186,9.579,0
868,35.48,-97.51,356.4,26.12,3,337,-0.237,-0.128,9.483,1
869,35.48,-97.51,355.9,25.89,3,339,-0.421,-0.437,9.743,1
870,35.48,-97.51,355.2,26.06,3,340,-0.505,-0.522,9.744,1
871,35.481,-97.51,354.6,26.31,3,342,-0.523,-0.442,9.838,1
872,35.481,-97.51,354,26.5,3,343,-0.529,-0.384,9.71,1
873,35.481,-97.51,353.4,26.69,3,343,-0.278,-0.209,9.65,1
874,35.481,-97.51,353,26.67,3,343,-0.355,-0.332,9.767,1
875,35.482,-97.51,352.2,26.63,3,343,-0.092,-0.352,9.564,1
876,35.482,-97.51,351.2,26.44,3,343,-0.359,-0.455,9.983,1
877,35.482,-97.51,350.3,26.551,3,343,-0.367,-0.346,9.752,1
878,35.482,-97.51,350.3,26.51,3,343,-0.508,-0.591,9.862,1
879,35.483,-97.51,350,26.82,3,343,-0.455,-0.596,9.851,1
880,35.483,-97.51,347.8,26.931,3,343,-0.792,-0.5,9.773,0
881,35.483,-97.51,347.4,27.043,3,344,-0.801,-0.4,9.703,0
882,35.483,-97.51,347.2,27.267,3,344,-0.91,-0.428,9.596,0
883,35.483,-97.51,347,27.486,3,344,-1.168,-0.083,9.558,0
884,35.484,-97.51,347.7,27.846,3,345,-1.442,-0.293,9.756,0
885,35.484,-97.51,348.7,28.385,3,346,-1.028,-0.337,9.668,0
886,35.484,-97.51,349.4,28.894,3,346,-0.884,-0.68,9.786,0
887,35.484,-97.511,349.5,29.185,3,347,-0.735,-0.53,9.506,0
888,35.485,-97.511,349.6,29.266,3,348,-0.56,-0.497,9.511,0
889,35.485,-97.511,350,29.337,3,349,-0.909,0.072,10.13,0
890,35.485,-97.511,350.9,29.377,3,350,-0.617,0.066,9.879,0
891,35.486,-97.511,351.7,29.423,3,351,0.341,0.292,9.555,0
892,35.486,-97.511,352.9,28.597,3,352,-0.283,0.049,9.712,0
893,35.486,-97.511,354.1,28.025,3,353,-0.659,0.074,9.593,0
894,35.486,-97.511,355,27.693,3,353,-0.522,-0.321,9.691,0
895,35.487,-97.511,355.9,27.671,3,354,-0.735,-0.352,9.57,0
896,35.487,-97.511,356.8,27.866,3,355,-0.91,-0.45,9.659,0
897,35.487,-97.511,357.3,27.853,3,356,-1.298,-0.141,9.705,0
898,35.487,-97.511,358.2,28.251,3,356,-0.98,-0.418,9.645,0
899,35.488,-97.511,359.2,28.831,3,357,-1.013,-0.554,9.793,0
900,35.488,-97.511,359.7,29.411,3,357,-0.713,-0.323,8.774,1
901,35.488,-97.511,0,30.02,3,357,-0.993,-0.463,10.212,0
902,35.488,-97.511,0.2,30.57,3,353,-1.012,-0.49,9.879,0
903,35.489,-97.511,0.2,31,3,354,-0.656,-0.51,9.726,0
904,35.489,-97.511,359.6,31.4,3,355,-0.848,-0.528,10.061,0
905,35.489,-97.511,359.1,31.85,3,356,0.174,-0.843,9.542,0
906,35.49,-97.511,357.9,32.26,3,356,0.171,-1.116,9.315,0
907,35.49,-97.511,355.4,32.38,3,356,0.499,-1.26,9.59,0
908,35.49,-97.511,350.8,32.33,3,355,-0.066,-0.658,9.826,0
909,35.491,-97.511,349.4,32.38,3,355,0.079,-0.611,9.27,0
910,35.491,-97.511,347.6,32.392,3,355,0.545,-0.934,9.797,0
911,35.491,-97.511,345.9,32.071,3,354,0.386,-0.49,9.516,0
912,35.491,-97.511,344.5,31.93,3,354,0.208,-0.905,9.57,0
913,35.492,-97.511,342.1,31.48,3,354,0.385,-0.889,9.683,0
914,35.492,-97.512,339.9,31.21,3,353,0.364,-0.786,9.625,0
915,35.492,-97.512,338.2,30.9,3,353,0.338,-0.442,9.269,0
916,35.493,-97.512,336.4,30.581,3,353,-0.364,0.109,9.391,0
917,35.493,-97.512,335.4,30.31,3,352,-0.097,-0.169,9.72,0
918,35.493,-97.512,335.2,30.021,3,351,0.199,-0.202,9.37,0
919,35.493,-97.512,334.6,29.762,3,351,0.403,-0.342,9.494,0
920,35.494,-97.512,334.6,29.551,3,351,0.291,0.104,9.237,0
921,35.494,-97.513,334.8,29.171,3,350,0.718,0.191,9.529,0
922,35.494,-97.513,335,28.223,3,350,0.739,0.033,9.27,0
923,35.494,-97.513,335.1,27.464,3,349,-0.033,0.117,10.014,0
924,35.494,-97.513,336.6,27.363,3,348,-0.476,0.778,9.888,0
925,35.495,-97.513,338.7,27.256,3,347,-0.296,0.338,9.927,0
926,35.495,-97.513,340.5,27.155,3,346,-0.327,0.356,10.021,0
927,35.495,-97.513,342.3,27.079,3,346,-0.326,0.297,10.667,0
928,35.495,-97.513,343.7,26.925,3,345,-0.21,0.149,9.891,0
929,35.496,-97.513,345.3,26.845,3,344,-0.333,0.411,9.56,0
930,35.496,-97.513,347.1,26.846,3,344,-0.159,0.46,9.838,0
931,35.496,-97.514,348.7,26.766,3,343,-0.147,0.173,9.85,0
932,35.496,-97.514,350.2,26.734,3,342,0.37,-0.378,9.712,0
934,35.497,-97.514,351.4,26.714,3,341,-0.006,-0.238,9.519,0
934,35.497,-97.514,351.4,26.714,3,341,-0.006,-0.238,9.519,0
935,35.497,-97.514,352.9,27.025,3,340,-0.357,0.302,9.967,0
936,35.497,-97.514,354.7,27.286,3,344,-0.785,0.214,10.312,0
937,35.497,-97.514,356.2,27.548,3,341,-0.163,0.158,9.574,0
938,35.498,-97.514,357.4,27.533,3,339,-0.05,-0.177,9.986,0
939,35.498,-97.514,358,27.505,3,338,-0.066,-0.046,9.848,0
940,35.498,-97.514,358.2,27.446,3,337,0.046,-0.204,9.635,0
941,35.498,-97.514,358.3,27.425,3,336,-0.169,-0.154,9.78,0
942,35.499,-97.514,358.3,27.501,3,335,0.031,-0.316,9.912,0
943,35.499,-97.514,358.2,27.351,3,334,-0.009,-0.19,9.979,0
944,35.499,-97.514,358.2,27.161,3,338,-0.013,-0.201,9.953,0
945,35.499,-97.514,358.3,26.9,3,336,-0.018,-0.29,9.911,0
946,35.499,-97.514,358.2,26.6,3,335,-0.25,-0.493,9.66,0
947,35.5,-97.514,358.2,26.49,3,335,-0.399,-0.526,9.632,0
948,35.5,-97.514,358.1,26.75,3,335,-0.132,-0.275,9.753,0
949,35.5,-97.514,357.9,26.7,3,334,-0.06,-0.388,9.868,0
950,35.5,-97.514,358,26.47,3,334,-0.056,-0.449,9.758,0
951,35.501,-97.514,358,26.27,3,334,-0.377,-0.399,9.679,1
952,35.501,-97.514,357.8,26.33,3,333,-0.593,-0.496,9.807,1
953,35.501,-97.514,357.9,26.65,3,333,-0.679,-0.518,9.806,1
954,35.501,-97.514,358,27.13,3,335,-0.696,-0.669,9.639,1
955,35.502,-97.514,358.1,27.66,3,334,-0.69,-0.736,9.594,1
956,35.502,-97.514,358.1,28.2,3,333,-0.679,-0.621,9.557,1
957,35.502,-97.514,358.1,28.62,3,333,-0.572,-0.482,9.777,1
958,35.502,-97.514,358.1,28.94,3,333,-0.543,-0.383,9.593,1
959,35.503,-97.514,358.1,29.081,3,333,-0.513,-0.609,9.611,1
960,35.503,-97.514,358.2,29.26,3,334,-0.288,-0.355,9.767,1
961,35.503,-97.514,358.1,29.39,3,334,-0.25,-0.051,9.846,1
962,35.503,-97.514,358.2,29.1,3,334,0.033,-0.336,9.977,0
963,35.504,-97.514,358.4,28.6,3,334,-0.27,-0.265,10.224,0
964,35.504,-97.514,358.2,28.371,3,335,-0.095,-0.312,10.146,0
965,35.504,-97.514,358,28,3,335,0.038,-0.324,9.61,0
966,35.505,-97.514,357.7,27.62,3,335,-0.255,0.09,9.779,0
967,35.505,-97.514,357.5,27.32,3,335,-0.077,-0.124,9.863,0
968,35.505,-97.514,357.2,27.02,3,335,-0.136,0.137,9.779,0
969,35.505,-97.514,356.6,26.75,3,335,-0.126,-0.089,9.691,0
970,35.505,-97.514,356,26.51,3,336,-0.09,-0.296,9.734,0
971,35.506,-97.514,354.9,26.24,3,335,-0.155,-0.266,9.739,0
972,35.506,-97.514,353.3,26.09,3,335,-0.254,-0.056,9.83,1
973,35.506,-97.514,352.3,25.9,3,335,-0.111,0.001,9.608,1
974,35.506,-97.514,352,25.74,3,334,-0.149,-0.182,9.734,1
975,35.507,-97.514,352.1,25.56,3,334,-0.139,-0.272,10.075,0
976,35.507,-97.514,352,25.16,3,334,-0.223,-0.122,9.811,0
977,35.507,-97.514,352.1,24.86,3,333,-0.071,-0.162,9.803,0
978,35.508,-97.514,352.1,24.58,3,334,-0.086,-0.179,9.535,0
979,35.508,-97.514,352.1,24.3,3,335,-0.095,0.007,9.833,0
980,35.508,-97.514,352.3,24.09,3,334,-0.119,-0.402,9.605,0
981,35.508,-97.514,352.3,23.88,3,334,-0.177,-0.164,9.665,0
982,35.508,-97.514,352.3,23.66,3,333,-0.055,-0.407,9.707,0
983,35.509,-97.515,352.3,23.51,3,333,-0.136,-0.168,9.752,0
984,35.509,-97.515,352,23.42,3,333,-0.123,-0.412,9.813,0
985,35.509,-97.515,351.7,23.261,3,332,-0.096,-0.452,9.729,0
986,35.509,-97.515,351.6,23.161,3,332,-0.107,-0.359,9.577,0
987,35.509,-97.515,351.7,23.063,3,331,-0.16,-0.247,9.708,0
988,35.51,-97.515,351.9,23.042,3,331,-0.074,-0.102,9.54,1
989,35.51,-97.515,352.1,23.032,3,330,-0.184,-0.188,9.651,1
990,35.51,-97.515,352.4,23.172,3,329,-0.384,-0.175,9.775,1
991,35.51,-97.515,352.7,23.392,3,329,-0.107,-0.323,9.791,1
992,35.51,-97.515,352.5,23.491,3,328,-0.024,-0.368,9.763,0
993,35.511,-97.515,351.9,23.462,3,328,-0.158,0.036,9.699,0
994,35.511,-97.515,351.8,23.322,3,327,-0.125,0.068,9.77,0
995,35.511,-97.515,351.4,23.173,3,327,-0.33,0.213,9.999,0
996,35.511,-97.515,351.3,22.994,3,326,-0.161,0.038,9.751,0
997,35.511,-97.515,350.4,22.903,3,326,-0.12,-0.057,9.979,0
998,35.512,-97.515,349.1,22.832,3,325,-0.173,-0.245,9.805,0
999,35.512,-97.515,347.5,22.902,3,325,-0.228,-0.201,9.822,0
1000,35.512,-97.515,346,22.961,3,325,-0.372,-0.224,9.806,0
1001,35.512,-97.515,345.3,23.11,3,325,-0.613,-0.093,9.747,0
1002,35.512,-97.515,344.9,23.421,3,324,-0.568,-0.074,9.857,0
1003,35.513,-97.515,344.3,24.401,3,324,-0.481,0.034,9.773,1
1005,35.513,-97.515,344.7,23.661,3,324,-0.536,-0.188,9.614,1
1005,35.513,-97.515,344.7,23.661,3,324,-0.536,-0.188,9.614,1
1006,35.513,-97.516,344.9,23.791,3,324,-0.391,-0.282,9.66,1
1007,35.513,-97.516,345,23.95,3,323,-0.4,-0.432,9.767,1
1008,35.514,-97.516,345.2,24.1,3,323,-0.402,-0.518,9.811,1
1009,35.514,-97.516,345.2,24.26,3,323,-0.441,-0.454,9.89,1
1010,35.514,-97.516,345.2,24.42,3,323,-0.358,-0.546,9.809,1
1011,35.514,-97.516,345,24.55,3,323,-0.35,-0.552,9.742,1
1012,35.514,-97.516,344.9,24.65,3,324,-0.331,-0.422,9.591,1
1013,35.515,-97.516,345,24.7,3,324,-0.198,-0.741,9.613,1
1014,35.515,-97.516,345.1,24.701,3,324,0.016,-0.639,9.474,1
1015,35.515,-97.516,344.9,24.69,3,324,-0.173,-0.048,9.793,1
1016,35.515,-97.516,345.2,24.43,3,327,-0.341,-0.274,9.69,1
1017,35.515,-97.516,345.3,24.37,3,326,-0.325,-0.36,9.702,1
1018,35.516,-97.516,345.3,24.46,3,325,-0.503,-0.361,9.684,1
1019,35.516,-97.516,345.3,24.64,3,324,-0.307,-0.672,9.813,1
1020,35.516,-97.517,345.2,24.74,3,324,-0.605,-0.613,9.691,1
1021,35.516,-97.517,345,25.05,3,323,-0.137,-0.545,9.593,1
1022,35.517,-97.517,345.1,25.23,3,323,-0.224,-0.478,9.496,1
1023,35.517,-97.517,344.8,25.111,3,322,-0.533,-0.358,9.593,1
1024,35.517,-97.517,345.3,25.32,3,322,-0.34,-0.33,9.645,1
1025,35.517,-97.517,345.5,25.601,3,322,-0.191,-0.391,10.033,0
1026,35.517,-97.517,345.5,25.531,3,321,-0.204,-0.228,9.89,0
1027,35.518,-97.517,345.7,25.551,3,320,0.21,-0.429,9.556,0
1028,35.518,-97.517,346.1,25.431,3,320,-0.01,-0.31,9.927,0
1029,35.518,-97.517,346.8,25.231,3,319,-0.367,0.079,10.107,0
1030,35.518,-97.517,348.2,24.98,3,319,-0.704,0.446,10.047,0
1031,35.519,-97.517,351.2,24.79,3,318,-0.245,-0.007,9.758,0
1032,35.519,-97.517,353.3,24.96,3,324,-0.288,0.135,9.732,0
1033,35.519,-97.517,355.1,25.011,3,321,-0.152,0.008,9.474,0
1034,35.519,-97.517,357,25.001,3,319,-0.07,0.348,9.637,0
1035,35.519,-97.517,358.6,24.91,3,318,-0.183,0.26,9.617,0
1036,35.52,-97.517,0.3,24.71,3,317,-0.354,0.063,9.401,0
1037,35.52,-97.517,2,24.601,3,316,-0.532,0.174,9.82,0
1038,35.52,-97.517,4,24.571,3,316,-0.526,-0.109,9.739,1
1039,35.52,-97.517,5.9,24.682,3,315,-0.736,0.123,9.473,1
1040,35.521,-97.517,7.7,24.891,3,314,-0.724,-0.123,9.568,1
1041,35.521,-97.517,9.5,25.362,3,313,-0.71,-0.093,9.7,1
1042,35.521,-97.517,11,25.63,3,313,-0.523,-0.174,9.739,1
1043,35.521,-97.517,12.1,25.92,3,312,-0.517,-0.248,9.73,0
1044,35.521,-97.517,12.9,26.361,3,313,-0.464,-0.307,9.758,0
1045,35.522,-97.517,14.4,26.22,3,313,-0.431,-0.211,9.834,0
1046,35.522,-97.517,15.1,26.261,3,313,-0.518,-0.094,9.936,0
1047,35.522,-97.517,15.9,26.34,3,313,-0.626,0.046,9.828,0
1048,35.522,-97.517,16.9,26.31,3,313,-0.494,0.048,9.814,0
1049,35.523,-97.517,17.9,25.95,3,313,-0.024,-0.201,9.554,0
