time,lat,lng,bearing,spd,acc,alt,accx,accy,accz,stable,
0,35.488,-97.511,180.9,32.7,16.687,326,-2.875,2.031,8.55,0
1,35.488,-97.511,180.4,33,18.204,326,-2.803,2.02,8.423,1
2,35.488,-97.511,178.1,33.81,19.721,326,-2.798,2.052,8.772,0
3,35.487,-97.511,179.4,34.52,19.721,325,-2.695,1.828,8.46,1
4,35.487,-97.511,178.3,33.78,18.204,325,-2.986,1.699,8.994,0
5,35.487,-97.511,177.4,33.4,18.204,325,-2.912,1.559,8.915,0
6,35.486,-97.511,176.7,33.56,16.687,327,-2.583,1.912,9.014,0
7,35.486,-97.511,175.9,33.43,16.687,327,-3.22,1.869,9.76,0
8,35.486,-97.511,174.5,33.13,16.687,328,-2.961,1.888,9.278,0
9,35.486,-97.511,175,33.25,16.687,329,-3.321,1.703,9.345,0
11,35.485,-97.511,176.8,33.21,18.204,330,-2.951,1.619,8.806,0
11,35.485,-97.511,176.8,33.21,18.204,330,-2.951,1.619,8.806,0
12,35.485,-97.511,179,33.69,19.721,327,-3.462,1.89,9.732,0
13,35.484,-97.511,177.5,32.64,19.721,326,-2.551,1.431,8.44,0
14,35.484,-97.511,176.3,31.45,21.238,328,-3.288,1.904,9.501,0
15,35.484,-97.511,174.1,29.51,22.755,329,-2.637,1.644,9.137,0
16,35.484,-97.511,172.3,30.68,24.272,330,-2.707,1.719,9.335,0
17,35.483,-97.511,168.3,30.27,22.755,330,-2.617,1.674,9.045,0
18,35.483,-97.51,165.9,31.43,21.238,331,-2.743,1.697,9.364,0
19,35.483,-97.51,164.4,31.35,22.755,332,-1.858,1.58,9.055,0
20,35.482,-97.51,162.4,32.18,22.755,331,-2.555,1.775,9.473,0
21,35.482,-97.51,167.6,30.99,21.238,331,-2.547,1.838,9.455,0
22,35.482,-97.51,166.7,31.11,19.721,330,-2.458,2.204,9.458,0
23,35.482,-97.51,164.6,30.36,19.721,329,-2.484,2.21,9.167,0
24,35.481,-97.51,170.5,30.72,18.204,330,-2.479,2.206,9.44,0
25,35.481,-97.51,171.9,30.73,16.687,331,-2.339,2.158,9.185,0
26,35.481,-97.51,172.7,30.76,16.687,328,-2.324,2.163,9.207,1
27,35.481,-97.51,173.9,30.87,15.17,327,-2.355,2.248,9.426,1
28,35.48,-97.51,174.7,30.97,15.17,327,-2.268,2.149,9.364,1
29,35.48,-97.51,175.5,30.76,15.17,327,-2.324,1.997,8.741,1
30,35.48,-97.51,176.4,30.59,15.17,327,-2.565,2.06,9.076,1
31,35.479,-97.51,176.7,30.75,16.687,327,-3.029,2.21,9.034,0
32,35.479,-97.51,177.2,31.14,15.17,325,-2.904,2.239,9.176,1
33,35.479,-97.51,176.5,31.26,15.17,326,-2.548,2.069,9.209,1
34,35.479,-97.51,176.9,31.48,15.17,325,-2.41,2.134,9.135,1
35,35.478,-97.51,178.1,31.38,16.687,324,-3.601,2.2,9.133,0
36,35.478,-97.51,175.1,30.73,16.687,323,-3.919,1.998,8.981,0
37,35.478,-97.51,174.6,30.7,18.204,324,-3.679,2.044,9.064,0
38,35.477,-97.51,175,30.8,18.204,325,-3.141,2.081,9.16,0
39,35.477,-97.51,175.5,31.87,18.204,327,-3.572,2.076,9.07,0
40,35.477,-97.509,175.2,31.68,18.204,327,-3.515,2.168,9.076,0
41,35.477,-97.509,171.8,32.05,19.721,327,-3.552,2.17,9.209,0
42,35.476,-97.509,167.5,31.59,19.721,328,-3.421,2.233,9.018,0
43,35.476,-97.509,162.8,30.98,18.204,325,-3.366,2.336,8.781,0
44,35.476,-97.509,158.9,30.67,16.687,325,-3.239,2.291,9.106,0
45,35.476,-97.509,156.9,30.19,16.687,325,-3.443,2.3,8.655,1
46,35.475,-97.509,156.4,30.27,16.687,324,-3.522,2.288,8.694,1
47,35.475,-97.509,154.7,30.21,16.687,324,-3.139,2.171,8.578,1
48,35.475,-97.508,150.6,30.95,15.17,324,-2.843,2.278,8.989,1
49,35.475,-97.508,149.4,31.1,15.17,324,-3.316,2.248,9.24,0
50,35.474,-97.508,148.8,31.04,15.17,324,-3.406,2.281,9.35,0
51,35.474,-97.508,147.8,31.35,15.17,323,-3.225,2.187,9.17,0
52,35.474,-97.508,146.1,31.37,15.17,324,-3.253,2.098,8.774,0
53,35.474,-97.507,143.3,30.9,15.17,321,-3.62,1.993,8.995,0
54,35.473,-97.507,142,30.98,15.17,322,-3.274,2.084,9.159,0
55,35.473,-97.507,140.8,30.27,15.17,324,-2.869,1.9,8.981,0
56,35.473,-97.507,140.1,29.84,15.17,323,-2.707,1.841,9.159,0
57,35.473,-97.507,139.7,29.24,15.17,322,-2.696,1.723,9.343,0
58,35.473,-97.506,140.2,28.93,15.17,322,-2.589,1.568,8.549,0
59,35.472,-97.506,140.5,28.21,15.17,321,-2.852,2.36,9.383,0
60,35.472,-97.506,140.7,27.67,15.17,322,-2.862,2.08,8.605,0
61,35.472,-97.506,140.8,27.78,15.17,322,-3.138,2.391,9.283,0
62,35.472,-97.506,140.2,27.72,15.17,321,-2.825,2.552,9.385,0
63,35.472,-97.505,140.7,28.04,15.17,320,-2.747,2.286,8.499,0
64,35.471,-97.505,141,28.16,15.17,321,-2.49,2.081,8.241,0
65,35.471,-97.505,140.5,28.6,15.17,318,-2.87,2.564,9.48,0
66,35.471,-97.505,140.8,29.28,15.17,316,-2.682,2.241,8.549,0
67,35.471,-97.505,141.2,29.16,15.17,317,-2.574,2.311,8.62,0
68,35.471,-97.504,141.3,29.33,15.17,317,-2.663,2.026,8.606,0
69,35.47,-97.504,141,29.64,15.17,317,-2.675,1.781,8.912,0
70,35.47,-97.504,141.5,29.68,15.17,316,-2.6,1.61,8.545,0
71,35.47,-97.504,142.8,29.66,15.17,316,-2.616,1.745,8.937,0
72,35.47,-97.504,143,29.25,15.17,316,-2.784,1.87,9.292,0
73,35.47,-97.503,142.1,28.6,15.17,318,-2.685,1.642,8.751,0
74,35.469,-97.503,141.7,28.67,15.17,319,-2.343,1.748,9.029,0
75,35.469,-97.503,142,28.98,15.17,319,-2.934,1.731,9.371,0
76,35.469,-97.503,143,28.49,15.17,319,-2.622,1.852,8.97,0
77,35.469,-97.503,143.7,28,15.17,319,-2.803,1.899,8.73,1
78,35.469,-97.502,143.6,28.29,15.17,319,-3.023,2.005,9.058,0
79,35.468,-97.502,143.7,28.39,15.17,319,-2.745,2.082,8.85,0
80,35.468,-97.502,143.5,28.98,15.17,317,-3.002,2.204,9.031,0
81,35.468,-97.502,144.6,28.87,15.17,317,-2.71,2.124,8.663,0
82,35.468,-97.502,144.6,29.36,15.17,318,-3.149,2.364,10.635,0
83,35.468,-97.501,144.5,30.3,15.17,318,-2.692,2.045,9.18,0
84,35.467,-97.501,144.8,30.02,15.17,318,-2.38,2.493,9.666,0
85,35.467,-97.501,145,30.57,15.17,318,-2.753,2.448,8.9,0
86,35.467,-97.501,145.2,30.58,15.17,320,-3.537,2.246,8.159,0
87,35.467,-97.501,146.4,31.41,15.17,319,-3.165,2.4,9.131,0
89,35.466,-97.5,146,31.67,15.17,317,-3.207,2.28,9.746,0
89,35.466,-97.5,146,31.67,15.17,317,-3.207,2.28,9.746,0
90,35.466,-97.5,145.8,32,16.687,316,-2.594,1.984,9.115,0
91,35.466,-97.5,145.5,32.13,18.204,317,-3.218,1.908,9.174,0
92,35.465,-97.5,145,31.22,16.687,318,-2.736,2.24,9.262,0
93,35.465,-97.499,144.5,31.32,16.687,321,-2.873,2.056,8.861,0
94,35.465,-97.499,144.5,31.27,16.687,320,-2.899,1.988,8.852,0
95,35.465,-97.499,144.4,31.2,15.17,320,-2.841,2.052,9.569,0
96,35.465,-97.499,143.8,30.95,15.17,322,-2.479,1.937,9.118,0
97,35.464,-97.499,144.1,30.78,15.17,320,-2.243,1.633,7.393,0
98,35.464,-97.498,143.6,30.8,15.17,320,-3.229,2.174,9.104,0
99,35.464,-97.498,142.3,30.66,15.17,320,-3.658,2.124,8.901,0
100,35.464,-97.498,140.4,30.92,15.17,321,-3.471,2.406,9.076,0
101,35.463,-97.498,139.5,30.95,15.17,320,-2.986,2.238,8.954,0
102,35.463,-97.498,136.7,31.21,15.17,324,-3.087,2.367,8.821,0
103,35.463,-97.497,135.5,31.48,15.17,325,-3.734,2.293,9.134,0
104,35.463,-97.497,133.5,31.37,15.17,326,-3.674,2.276,8.629,0
105,35.463,-97.497,131.7,31.35,15.17,326,-3.165,2.259,8.587,0
106,35.462,-97.497,132.6,31.19,16.687,326,-3.173,2.108,8.435,0
107,35.462,-97.496,133.3,30.93,18.204,324,-3.28,2.347,8.961,0
108,35.462,-97.496,127.4,31.71,18.204,324,-2.893,1.449,8.306,0
109,35.462,-97.496,126.3,31.98,19.721,323,-3.927,1.718,8.788,0
110,35.462,-97.495,122.6,31.93,21.238,324,-2.793,1.812,9.05,0
111,35.462,-97.495,123.4,31.06,25.789,324,-1.033,1.639,9.623,0
112,35.461,-97.495,125,31.42,27.306,324,-0.005,1.866,9.269,0
113,35.461,-97.495,127.1,31.21,27.306,323,-0.945,1.883,9.462,0
114,35.461,-97.494,129.9,31.16,19.721,324,-0.901,2.17,10.006,0
115,35.461,-97.494,131.9,30.5,18.204,326,-0.913,2.1,9.625,0
116,35.461,-97.494,134.4,30.4,18.204,326,-0.88,1.721,9.852,0
117,35.46,-97.494,141.9,31.91,16.687,325,-1.726,1.951,9.971,0
118,35.46,-97.493,145.2,31.84,16.687,327,-1.596,2.188,10.238,0
119,35.46,-97.493,146.5,31.69,16.687,326,-2.71,1.478,8.458,0
120,35.46,-97.493,150.8,31.78,16.687,325,-1.678,0.899,7.084,0
121,35.46,-97.493,152.1,31.39,15.17,324,-3.217,1.647,10.613,0
122,35.459,-97.493,152.7,31.24,15.17,323,-2.656,1.62,7.491,0
123,35.459,-97.493,152.7,30.87,15.17,320,-3.102,2.048,8.841,0
124,35.459,-97.492,152.3,30.96,15.17,321,-2.852,1.993,8.592,0
125,35.459,-97.492,152.1,30.77,15.17,321,-2.806,1.952,8.592,0
126,35.458,-97.492,151.6,31.17,15.17,321,-2.476,1.53,7.857,0
127,35.458,-97.492,151.4,31.08,15.17,322,-2.924,1.657,9.002,0
128,35.458,-97.492,151.3,31.31,15.17,322,-3.369,1.961,9.446,0
129,35.458,-97.492,151.4,30.95,15.17,323,-3.633,1.76,9.022,0
130,35.457,-97.491,149.8,30.06,13.653,324,-2.93,2.061,9.046,0
131,35.457,-97.491,149.4,30.23,13.653,325,-2.662,2.347,9.552,0
132,35.457,-97.491,150.5,29.98,13.653,325,-2.182,2.474,8.594,0
133,35.457,-97.491,150.8,29.95,13.653,324,-2.224,2.494,8.965,0
134,35.456,-97.491,151.2,30.47,15.17,323,-1.879,2.298,8.405,0
135,35.456,-97.491,151.8,30.73,15.17,324,-1.934,2.353,8.868,0
136,35.456,-97.49,152.6,30.95,15.17,325,-1.756,2.213,9.143,0
137,35.456,-97.49,154.6,30.94,16.687,326,-2.406,2.222,8.922,1
138,35.455,-97.49,157.2,30.88,15.17,327,-2.065,2.151,8.688,0
139,35.455,-97.49,158.6,30.92,15.17,328,-2.458,2.441,9.188,0
140,35.455,-97.49,158.7,30.86,15.17,326,-3.033,2.058,9.454,0
141,35.455,-97.49,159.3,31.03,16.687,328,-2.532,1.735,8.65,0
142,35.454,-97.49,160.9,31.1,16.687,327,-2.29,1.811,8.866,0
143,35.454,-97.49,159.9,31.12,18.204,327,-2.212,2.281,9.079,0
144,35.454,-97.489,159.5,30.59,16.687,327,-2.429,2.411,9.367,0
145,35.454,-97.489,159.1,30.7,16.687,328,-2.55,2.542,9.795,0
146,35.453,-97.489,159,31.03,15.17,327,-2.314,2.334,9.436,0
147,35.453,-97.489,159,30.9,15.17,327,-2.528,2.323,9.306,0
148,35.453,-97.489,159.4,31.57,15.17,329,-2.479,2.266,9.111,0
149,35.452,-97.489,159.6,31.97,15.17,329,-2.599,2.06,9.032,0
150,35.452,-97.489,159.4,31.95,15.17,326,-2.541,1.755,8.485,0
151,35.452,-97.489,159,32.52,15.17,327,-2.545,1.856,9.309,0
152,35.452,-97.488,158.9,32.31,16.687,326,-2.725,1.637,9.22,0
153,35.451,-97.488,158.7,32.18,16.687,327,-2.748,1.651,9.084,0
154,35.451,-97.488,159.1,32.04,15.17,327,-2.52,1.557,9.228,0
155,35.451,-97.488,158,31.57,15.17,325,-2.617,1.758,9.177,0
156,35.451,-97.488,158.5,31.25,15.17,326,-2.742,1.583,9.1,0
157,35.45,-97.488,159.6,31.42,15.17,325,-3.187,1.83,9.04,0
158,35.45,-97.488,158.7,31.09,16.687,325,-2.974,1.976,9.187,0
159,35.45,-97.488,158.4,30.65,18.204,326,-2.842,2.246,9.3,0
160,35.45,-97.487,159,30.43,16.687,326,-2.662,2.275,9.299,0
161,35.449,-97.487,158.3,30.08,18.204,327,-1.905,2.187,9.411,0
162,35.449,-97.487,159.8,30.36,18.204,326,-1.891,2.374,8.713,0
163,35.449,-97.487,161.5,30.66,16.687,326,-2.342,2.311,9.032,0
165,35.449,-97.487,160.9,30.78,18.204,326,-2.292,2.229,8.749,0
165,35.449,-97.487,160.9,30.78,18.204,326,-2.292,2.229,8.749,0
166,35.448,-97.487,160.7,30.17,19.721,324,-2.155,2.537,9.224,0
167,35.448,-97.487,163.1,31.56,19.721,325,-2.347,2.415,9.161,1
168,35.447,-97.487,164.7,32.66,19.721,326,-2.435,2.176,9.295,0
169,35.447,-97.487,166.3,32.54,18.204,326,-2.301,2.045,9.085,0
170,35.447,-97.487,167.7,31.29,18.204,327,-2.214,2.234,9.306,1
171,35.447,-97.486,166.2,31.19,18.204,324,-2.084,2.182,9.193,0
172,35.446,-97.486,169.4,30.17,18.204,324,-2.268,2.177,9.253,1
173,35.446,-97.486,171.2,30.79,18.204,327,-2.417,2.256,9.454,0
174,35.446,-97.486,172.5,30.82,18.204,328,-2.399,2.149,9.351,0
175,35.445,-97.486,172.8,31.26,18.204,329,-2.326,2.1,9.282,0
176,35.445,-97.486,170.9,31.46,18.204,330,-2.166,2.133,9.133,0
177,35.445,-97.486,172.1,30.82,18.204,331,-1.877,2.174,9.258,0
178,35.445,-97.486,176.5,31.22,16.687,331,-2.355,2.271,9.334,0
179,35.444,-97.486,177.1,30.54,16.687,330,-2.432,2.087,9.168,0
180,35.444,-97.486,179.4,31.05,16.687,330,-2.481,2.183,8.902,0
181,35.444,-97.486,179.8,30.84,16.687,330,-3.018,2.251,8.987,0
182,35.444,-97.486,180,30.74,15.17,328,-2.457,2.161,8.684,0
183,35.443,-97.486,180,30.64,15.17,327,-2.918,2.17,8.583,1
184,35.443,-97.486,179.7,30.64,15.17,328,-2.853,2.566,9.411,0
185,35.443,-97.486,179.9,30.73,15.17,329,-2.827,2.447,9.184,1
186,35.442,-97.486,179.7,31.12,15.17,327,-2.815,2.456,8.992,0
187,35.442,-97.486,180.4,31.09,15.17,328,-3.001,2.36,8.758,1
188,35.442,-97.486,179.8,31.22,13.653,329,-2.798,2.267,9.075,0
189,35.442,-97.486,179.6,31.38,15.17,329,-2.76,2.153,9.262,0
190,35.441,-97.486,179.9,31.53,15.17,329,-2.749,2.138,8.932,1
191,35.441,-97.486,180,31.67,13.653,328,-2.623,2.061,8.82,0
192,35.441,-97.486,180,31.62,15.17,327,-2.786,2.091,8.966,0
193,35.44,-97.486,180.2,31.76,15.17,326,-2.861,2.071,8.928,0
194,35.44,-97.486,180.1,31.58,15.17,326,-2.68,2.052,8.862,0
195,35.44,-97.486,179.7,31.69,15.17,326,-2.625,2.039,9.068,0
196,35.44,-97.486,179.6,31.52,15.17,327,-3.109,2.172,9.175,1
197,35.439,-97.486,179.9,31.45,15.17,326,-2.446,1.918,9.096,0
198,35.439,-97.486,180.9,31.25,15.17,326,-2.921,2.027,8.922,0
199,35.439,-97.486,180.9,31.41,16.687,339,-2.884,2.017,9.063,0
200,35.438,-97.486,181.5,31.31,16.687,337,-2.817,2.029,9.308,0
201,35.438,-97.486,179.4,30.62,15.17,334,-2.685,2.041,9.09,0
202,35.438,-97.486,180,31.18,16.687,334,-2.782,2.116,8.981,0
203,35.438,-97.486,180.1,31.5,15.17,333,-2.834,1.954,8.951,0
204,35.437,-97.486,180.2,31.61,15.17,332,-2.746,2.114,9.026,0
205,35.437,-97.486,180,31.6,15.17,332,-2.595,2.052,8.885,0
206,35.437,-97.486,180.3,31.7,15.17,331,-3.05,2.346,9.152,0
207,35.436,-97.486,180.2,31.87,13.653,330,-2.838,2.378,8.66,0
208,35.436,-97.486,180,31.89,15.17,330,-2.732,2.391,8.944,0
209,35.436,-97.486,179.9,32.41,15.17,329,-2.546,2.292,8.889,0
210,35.436,-97.486,180.2,32.59,13.653,328,-3.074,2.272,9.448,0
211,35.435,-97.486,180,33.02,15.17,328,-2.893,2.317,9.837,0
212,35.435,-97.486,180,32.63,15.17,328,-2.74,2.162,9.348,0
213,35.435,-97.486,179.8,32.92,15.17,328,-2.575,2.331,9.153,0
214,35.434,-97.486,180,32.84,15.17,329,-2.616,2.188,9.072,0
215,35.434,-97.486,180.1,32.57,13.653,331,-2.93,2.11,8.898,0
216,35.434,-97.486,180.5,32.77,13.653,333,-2.775,2.335,8.861,1
217,35.434,-97.486,179.8,32.54,13.653,330,-2.89,2.318,9.023,0
218,35.433,-97.486,179.7,32.4,13.653,330,-2.938,2.461,9.2,0
219,35.433,-97.486,179.7,32.4,13.653,329,-2.308,2.149,8.682,0
220,35.433,-97.486,179.6,32.72,13.653,331,-2.655,2.161,9.039,1
221,35.432,-97.486,180.3,32.82,13.653,330,-2.783,2.162,8.969,0
222,35.432,-97.486,180.2,32.86,13.653,331,-3.056,2.172,9.239,0
223,35.432,-97.486,180,33.05,15.17,330,-2.999,2.095,9.022,0
224,35.431,-97.486,179.7,32.99,13.653,329,-2.497,2.084,8.992,1
225,35.431,-97.486,179.6,33.11,13.653,330,-2.668,2.217,9.443,0
226,35.431,-97.486,179.8,33.12,13.653,328,-2.664,1.997,9.014,0
227,35.431,-97.486,180,33.27,15.17,326,-2.78,2.106,9.373,0
228,35.43,-97.486,180.2,33.18,15.17,323,-2.854,2.052,9.33,0
229,35.43,-97.486,179.8,33.5,15.17,324,-2.797,1.94,9.203,0
230,35.43,-97.486,179.7,33.39,15.17,323,-2.88,1.877,9.127,0
231,35.429,-97.486,180,33.17,15.17,326,-2.73,1.898,9.067,0
232,35.429,-97.486,180,32.95,15.17,324,-2.98,1.987,9.18,0
233,35.429,-97.486,180,32.64,15.17,326,-2.631,1.981,8.557,0
234,35.428,-97.486,179.9,32.64,13.653,327,-2.741,2.223,9.174,0
235,35.428,-97.486,180,32.32,15.17,327,-2.785,2.139,8.764,0
236,35.428,-97.486,181.2,31.93,15.17,329,-3.015,2.196,8.839,0
237,35.428,-97.486,180.1,32.62,15.17,328,-2.851,2.321,9.363,0
238,35.427,-97.486,179.6,32.71,15.17,328,-2.348,2.242,9.403,0
240,35.427,-97.486,179.7,32.78,13.653,330,-1.504,2.308,9.524,0
240,35.427,-97.486,179.7,32.78,13.653,330,-1.504,2.308,9.524,0
241,35.426,-97.486,183.1,32.72,13.653,329,-2.262,2.441,9.312,1
242,35.426,-97.486,184.3,32.47,15.17,329,-2.388,2.365,9.296,0
243,35.426,-97.486,184.6,32.87,15.17,330,-2.064,2.392,9.035,0
244,35.425,-97.486,185.1,33.19,16.687,330,-1.599,2.163,8.947,0
245,35.425,-97.486,185.9,33.76,19.721,330,-1.998,2.512,9.595,0
246,35.425,-97.486,187.5,33.22,19.721,330,-2.048,2.161,9.004,0
247,35.425,-97.487,192.8,32.79,16.687,331,-2.029,2.375,8.974,0
248,35.424,-97.487,193,33.56,15.17,332,-1.983,2.158,9.228,0
249,35.424,-97.487,195.6,32.64,15.17,332,-2.191,2.391,9.445,0
250,35.424,-97.487,197.4,32.82,15.17,335,-1.897,2.334,9.21,0
251,35.423,-97.487,199.2,32.88,15.17,336,-2.186,2.259,8.992,0
252,35.423,-97.487,200.6,32.98,13.653,338,-2.116,2.263,9.065,0
253,35.423,-97.487,201.8,32.93,15.17,340,-2.746,2.178,9.176,0
254,35.423,-97.487,202.3,32.8,13.653,340,-2.894,2.161,8.868,0
255,35.422,-97.488,202.5,32.69,13.653,340,-2.926,2.31,8.959,1
256,35.422,-97.488,202.2,32.64,13.653,340,-2.927,2.289,9.131,1
257,35.422,-97.488,202.1,32.61,13.653,340,-2.869,2.314,9.104,0
258,35.422,-97.488,201.9,32.71,13.653,341,-2.609,2.116,8.256,0
259,35.421,-97.488,202.2,32.7,13.653,342,-2.782,2.437,9.141,0
260,35.421,-97.488,202.4,32.91,13.653,342,-2.385,2.103,8.294,0
261,35.421,-97.488,202.2,33.2,13.653,343,-2.682,2.142,9.025,0
262,35.42,-97.489,202.2,33.25,13.653,344,-2.247,1.603,7.362,0
263,35.42,-97.489,201.7,33.57,13.653,344,-3.169,1.976,8.951,0
264,35.42,-97.489,201.7,33.49,15.17,345,-3.626,2.266,9.044,0
265,35.42,-97.489,199.9,33.91,13.653,345,-2.71,2.042,8.829,0
266,35.419,-97.489,198.7,34.03,13.653,345,-2.621,1.917,8.842,0
267,35.419,-97.489,198.6,34.14,13.653,344,-3.147,2.067,9.639,0
268,35.419,-97.489,197.8,34.16,13.653,344,-2.709,1.905,9.104,0
269,35.418,-97.489,197.5,34.12,13.653,346,-2.591,1.868,9.252,0
270,35.418,-97.49,197.5,34.04,13.653,346,-2.863,2.057,9.319,0
271,35.418,-97.49,197.6,33.78,13.653,347,-3.108,1.98,9.459,0
272,35.418,-97.49,197.6,33.53,13.653,349,-2.912,2.051,8.917,1
273,35.417,-97.49,197.8,33.31,13.653,349,-2.672,1.844,8.642,1
274,35.417,-97.49,197.7,33.15,13.653,349,-2.881,2.062,8.834,0
275,35.417,-97.49,197.5,33.11,13.653,350,-2.782,2.174,9.207,0
276,35.416,-97.49,197.6,33.15,13.653,351,-2.88,2.036,9.091,1
277,35.416,-97.49,197.9,33.18,13.653,351,-2.775,2.045,8.929,0
278,35.416,-97.49,197.6,33.13,13.653,351,-2.88,2.051,9.144,0
279,35.416,-97.49,197.4,33.14,13.653,350,-2.749,1.924,8.942,1
280,35.415,-97.491,196.8,33.22,13.653,349,-2.608,1.931,8.763,0
281,35.415,-97.491,197,33.36,13.653,348,-3.021,2.078,9.39,0
282,35.415,-97.491,197.4,33.62,13.653,346,-2.894,2.032,9.207,0
283,35.414,-97.491,197.7,33.73,13.653,345,-2.987,1.919,8.988,0
284,35.414,-97.491,197.7,33.64,15.17,346,-2.466,1.825,9.025,0
285,35.414,-97.491,197.3,33.59,15.17,346,-3.003,2.051,9.553,0
286,35.414,-97.491,198,33.42,15.17,347,-3.028,2.068,9.195,0
287,35.413,-97.491,198,33.1,13.653,346,-2.809,2.14,9.207,0
288,35.413,-97.491,197.6,32.91,13.653,347,-2.788,1.978,8.837,0
289,35.413,-97.492,197.5,32.76,13.653,349,-2.866,2.096,9.093,1
290,35.412,-97.492,197.6,32.49,13.653,349,-2.848,2.216,8.861,0
291,35.412,-97.492,197.7,32.46,15.17,349,-2.838,2.305,8.858,0
292,35.412,-97.492,198.2,32.39,15.17,349,-2.919,2.456,9.247,0
293,35.412,-97.492,199,32.32,15.17,349,-2.852,2.378,9.019,0
294,35.411,-97.492,198.4,32.42,15.17,349,-2.965,2.376,8.973,0
295,35.411,-97.492,198.3,32.43,15.17,350,-2.937,2.524,9.027,0
296,35.411,-97.492,197.8,32.42,15.17,351,-2.726,2.177,8.396,0
297,35.41,-97.492,198,32.47,15.17,350,-2.367,2.105,8.161,0
298,35.41,-97.493,196.5,32.4,15.17,350,-2.663,2.261,9.027,0
299,35.41,-97.493,196.8,32.41,15.17,352,-2.828,2.263,8.688,0
300,35.41,-97.493,196.2,32.9,16.687,352,-3.204,1.794,8.288,0
301,35.409,-97.493,197.1,33.09,16.687,351,-2.925,2.266,8.892,0
302,35.409,-97.493,197.5,33.32,16.687,351,-3.455,2.385,10.068,0
303,35.409,-97.493,197.4,33.27,15.17,351,-2.925,2.244,9.341,0
304,35.408,-97.493,197.4,33.48,15.17,352,-2.862,2.141,8.721,0
305,35.408,-97.493,197.4,33.5,15.17,352,-3.149,2.244,9.124,0
306,35.408,-97.493,197.7,33.77,15.17,353,-2.819,2.01,9.005,0
307,35.408,-97.494,197.4,33.9,15.17,354,-2.874,2.144,9.179,0
308,35.407,-97.494,197.6,33.91,15.17,353,-3.071,2.062,9.214,0
309,35.407,-97.494,197.4,33.67,13.653,353,-2.53,1.866,8.751,0
310,35.407,-97.494,197.6,33.79,13.653,354,-2.641,1.944,9.052,0
311,35.406,-97.494,197.7,33.71,15.17,354,-2.62,1.965,8.938,0
312,35.406,-97.494,197.2,33.69,15.17,355,-2.647,2.056,9.596,0
313,35.406,-97.494,197.3,33.71,13.653,355,-2.563,2.385,9.978,0
314,35.406,-97.494,197.2,33.86,13.653,356,-3.189,2.059,9.436,0
315,35.405,-97.494,196.6,33.97,13.653,356,-3.242,1.965,9.159,0
317,35.405,-97.495,196,33.96,13.653,357,-3.298,2.044,9.535,0
317,35.405,-97.495,196,33.96,13.653,357,-3.298,2.044,9.535,0
318,35.404,-97.495,193.1,33.79,13.653,357,-3.14,2.081,9.53,0
319,35.404,-97.495,192.3,33.88,13.653,357,-2.803,1.914,9.309,0
320,35.404,-97.495,191.7,33.76,15.17,358,-2.798,2.056,9.37,0
321,35.403,-97.495,192.2,34.01,16.687,356,-2.988,2.199,9.356,0
322,35.403,-97.495,193,33.96,16.687,357,-3.084,2.108,9.12,0
323,35.403,-97.495,192.6,34.6,18.204,358,-2.83,1.989,8.576,0
324,35.403,-97.495,189.1,32.54,18.204,355,-3.1,2.108,8.737,0
325,35.402,-97.495,186,32.78,16.687,355,-2.928,2.12,8.672,0
326,35.402,-97.495,184.6,32.88,15.17,355,-2.691,2.097,8.568,1
327,35.402,-97.495,184,32.94,15.17,356,-3.072,2.289,8.981,0
328,35.401,-97.495,182.6,33,15.17,356,-3.143,2.049,8.717,0
329,35.401,-97.495,182,33.23,15.17,355,-2.828,1.972,8.733,1
330,35.401,-97.495,180.7,33.27,15.17,356,-2.44,2.138,9.186,0
331,35.401,-97.495,180,33.52,15.17,356,-2.616,2,8.893,1
332,35.4,-97.495,179.8,33.57,15.17,357,-2.593,2.063,9.536,0
333,35.4,-97.495,179.8,33.76,15.17,354,-2.86,1.877,9.02,0
334,35.4,-97.495,179.7,33.96,15.17,353,-2.909,1.922,9.461,0
335,35.399,-97.495,179.7,33.78,13.653,351,-2.731,1.997,9.228,0
336,35.399,-97.495,179.9,33.57,15.17,351,-2.989,2.096,9.644,0
337,35.399,-97.495,179.9,33.41,15.17,351,-2.904,1.889,9.244,0
338,35.398,-97.495,180,33.19,13.653,352,-3.015,2.089,9.473,0
339,35.398,-97.495,180,33.17,13.653,352,-2.835,1.988,8.995,0
340,35.398,-97.495,180.3,32.87,13.653,352,-2.955,2.197,9.249,0
341,35.398,-97.495,179.7,32.34,13.653,353,-2.942,2.071,8.731,0
342,35.397,-97.495,180.3,32.39,13.653,353,-2.921,2.048,8.719,0
343,35.397,-97.495,180.2,32.35,13.653,354,-2.877,2.105,8.933,0
344,35.397,-97.495,179.7,32.04,13.653,354,-2.548,1.912,8.012,0
345,35.396,-97.495,179.9,32.08,13.653,352,-2.621,2.03,8.47,0
346,35.396,-97.495,179.9,31.87,13.653,351,-2.613,2.146,8.807,0
347,35.396,-97.495,179.8,32,13.653,351,-2.687,2.056,8.894,0
348,35.396,-97.495,180,32.42,13.653,351,-2.807,2.129,8.902,0
349,35.395,-97.495,179.8,32.49,13.653,349,-2.64,2.017,8.614,0
350,35.395,-97.495,179.8,32.59,13.653,350,-2.774,2.32,9.664,0
351,35.395,-97.495,179.6,32.69,13.653,350,-2.778,2.171,9.461,0
352,35.394,-97.495,179.8,32.69,13.653,352,-2.968,2.176,9.484,0
353,35.394,-97.495,180.4,32.87,13.653,351,-2.938,2.15,9.049,0
354,35.394,-97.495,179.8,33.13,13.653,350,-2.727,2.182,9.267,0
355,35.393,-97.495,179.6,32.93,13.653,350,-2.721,1.901,8.891,0
356,35.393,-97.495,179.9,33.2,13.653,351,-2.958,1.895,9.075,0
357,35.393,-97.495,180.1,33.12,13.653,351,-2.95,1.938,9.134,0
358,35.393,-97.495,179.9,33.09,13.653,350,-2.402,1.895,9.317,0
359,35.392,-97.495,180.1,32.84,13.653,351,-3.005,2.051,9.371,0
360,35.392,-97.495,180.1,32.85,13.653,348,-2.933,1.965,9.099,0
361,35.392,-97.495,180,32.78,13.653,348,-2.925,1.874,9.041,0
362,35.391,-97.495,180.3,32.54,13.653,347,-2.355,1.855,8.738,0
363,35.391,-97.495,179.7,32.27,13.653,347,-2.957,2.105,9.272,0
364,35.391,-97.495,180,32.02,13.653,345,-2.806,2.029,9.195,0
365,35.391,-97.495,179.9,32.02,15.17,346,-2.885,1.92,9.233,0
366,35.39,-97.495,179.9,31.92,13.653,345,-2.811,2.239,9.243,0
367,35.39,-97.495,179.5,31.79,13.653,347,-2.914,2.414,9.623,0
368,35.39,-97.495,179.7,31.82,13.653,347,-2.862,2.441,9.266,0
369,35.389,-97.495,179.9,31.87,13.653,347,-2.802,2.172,8.844,0
370,35.389,-97.495,179.8,32.18,13.653,347,-2.719,2.255,9.097,0
371,35.389,-97.495,179.9,32.26,13.653,346,-2.962,2.282,8.848,0
372,35.388,-97.495,179.7,32.5,13.653,346,-2.948,2.451,9.283,0
373,35.388,-97.495,179.8,32.61,13.653,347,-2.904,2.252,9.362,0
374,35.388,-97.495,179.6,32.65,13.653,346,-2.695,2.042,9.037,0
375,35.388,-97.495,179.6,32.62,13.653,347,-2.546,2.224,8.867,0
376,35.387,-97.495,179.7,32.76,13.653,347,-2.799,2.282,9.109,1
377,35.387,-97.495,179.9,32.71,13.653,348,-2.739,1.992,8.481,0
378,35.387,-97.495,180,32.96,13.653,347,-2.796,2.071,8.729,1
379,35.386,-97.495,179.7,32.86,13.653,347,-2.738,2.304,8.9,1
380,35.386,-97.495,179.7,33.01,13.653,348,-2.939,2.094,8.882,0
381,35.386,-97.495,179.7,33.26,13.653,347,-2.929,2.212,9.516,0
382,35.386,-97.495,179.9,33.53,13.653,346,-2.674,2.115,8.993,0
383,35.385,-97.495,179.6,33.6,13.653,347,-2.986,2.139,9.272,0
384,35.385,-97.495,179.8,33.64,13.653,346,-3.087,2.163,9.053,0
385,35.385,-97.495,179.9,33.72,13.653,347,-2.661,2.093,8.99,0
386,35.384,-97.495,178.7,33.84,13.653,347,-2.713,2.063,8.899,0
387,35.384,-97.495,180,33.04,13.653,346,-3.057,2.267,9.066,0
388,35.384,-97.495,180.2,33.13,13.653,345,-2.742,2.25,9.251,0
389,35.383,-97.495,179.8,32.76,15.17,345,-2.923,2.329,9.463,0
390,35.383,-97.495,179.7,32.23,15.17,345,-2.841,2.156,8.84,0
392,35.383,-97.495,180.1,32.44,15.17,345,-2.73,2.192,9.023,0
392,35.383,-97.495,180.1,32.44,15.17,345,-2.73,2.192,9.023,0
393,35.382,-97.495,180,31.95,15.17,344,-2.855,2.204,9.01,1
394,35.382,-97.495,180,32.03,15.17,344,-2.69,2.285,8.684,1
395,35.382,-97.495,179.3,31.13,15.17,342,-2.497,2.099,8.892,1
396,35.381,-97.495,179.9,31.47,15.17,344,-2.701,2.136,8.694,0
397,35.381,-97.495,180.1,31.48,15.17,345,-2.776,2.143,8.417,0
398,35.381,-97.495,180.1,31.54,15.17,345,-3.116,2.138,9.417,0
399,35.381,-97.495,179.5,31.71,13.653,348,-2.762,1.709,8.863,0
400,35.38,-97.495,179.4,31.17,13.653,348,-2.753,1.774,9.098,0
401,35.38,-97.495,179.5,30.87,13.653,348,-2.689,1.769,9.226,0
402,35.38,-97.495,179.7,30.47,13.653,348,-3.078,1.959,9.513,0
403,35.379,-97.495,179.8,30.09,13.653,348,-2.676,1.838,9.138,0
404,35.379,-97.495,179.8,29.77,13.653,348,-2.824,2.065,9.179,0
405,35.379,-97.495,179.9,29.5,13.653,349,-2.698,1.942,8.843,0
406,35.379,-97.495,180.1,29.12,13.653,348,-2.889,1.723,9.041,1
407,35.378,-97.495,180.1,28.81,13.653,347,-2.741,2.17,8.676,0
408,35.378,-97.495,180.2,28.71,13.653,348,-3.005,2.236,8.983,0
409,35.378,-97.495,180,28.91,13.653,348,-2.71,2.06,8.477,0
410,35.378,-97.495,179.7,28.71,13.653,347,-2.802,1.921,8.46,0
411,35.377,-97.495,179.8,29,13.653,348,-3.077,2.194,9.148,0
412,35.377,-97.495,179.9,29.19,13.653,346,-2.884,2.274,8.8,0
413,35.377,-97.495,179.6,29.38,13.653,346,-2.97,2.632,10.056,0
414,35.377,-97.495,179.5,30,13.653,344,-2.869,2.45,9.623,0
415,35.376,-97.495,180,30.03,13.653,345,-2.966,2.204,8.663,0
416,35.376,-97.495,179.6,30.67,15.17,343,-2.717,2.284,8.747,1
417,35.376,-97.495,179.6,30.98,15.17,346,-2.722,2.065,9.118,0
418,35.375,-97.495,179.4,31.29,15.17,345,-2.877,2.066,9.017,0
419,35.375,-97.495,179.8,31.68,15.17,345,-3.114,2.05,9.228,0
420,35.375,-97.495,179.7,31.77,15.17,346,-2.84,1.959,8.755,0
421,35.375,-97.495,179.5,31.64,15.17,345,-2.663,2.147,8.986,0
422,35.374,-97.495,179.6,31.84,15.17,345,-2.86,2.195,8.99,0
423,35.374,-97.495,179.8,32.03,15.17,345,-3.042,2.377,9.271,0
424,35.374,-97.495,179.6,32.08,15.17,345,-2.86,2.127,8.987,0
425,35.373,-97.495,179.6,32.16,13.653,345,-2.939,2.3,9.129,0
426,35.373,-97.495,179.1,32.51,15.17,347,-3.022,1.998,8.705,0
427,35.373,-97.495,179.4,32.59,15.17,346,-3.093,2.071,8.858,0
428,35.373,-97.495,179,32.63,13.653,347,-2.78,2.305,9.256,0
429,35.372,-97.495,178.9,32.73,13.653,347,-2.661,2.319,9.074,0
430,35.372,-97.495,179.2,32.97,13.653,348,-2.723,2.169,8.81,0
431,35.372,-97.495,179.2,33.21,13.653,348,-2.822,2.195,8.824,0
432,35.371,-97.495,179.3,33.37,13.653,349,-2.979,2.249,8.993,0
433,35.371,-97.495,178.9,33.35,13.653,348,-2.818,2.183,8.946,0
434,35.371,-97.495,179,33.67,13.653,349,-2.797,2.262,8.925,0
435,35.37,-97.495,179.1,33.84,13.653,348,-2.885,2.156,9.029,0
436,35.37,-97.495,179.4,33.99,13.653,347,-2.592,1.803,8.675,0
437,35.37,-97.495,179.3,33.95,13.653,346,-2.889,2.005,9.011,0
438,35.37,-97.495,179.2,33.72,13.653,346,-2.94,2.109,9.203,0
439,35.369,-97.495,179.3,33.9,13.653,345,-2.907,1.934,8.909,0
440,35.369,-97.495,179.1,34.19,13.653,345,-2.804,2.162,9.259,0
441,35.369,-97.495,179.2,34.12,15.17,345,-2.799,2.047,8.854,0
442,35.368,-97.495,179.6,34.34,15.17,345,-3.069,2.427,9.832,0
443,35.368,-97.495,179.5,34.38,13.653,344,-2.855,2.083,8.89,0
444,35.368,-97.495,179.4,34.46,13.653,344,-2.785,2.181,9.12,0
445,35.367,-97.495,179.7,34.61,13.653,343,-2.866,2.212,8.923,0
446,35.367,-97.495,179.3,34.91,13.653,343,-2.961,2.143,9.099,0
447,35.367,-97.495,179.4,35.21,13.653,344,-2.99,2.05,9.166,0
448,35.366,-97.495,179.6,35.3,15.17,344,-3.288,1.671,9.588,0
449,35.366,-97.495,178.9,35.35,15.17,344,-3.198,1.746,9.242,0
450,35.366,-97.495,178.9,34.94,15.17,344,-2.538,1.539,8.644,0
451,35.365,-97.495,179,34.69,15.17,344,-3.499,2.262,11.521,0
452,35.365,-97.495,179,34.25,15.17,343,-2.884,1.715,9.145,0
453,35.365,-97.495,179.4,34,15.17,344,-2.861,1.62,9.148,0
454,35.365,-97.495,179.2,33.28,15.17,345,-3.029,1.881,9.267,0
455,35.364,-97.495,179.7,32.72,15.17,346,-3.022,1.478,8.622,0
456,35.364,-97.495,179.8,32.48,15.17,348,-3.13,1.841,9.028,0
457,35.364,-97.495,179,31.33,15.17,348,-2.598,1.624,9.156,0
458,35.363,-97.495,178.4,30.9,15.17,346,-2.75,2.029,8.983,0
459,35.363,-97.495,179.1,30.78,15.17,346,-2.042,1.864,8.526,0
460,35.363,-97.495,179.9,30.91,15.17,347,-2.266,2.412,9.717,0
461,35.363,-97.495,181.5,31,15.17,347,-1.826,2.324,9.392,1
462,35.362,-97.495,182.4,31.01,15.17,348,-1.876,2.177,9.595,0
463,35.362,-97.495,182,30.84,16.687,348,-1.837,1.728,8.895,0
465,35.362,-97.495,184,29.99,18.204,348,-2.181,1.762,10.035,0
465,35.362,-97.495,184,29.99,18.204,348,-2.181,1.762,10.035,0
466,35.361,-97.495,192.1,32.37,16.687,349,-2.164,1.717,9.771,0
467,35.361,-97.495,193.7,32.07,16.687,349,-2.082,1.635,9.276,0
468,35.361,-97.495,194,32.02,16.687,347,-2.861,1.672,9.163,0
469,35.36,-97.495,195.1,31.7,16.687,348,-2.873,1.077,9.039,0
470,35.36,-97.495,195.6,31.2,18.204,347,-2.674,0.725,9.326,0
471,35.36,-97.496,195.4,29.58,16.687,346,-2.322,0.907,9.422,0
472,35.36,-97.496,195.3,28.51,16.687,346,-2.106,1.794,9.196,0
473,35.359,-97.496,195.7,27.86,16.687,346,-2.588,2.204,9.842,0
474,35.359,-97.496,195.7,27.83,16.687,347,-3.22,2.253,9.184,0
475,35.359,-97.496,194.9,28.15,18.204,346,-4.062,2.465,9.276,0
476,35.359,-97.496,193.8,28.61,19.721,345,-3.434,2.381,9.052,0
477,35.358,-97.496,187.9,28.66,18.204,346,-3.302,2.551,9.051,0
478,35.358,-97.496,185.8,28.25,16.687,346,-3.27,2.673,9.232,0
479,35.358,-97.496,183.9,27.85,16.687,346,-3.174,2.541,8.854,0
480,35.358,-97.496,183.7,27.94,18.204,346,-3.311,2.398,8.629,0
481,35.357,-97.496,182.1,28.62,19.721,345,-3.582,2.585,8.864,0
482,35.357,-97.496,180.2,29.24,21.238,344,-4.09,2.538,8.516,0
483,35.357,-97.496,171.7,31.25,21.238,344,-3.705,2,8.01,0
484,35.356,-97.496,164.7,31.33,18.204,345,-2.975,1.707,8.898,0
485,35.356,-97.496,163.9,31.36,18.204,346,-2.05,1.706,9.247,0
486,35.356,-97.496,162.8,31.49,18.204,348,-2.202,1.785,9.361,0
487,35.356,-97.495,163.3,31.45,18.204,348,-2.661,1.74,9.171,1
488,35.355,-97.495,162.7,30.72,16.687,347,-2.736,1.8,9.404,0
489,35.355,-97.495,162.3,30.74,16.687,346,-2.193,1.928,9.624,0
490,35.355,-97.495,162.7,30.76,16.687,346,-1.665,1.795,9.387,0
491,35.355,-97.495,162.6,30.5,18.204,348,-1.869,2.031,9.195,0
492,35.354,-97.495,163.2,30.5,19.721,350,-2.016,2.199,9.535,0
493,35.354,-97.495,167.8,29.13,19.721,350,-2.371,2.114,9.782,0
494,35.354,-97.495,165.9,29.43,19.721,351,-2.347,2.153,9.196,0
495,35.354,-97.495,167.2,29.53,19.721,351,-2.036,1.957,9.145,0
496,35.353,-97.495,170.6,30.53,18.204,349,-2.274,2.123,8.996,0
497,35.353,-97.495,176.1,29.66,16.687,348,-1.951,1.821,9.231,0
498,35.353,-97.495,179,29.62,16.687,349,-3.066,1.958,8.931,1
499,35.352,-97.495,180.4,29.76,15.17,350,-3.127,2.101,9.394,0
500,35.352,-97.495,180.3,29.87,15.17,349,-2.989,1.786,9.418,0
501,35.352,-97.495,180,29.8,15.17,351,-2.778,1.741,9.31,0
502,35.352,-97.495,179.4,29.51,13.653,350,-2.87,1.873,9.138,0
503,35.351,-97.495,179.8,29.26,13.653,348,-2.735,1.873,9.167,1
504,35.351,-97.495,179.7,29.12,13.653,350,-2.873,2.319,8.782,0
505,35.351,-97.495,179.8,29.3,13.653,350,-2.71,2.587,8.976,0
506,35.351,-97.495,179.5,29.67,13.653,348,-2.725,2.687,8.843,0
507,35.35,-97.495,179.7,30.35,13.653,347,-2.651,2.593,8.759,0
508,35.35,-97.495,179.6,30.77,13.653,348,-2.948,2.556,8.653,1
509,35.35,-97.495,179.9,31.75,13.653,349,-2.817,2.042,8.78,1
510,35.349,-97.495,179.7,32.32,13.653,347,-2.778,2.355,9.15,0
511,35.349,-97.495,179.3,32.4,13.653,346,-2.985,2.22,8.614,0
512,35.349,-97.495,179.3,32.66,13.653,345,-2.977,2.429,9.804,0
513,35.349,-97.495,178.6,33.48,13.653,346,-2.426,2.275,9.46,0
514,35.348,-97.495,178.8,33.25,15.17,345,-2.306,2.252,9.344,0
515,35.348,-97.495,178.6,33.49,15.17,347,-2.313,2.225,8.975,0
516,35.348,-97.495,178.4,33.81,15.17,346,-2.78,2.013,8.919,0
517,35.347,-97.495,178,33.89,15.17,347,-3.239,2.177,9.148,0
518,35.347,-97.495,177.7,34.05,15.17,346,-3.504,2.23,9.183,0
519,35.347,-97.495,177.8,33.93,16.687,345,-3.482,2.217,9.282,0
520,35.346,-97.495,176.9,34.1,18.204,345,-3.226,2.124,8.779,0
521,35.346,-97.495,176.5,35.63,19.721,341,-3.19,2.184,9.056,0
522,35.346,-97.495,177.1,35.37,19.721,343,-2.913,2.224,9.484,0
523,35.345,-97.495,173.2,35.81,18.204,345,-3.146,2.252,9.335,0
524,35.345,-97.494,169.4,34.69,16.687,343,-3.329,2.169,8.827,0
525,35.345,-97.494,167.8,34.76,16.687,346,-3.229,2.251,8.761,0
526,35.345,-97.494,167.4,34.98,16.687,346,-2.796,2.158,8.688,0
527,35.344,-97.494,167.3,35.3,18.204,345,-2.961,2.219,8.919,0
528,35.344,-97.494,165.4,34.85,21.238,345,-3.35,2.476,9.764,0
529,35.344,-97.494,165.2,34.21,22.755,346,-2.593,2.146,8.508,0
530,35.343,-97.494,164.5,34.85,25.789,347,-2.762,2.096,9.226,0
532,35.343,-97.494,166.1,37.48,25.789,345,-2.589,2.089,8.133,0
532,35.343,-97.494,166.1,37.48,25.789,345,-2.589,2.089,8.133,0
533,35.342,-97.493,161,35.72,27.306,344,-2.553,1.569,9.113,0
534,35.342,-97.493,161.1,35.27,24.272,345,-2.762,1.518,9.083,0
535,35.342,-97.493,161.3,34.71,21.238,344,-2.66,1.47,8.778,0
536,35.342,-97.493,160.8,33.86,21.238,346,-3.144,1.601,9.45,0
537,35.341,-97.493,160.3,33.57,19.721,347,-2.588,2.025,9.103,0
538,35.341,-97.493,161.6,33.89,19.721,344,-2.753,2.112,9.009,1
539,35.341,-97.493,162.1,33.93,19.721,344,-2.841,2.055,9.057,0
540,35.34,-97.493,161.9,33.73,18.204,343,-2.659,1.961,8.749,1
541,35.34,-97.492,161.7,33.68,16.687,342,-2.724,2.053,9.133,1
542,35.34,-97.492,161.5,33.54,16.687,343,-2.9,2.062,9.262,1
543,35.34,-97.492,161.2,33.7,16.687,351,-2.805,2.017,8.909,0
544,35.339,-97.492,161.6,33.77,16.687,349,-2.889,2.058,9.3,0
545,35.339,-97.492,161.3,33.75,15.17,350,-2.636,2.146,9.287,1
546,35.339,-97.492,161.5,34.17,15.17,349,-2.56,2.105,8.88,1
547,35.338,-97.492,161.9,34.16,15.17,348,-2.494,1.862,8.09,0
548,35.338,-97.492,161.7,34.24,15.17,347,-2.957,2.368,9.406,0
549,35.338,-97.492,161.3,34.38,15.17,347,-3.066,1.967,10.172,0
550,35.338,-97.491,161.9,34.5,15.17,346,-2.67,1.834,9.273,1
551,35.337,-97.491,161.9,34.19,16.687,346,-2.87,2.049,8.879,1
552,35.337,-97.491,161.8,34.23,16.687,346,-2.874,1.74,8.858,0
553,35.337,-97.491,162.2,34.49,16.687,346,-3.01,1.72,9.325,0
554,35.336,-97.491,160.2,34.88,16.687,342,-2.693,1.64,9.241,0
555,35.336,-97.491,160.7,34.56,16.687,339,-2.013,1.918,9.319,0
556,35.336,-97.491,161.8,34.08,16.687,337,-2.276,1.83,9.931,0
557,35.335,-97.491,161.6,34.99,18.204,338,-2.248,1.937,9.197,0
558,35.335,-97.491,165.3,33.66,18.204,339,-2.103,2.243,9.732,0
559,35.335,-97.49,167.2,33.83,16.687,339,-1.871,2.291,9.455,0
560,35.335,-97.49,167.9,33.81,16.687,338,-1.742,2.126,9.127,1
561,35.334,-97.49,167.8,34.09,18.204,339,-2.329,2.17,9.186,0
562,35.334,-97.49,168.6,33.71,18.204,335,-2.06,2.053,8.611,0
563,35.334,-97.49,167.1,33.69,19.721,335,-1.898,1.609,9,0
564,35.333,-97.49,170.1,34.91,19.721,336,-2.218,1.721,9.534,0
565,35.333,-97.49,173.2,34.21,18.204,335,-2.317,2.022,9.257,0
566,35.333,-97.49,176.1,33.66,16.687,333,-1.894,2.004,9.247,0
567,35.332,-97.49,177.4,33.55,16.687,332,-2.597,2.127,9.318,0
568,35.332,-97.49,178.8,33.62,16.687,333,-2.718,1.953,9.187,0
569,35.332,-97.49,178.9,33.53,16.687,333,-2.471,1.82,8.765,0
570,35.332,-97.49,179.6,33.63,16.687,333,-2.665,1.962,9.181,0
571,35.331,-97.49,179.9,33.51,16.687,332,-2.77,2.054,9.561,0
572,35.331,-97.49,179.6,33.2,16.687,331,-2.668,1.98,9.081,1
573,35.331,-97.49,180.3,33.32,16.687,333,-2.757,2.06,9.003,1
574,35.33,-97.49,179.9,33.54,15.17,334,-2.772,2.28,9.65,0
575,35.33,-97.49,179.6,33.52,15.17,333,-2.422,2.11,8.511,0
576,35.33,-97.49,179.8,33.67,15.17,333,-2.703,1.976,8.889,0
577,35.329,-97.49,180.2,33.82,15.17,333,-2.885,2.224,9.235,0
578,35.329,-97.49,180.3,33.86,15.17,334,-2.732,1.991,8.862,0
579,35.329,-97.49,179.8,34.19,16.687,335,-2.758,2.072,9.132,0
580,35.328,-97.49,180.3,34.23,16.687,336,-2.829,1.777,8.773,0
581,35.328,-97.49,180.4,34.12,16.687,337,-2.948,1.791,9.639,0
582,35.328,-97.49,179.2,33.49,16.687,336,-2.823,1.594,8.67,0
583,35.328,-97.49,179.8,33.74,16.687,333,-2.462,1.69,9.454,0
584,35.327,-97.49,179.5,33.12,16.687,334,-2.812,1.716,8.799,0
585,35.327,-97.49,180.3,33.21,16.687,334,-2.781,1.891,9.113,0
586,35.327,-97.49,179.6,32.77,16.687,335,-2.812,1.864,9.059,1
587,35.326,-97.49,180.3,32.85,16.687,337,-2.679,1.84,8.995,1
588,35.326,-97.49,180,32.55,16.687,338,-2.778,1.904,9.027,1
589,35.326,-97.49,179.9,32.65,16.687,339,-2.813,1.898,9.065,0
590,35.326,-97.49,180,32.31,16.687,338,-2.793,1.853,8.851,0
591,35.325,-97.49,179.7,31.97,15.17,339,-2.89,1.837,9.204,1
592,35.325,-97.49,180.5,32.21,15.17,339,-2.874,2.099,9.01,0
593,35.325,-97.49,180.3,31.79,15.17,339,-2.91,2.19,8.806,0
594,35.324,-97.49,179.3,31.65,15.17,339,-2.924,2.018,9.054,0
595,35.324,-97.49,179.7,32.19,15.17,338,-2.692,1.769,8.967,0
596,35.324,-97.49,180.3,32.44,15.17,337,-2.651,1.852,9.258,0
597,35.323,-97.49,179.6,32.54,16.687,337,-2.682,1.838,9.241,1
598,35.323,-97.49,180,32.07,16.687,334,-2.719,1.821,9.065,1
599,35.323,-97.49,180.2,31.47,15.17,336,-2.987,2.141,9.634,0
600,35.323,-97.49,180.1,31.32,15.17,335,-2.846,2.128,9.158,1
601,35.322,-97.49,180.9,31.83,15.17,336,-2.947,2.175,9.355,0
602,35.322,-97.49,180.8,31.3,15.17,336,-2.971,1.881,9.014,1
603,35.322,-97.49,180.7,31.31,15.17,337,-3.003,2.106,8.837,1
605,35.322,-97.49,180.7,31.62,16.687,336,-3.065,2.156,9.16,0
605,35.322,-97.49,180.7,31.62,16.687,336,-3.065,2.156,9.16,0
606,35.321,-97.49,180.5,31.66,15.17,333,-2.636,2.168,9.289,1
607,35.321,-97.49,179.2,31.18,15.17,333,-2.528,1.956,8.719,0
608,35.32,-97.49,179.5,31.08,15.17,334,-2.808,1.966,9.109,0
609,35.32,-97.49,178.4,30.49,16.687,334,-2.759,1.989,9.183,0
610,35.32,-97.49,178.3,30.83,18.204,332,-2.584,1.869,8.596,0
611,35.32,-97.49,179.2,30.83,16.687,333,-2.651,1.897,8.85,1
612,35.319,-97.49,180.9,31.24,18.204,334,-2.99,2.022,9.232,0
613,35.319,-97.49,180.8,31.39,16.687,333,-2.793,1.544,8.781,0
614,35.319,-97.49,180.1,31.01,16.687,335,-3.018,1.635,9.207,0
615,35.318,-97.49,180.2,30.31,16.687,332,-2.684,1.506,8.928,1
616,35.318,-97.49,179.8,30.18,16.687,333,-2.829,1.57,8.966,0
617,35.318,-97.49,179.9,29.85,16.687,333,-2.861,1.725,9.418,0
618,35.318,-97.49,180.1,29.59,15.17,333,-2.524,1.615,9.125,0
619,35.317,-97.49,181.5,29.25,15.17,334,-2.675,1.613,9.074,0
620,35.317,-97.49,180.5,28.9,15.17,333,-2.978,1.7,9.14,0
621,35.317,-97.49,180.1,28.54,15.17,335,-2.85,1.717,9.151,0
622,35.317,-97.49,180,28.27,15.17,334,-2.818,2.259,9.186,0
623,35.316,-97.49,178.7,27.68,15.17,333,-2.712,2.379,8.915,1
624,35.316,-97.49,179.6,28.24,15.17,334,-2.751,2.621,9.338,0
625,35.316,-97.49,179,28.28,15.17,333,-2.94,2.444,9.036,1
626,35.316,-97.49,179.5,29.22,15.17,334,-2.777,2.313,8.583,0
627,35.315,-97.49,179.6,29.54,15.17,335,-2.679,2.106,8.989,0
628,35.315,-97.49,180.2,30,15.17,335,-2.779,2.171,8.92,0
629,35.315,-97.49,179.2,29.63,15.17,334,-2.801,2.178,8.968,1
630,35.315,-97.49,179.2,29.53,16.687,333,-2.993,2.053,9.072,0
631,35.314,-97.49,179.8,30.13,16.687,333,-2.831,1.676,8.619,0
632,35.314,-97.49,180,30.35,16.687,334,-2.839,1.518,8.866,0
633,35.314,-97.49,180.3,30.32,16.687,334,-2.874,1.672,9.08,0
634,35.313,-97.49,180.9,30.19,15.17,334,-2.698,1.709,9.189,1
635,35.313,-97.49,180.8,29.91,15.17,334,-2.921,1.934,9.407,0
636,35.313,-97.49,179.9,29.46,15.17,334,-2.806,1.852,9.138,0
637,35.313,-97.49,180.7,29.62,15.17,334,-2.793,2.101,9.174,0
638,35.312,-97.49,180.8,29.63,15.17,333,-2.18,2.182,9.122,1
639,35.312,-97.49,179.5,28.98,15.17,332,-2.735,1.823,8.904,1
