time,lat,lng,bearing,spd,acc,alt,accx,accy,accz,stable,
0,35.488,-97.511,180.5,33.37,7,350,2.862,3.027,9.07,0
1,35.488,-97.511,180.6,33.37,5,350,2.54,2.961,8.489,0
2,35.488,-97.511,180,33.46,5,351,2.652,3.073,8.829,0
3,35.487,-97.511,179.2,33.56,4,351,2.8,3.084,9.038,0
4,35.487,-97.511,178.4,33.641,4,351,2.393,2.581,8.4,0
5,35.487,-97.511,177.5,33.622,4,349,2.645,2.322,8.85,0
6,35.486,-97.511,176.5,33.503,4,347,2.584,2.153,8.586,0
7,35.486,-97.511,175.6,33.351,4,347,2.848,2.505,9.298,0
8,35.486,-97.511,174.3,33.107,4,346,2.675,2.509,8.818,0
9,35.486,-97.511,173.8,33.122,4,346,2.742,2.045,8.5,0
10,35.485,-97.511,173.2,33.071,4,347,2.623,2.191,8.96,0
11,35.485,-97.511,171.1,32.782,4,346,2.507,2.497,9.196,0
12,35.485,-97.511,169.8,32.633,4,345,2.808,2.512,8.894,0
13,35.484,-97.511,168.6,32.573,4,346,2.898,2.53,8.733,0
14,35.484,-97.511,168,32.373,4,345,2.929,2.564,8.853,0
15,35.484,-97.511,167.4,32.263,4,345,2.97,2.523,8.915,1
17,35.484,-97.51,166.8,32.124,4,344,3.039,2.603,8.895,1
17,35.484,-97.51,166.8,32.124,4,344,3.039,2.603,8.895,1
18,35.483,-97.51,167,31.771,4,341,3.053,2.646,9.21,0
19,35.483,-97.51,167.3,31.651,4,341,3.312,2.618,8.84,0
20,35.482,-97.51,168,31.27,4,341,3.524,2.708,9.046,0
21,35.482,-97.51,169.3,30.89,5,342,3.354,2.674,9.09,0
22,35.482,-97.51,169.7,30.86,6,342,3.268,2.831,8.913,0
23,35.482,-97.51,170.6,31.5,7,341,3.111,3.037,8.786,0
24,35.481,-97.51,171.4,31.09,9,342,3.009,3.033,8.675,0
25,35.481,-97.51,171.7,30.32,9,341,3.164,3.063,8.67,0
26,35.481,-97.51,171.7,31.89,9,342,3.216,3.121,8.547,0
27,35.48,-97.51,173.4,31.14,7,342,3.143,3.134,8.654,0
28,35.48,-97.51,174.8,30.87,6,343,3.202,3.166,8.591,0
29,35.48,-97.51,175.6,30.57,6,343,3.102,3.11,8.476,1
30,35.48,-97.51,176.6,30.83,6,342,2.959,3.087,8.723,1
31,35.479,-97.51,177,30.95,5,340,2.695,3.029,8.826,1
32,35.479,-97.51,177.1,30.88,5,346,2.631,2.988,8.861,1
33,35.479,-97.51,176.4,31.13,5,345,2.954,3.059,8.807,1
34,35.479,-97.51,176.4,31.24,5,343,3.124,3.054,8.623,1
35,35.478,-97.51,176.3,31.31,5,342,2.727,2.94,9.001,1
36,35.478,-97.51,176,31.36,6,341,2.139,2.833,9.498,0
37,35.478,-97.51,175.2,31.86,7,341,1.985,2.79,9.448,0
38,35.477,-97.51,173.4,31.59,8,340,2.4,2.913,9.354,0
39,35.477,-97.509,168.7,31.1,5,341,2.331,2.95,9.204,0
40,35.477,-97.509,167,30.951,5,342,2.192,2.95,9.262,0
41,35.477,-97.509,165.3,30.79,4,341,2.113,2.941,9.32,0
42,35.476,-97.509,162.7,30.651,4,341,2.264,2.961,9.15,0
43,35.476,-97.509,160.7,30.571,4,342,2.263,3.071,9.109,0
44,35.476,-97.509,159.2,30.241,4,341,2.363,3.137,8.997,0
45,35.476,-97.509,156.8,30.541,4,341,2.278,3.117,8.942,0
46,35.475,-97.509,155.1,30.59,3,342,2.014,3.098,8.885,1
47,35.475,-97.509,152.9,30.75,4,341,2.141,3.02,8.956,1
48,35.475,-97.508,150.7,30.94,3,341,2.489,3.049,8.926,1
49,35.475,-97.508,149.2,31.13,3,342,2.422,2.988,9.138,1
50,35.474,-97.508,148.4,30.711,3,341,2.432,2.979,9.308,0
51,35.474,-97.508,146,31.2,3,340,2.597,3.012,9.443,0
52,35.474,-97.508,144.4,31.181,3,340,2.318,2.9,9.396,0
53,35.474,-97.507,142.9,30.963,3,341,2.198,2.861,9.383,0
54,35.473,-97.507,141.5,30.83,3,341,2.406,2.912,9.152,0
55,35.473,-97.507,140.7,30.303,3,342,2.599,2.901,8.854,0
56,35.473,-97.507,140.2,29.823,3,345,2.782,2.723,8.732,0
57,35.473,-97.507,140.1,29.402,3,347,2.945,2.514,9.09,0
58,35.473,-97.506,140.1,28.835,3,348,2.796,2.569,8.63,0
59,35.472,-97.506,140.4,28.182,3,348,2.811,2.899,8.895,0
60,35.472,-97.506,140.5,27.751,3,349,2.66,3.231,8.341,0
61,35.472,-97.506,140.6,27.721,3,350,2.72,3,8.663,1
62,35.472,-97.506,140.5,27.85,3,350,2.621,3.121,8.717,0
63,35.472,-97.505,140.5,28.13,3,351,2.669,3.066,8.694,0
64,35.471,-97.505,140.6,28.42,3,351,2.554,3.259,8.544,0
65,35.471,-97.505,140.6,28.67,3,352,2.608,3.469,8.794,0
66,35.471,-97.505,140.7,28.98,3,352,2.698,3.313,8.619,0
67,35.471,-97.505,140.8,29.27,3,353,2.741,3.344,8.632,0
68,35.471,-97.504,140.9,29.59,3,353,2.852,3.015,8.991,0
69,35.47,-97.504,141.2,29.87,3,354,2.852,2.786,8.809,0
71,35.47,-97.504,141.4,29.89,3,354,2.877,2.698,8.647,1
71,35.47,-97.504,141.4,29.89,3,354,2.877,2.698,8.647,1
72,35.47,-97.504,142.1,29.281,3,354,2.988,2.487,8.606,1
73,35.47,-97.503,142.5,29.001,3,354,2.909,2.652,8.798,1
74,35.469,-97.503,142.8,28.801,3,354,3.03,2.475,8.966,0
75,35.469,-97.503,143.1,28.631,3,354,2.758,2.627,8.33,0
76,35.469,-97.503,143.5,28.462,3,353,2.993,2.44,8.716,0
77,35.469,-97.503,143.7,28.285,3,353,2.865,2.655,9.086,0
78,35.469,-97.502,143.9,28.384,3,352,2.795,2.903,8.809,0
79,35.468,-97.502,144,28.564,3,351,2.801,2.8,8.723,0
80,35.468,-97.502,144.2,28.817,3,351,2.845,3.017,8.349,0
81,35.468,-97.502,144.6,29.189,3,350,2.81,3.242,8.571,1
82,35.468,-97.502,144.6,29.545,3,350,2.925,2.988,9.026,1
83,35.467,-97.501,144.7,29.979,3,349,2.868,3.16,8.911,0
84,35.467,-97.501,144.9,30.277,3,349,3.052,3.136,9.129,0
85,35.467,-97.501,145.4,30.595,3,348,3.113,3.337,8.538,0
86,35.467,-97.501,146.4,31.033,3,347,3.176,3.527,9.916,0
87,35.467,-97.501,146.5,31.501,3,346,2.225,3.276,9.058,0
88,35.466,-97.501,145.6,31.851,3,345,2.317,2.874,9.083,0
89,35.466,-97.5,145,32.21,3,345,2.693,3.175,8.799,0
90,35.466,-97.5,144.7,32.18,3,345,2.798,2.642,9.063,0
91,35.466,-97.5,144.8,31.81,3,345,2.762,2.856,9.216,0
92,35.465,-97.5,144.6,31.52,3,345,2.922,3.082,8.423,0
93,35.465,-97.499,144.7,31.39,3,345,2.599,2.792,8.473,0
94,35.465,-97.499,144.5,31.31,3,345,2.787,2.79,8.893,0
95,35.465,-97.499,144.3,31.25,3,344,2.858,2.905,8.903,0
96,35.464,-97.499,144.1,31.09,3,345,2.759,2.882,8.268,0
97,35.464,-97.499,143.8,30.96,3,345,2.951,2.981,8.967,0
98,35.464,-97.498,143.3,30.92,3,345,2.591,2.988,8.893,0
99,35.464,-97.498,142.2,30.96,3,344,2.164,2.905,8.918,1
100,35.464,-97.498,140.2,30.96,3,345,2.341,2.938,9.029,0
101,35.463,-97.498,138.3,31.11,3,345,2.372,2.942,9.03,0
102,35.463,-97.498,136.7,31.21,3,345,2.754,3.163,9.341,0
103,35.463,-97.497,135.4,31.39,3,345,2.067,2.855,9.109,0
104,35.463,-97.497,133.6,31.44,3,345,2.147,3.017,9.069,0
105,35.463,-97.497,131.2,31.59,3,345,2.263,3.593,9.845,0
106,35.462,-97.497,128.8,31.66,3,345,2.43,3.17,9.303,0
107,35.462,-97.496,126.8,31.79,3,345,2.305,3.118,9.252,0
108,35.462,-97.496,125.2,31.95,3,345,2.325,2.496,8.986,0
109,35.462,-97.496,123.7,31.76,3,344,2.219,2.372,8.782,0
110,35.462,-97.495,121.7,31.401,3,344,3.066,2.806,8.549,0
111,35.462,-97.495,120.5,31.301,3,344,4.166,2.8,8.309,0
112,35.461,-97.495,122.4,31.061,3,343,4.958,3.013,7.857,0
113,35.461,-97.495,123.1,31.302,3,343,4.783,3.153,8.001,0
114,35.461,-97.494,130.5,31.044,3,343,4.412,3.165,8.123,0
115,35.461,-97.494,131.3,30.941,3,342,4.613,3.141,8.096,0
116,35.461,-97.494,138.1,31.454,3,341,4.324,2.811,8.044,0
117,35.46,-97.494,141.5,31.1,3,341,4.164,2.88,8.181,0
118,35.46,-97.493,145.4,31.11,3,341,4.132,2.969,8.916,0
119,35.46,-97.493,149.2,31.557,3,339,3.429,2.559,8.956,0
120,35.46,-97.493,151.1,31.605,3,338,3.188,2.98,8.893,0
122,35.46,-97.493,151.9,31.431,3,338,3.136,2.272,9.719,0
122,35.46,-97.493,151.9,31.431,3,338,3.136,2.272,9.719,0
123,35.459,-97.493,152.6,30.95,3,338,2.762,2.913,9.698,0
124,35.459,-97.492,152.1,30.98,3,338,2.517,2.812,9.133,0
125,35.459,-97.492,151.8,31,3,337,2.624,3.438,8.89,0
126,35.458,-97.492,151.6,31.11,3,337,2.847,3.141,8.75,0
127,35.458,-97.492,151.6,31.24,3,336,2.698,2.876,8.703,0
128,35.458,-97.492,151.5,31.05,3,336,2.553,2.335,8.808,0
129,35.458,-97.492,151.1,30.78,3,336,2.407,2.574,9.178,0
130,35.457,-97.491,150.3,30.48,3,337,2.392,2.497,9.34,0
131,35.457,-97.491,149.6,30.18,3,337,2.728,2.976,8.69,0
132,35.457,-97.491,149.8,30.14,3,337,3.005,3.269,8.747,0
133,35.457,-97.491,150.4,30.351,3,337,3.145,3.294,9.2,0
134,35.456,-97.491,151.2,30.621,3,338,3.246,3.588,8.979,0
135,35.456,-97.491,152.4,30.862,3,338,3.327,3.474,8.859,0
136,35.456,-97.49,153.9,31.033,3,338,3.609,3.338,8.68,0
137,35.456,-97.49,155.7,30.972,3,339,3.446,3.235,8.523,0
138,35.455,-97.49,157.2,30.891,3,338,3.094,3.179,8.533,0
139,35.455,-97.49,158.2,30.931,3,338,3.171,3.349,8.949,0
140,35.455,-97.49,159.2,31.001,3,339,2.943,3.276,8.776,0
141,35.455,-97.49,159.4,31.052,3,339,2.677,2.593,8.711,0
142,35.454,-97.49,159,30.741,3,339,2.999,3.106,8.911,0
143,35.454,-97.49,158.9,30.581,3,340,3.18,2.845,8.399,0
144,35.454,-97.489,159.1,30.54,3,340,3.11,2.931,8.213,0
145,35.454,-97.489,159.3,30.68,3,340,3.079,3.164,8.456,0
146,35.453,-97.489,159.3,30.89,3,340,2.832,3.091,8.252,0
147,35.453,-97.489,159.2,31.192,3,339,3.083,3.258,8.713,1
148,35.453,-97.489,159.2,31.553,3,339,3.08,3.134,8.591,0
149,35.452,-97.489,159.1,31.913,3,337,3.003,3.137,8.427,0
150,35.452,-97.489,158.9,32.232,3,336,3.119,2.849,8.7,0
151,35.452,-97.489,158.7,32.392,3,336,2.852,2.521,8.961,0
152,35.452,-97.488,158.2,32.202,3,336,3.099,2.679,8.755,0
153,35.451,-97.488,158.1,31.983,3,335,3.103,2.595,9.086,0
154,35.451,-97.488,158.2,31.773,3,335,2.956,2.652,8.565,0
155,35.451,-97.488,158.2,31.583,3,334,3.292,2.677,9.064,0
156,35.451,-97.488,158.7,31.353,3,333,3.118,2.513,8.88,0
157,35.45,-97.488,159.2,31.122,3,333,3.131,2.609,9.14,0
158,35.45,-97.488,159.6,30.871,3,333,2.683,2.847,9.163,0
159,35.45,-97.488,159.4,30.98,3,333,2.828,2.915,8.995,0
160,35.45,-97.487,159.6,29.26,3,333,2.825,2.924,8.824,0
161,35.449,-97.487,159.4,30.52,3,333,3.194,3.237,8.701,0
162,35.449,-97.487,159.9,30.541,3,333,3.619,3.33,8.593,0
163,35.449,-97.487,161.6,30.6,3,334,3.208,3.36,8.51,0
164,35.449,-97.487,163.2,30.771,3,334,3.136,3.331,8.704,0
165,35.448,-97.487,164,30.91,3,334,3.15,3.376,8.714,0
166,35.448,-97.487,164.8,31.06,3,335,3.205,3.419,8.642,0
167,35.448,-97.487,165.7,31.21,3,335,3.228,3.213,8.907,0
168,35.447,-97.487,166.9,31.31,3,335,3.188,3.174,8.623,0
169,35.447,-97.487,167.8,31.16,3,336,3.223,3.076,8.78,0
170,35.447,-97.487,168.8,31.14,3,335,3.253,2.991,8.707,0
171,35.447,-97.486,169.8,31.14,3,334,3.134,3.034,8.584,0
172,35.446,-97.486,170.9,31.09,3,335,3.144,3.118,8.613,0
174,35.446,-97.486,171.9,31.17,3,333,3.173,3.198,8.882,0
174,35.446,-97.486,171.9,31.17,3,333,3.173,3.198,8.882,0
175,35.446,-97.486,172.5,31.17,6,333,3.211,3.163,8.696,0
176,35.445,-97.486,174.5,31.29,5,334,3.172,3.079,8.678,1
177,35.445,-97.486,175.1,31.28,5,334,3.442,3.165,8.739,1
178,35.445,-97.486,177.2,31.101,5,334,3.425,3.082,8.825,0
179,35.444,-97.486,178.4,31.29,4,334,3.215,3.254,8.913,0
180,35.444,-97.486,179.2,31.271,4,334,3.175,3.133,8.504,0
181,35.444,-97.486,179.9,31.091,3,335,2.473,2.942,8.267,0
182,35.444,-97.486,179.8,30.911,3,335,2.673,2.841,8.671,0
183,35.443,-97.486,179.9,30.831,3,336,2.616,3.145,9.001,0
184,35.443,-97.486,179.7,30.791,4,337,2.614,3.08,8.694,0
185,35.443,-97.486,179.8,30.85,4,337,2.731,3.181,8.736,0
186,35.442,-97.486,180.1,30.97,4,336,2.719,3.126,8.873,0
187,35.442,-97.486,180.2,31.07,4,337,2.418,3.152,8.888,1
188,35.442,-97.486,179.9,31.28,4,338,2.597,3.217,8.788,1
189,35.442,-97.486,179.7,31.39,4,338,2.739,3.174,8.661,1
190,35.441,-97.486,179.8,31.47,4,339,2.836,3.085,8.622,1
191,35.441,-97.486,179.9,31.67,4,339,2.708,2.975,8.836,1
192,35.441,-97.486,180.2,31.55,4,338,2.763,3.007,8.658,1
193,35.44,-97.486,180,31.71,4,339,2.683,3.09,8.734,1
194,35.44,-97.486,179.9,31.74,4,338,2.693,2.96,8.659,1
195,35.44,-97.486,179.9,31.8,4,338,2.826,2.971,8.754,1
196,35.44,-97.486,180,31.87,4,337,2.721,2.907,8.949,1
197,35.439,-97.486,180,31.86,4,338,2.953,2.814,8.811,1
198,35.439,-97.486,179.9,31.45,4,338,2.69,2.824,9.026,1
199,35.439,-97.486,180.1,31.77,4,337,2.647,2.777,8.716,1
200,35.438,-97.486,180,31.65,4,336,2.885,2.876,8.922,1
201,35.438,-97.486,180,31.71,4,337,2.697,2.749,8.779,1
202,35.438,-97.486,179.9,31.67,4,336,2.802,2.871,8.915,1
203,35.438,-97.486,180,31.58,4,335,2.804,2.873,8.934,1
204,35.437,-97.486,179.9,31.63,4,335,2.806,3.031,8.741,0
205,35.437,-97.486,180.1,31.57,4,335,2.735,2.941,8.55,0
206,35.437,-97.486,180.1,31.6,4,335,2.737,3.26,8.971,0
207,35.436,-97.486,180.3,31.64,4,335,2.536,3.251,8.916,0
208,35.436,-97.486,180.4,31.76,4,336,2.676,3.12,8.82,0
209,35.436,-97.486,179.8,32.67,5,337,2.811,3.266,8.858,0
210,35.436,-97.486,180.3,32.53,5,335,2.672,3.269,9.022,0
211,35.435,-97.486,180.4,32.73,6,335,2.802,3.05,9.212,0
212,35.435,-97.486,180,33.34,5,336,2.782,3.07,9.045,0
213,35.435,-97.486,179.7,33.02,5,335,2.936,3.02,9.121,0
214,35.434,-97.486,179.9,32.8,5,335,2.93,3.178,9.13,0
215,35.434,-97.486,179.8,33.18,6,335,2.707,3.135,8.779,0
216,35.434,-97.486,179.9,32.76,5,336,2.623,3.243,8.918,0
217,35.433,-97.486,179.8,32.54,10,336,2.584,3.187,8.998,0
218,35.433,-97.486,179.7,32.52,10,338,2.588,3.384,8.809,0
219,35.433,-97.486,179.7,32.58,10,339,2.955,3.259,8.581,0
220,35.433,-97.486,179.9,32.66,10,338,2.744,3.119,8.767,0
221,35.432,-97.486,180.4,32.67,10,338,2.656,3.186,8.833,0
222,35.432,-97.486,180.3,32.88,10,338,2.566,2.995,8.838,0
223,35.432,-97.486,180.1,32.91,9,339,2.615,3.005,8.816,0
224,35.431,-97.486,179.8,32.93,9,339,2.845,3.041,8.553,0
225,35.431,-97.486,179.6,33.03,9,339,2.794,3.053,8.772,0
227,35.431,-97.486,179.8,33.141,9,339,2.786,2.898,8.904,1
227,35.431,-97.486,179.8,33.141,9,339,2.786,2.898,8.904,1
228,35.43,-97.486,180,33.28,9,340,2.817,2.762,9.106,1
229,35.43,-97.486,179.9,33.34,9,340,2.871,2.923,9.236,0
230,35.43,-97.486,180,33.25,9,339,2.913,2.852,9.079,0
231,35.429,-97.486,180,33.2,9,340,2.871,2.828,9.102,0
232,35.429,-97.486,180,32.97,9,340,2.853,2.716,8.827,0
233,35.429,-97.486,180,32.68,9,341,2.774,2.936,8.81,0
234,35.428,-97.486,180,32.58,9,341,2.812,3,8.8,0
235,35.428,-97.486,179.3,32.8,10,341,2.736,3.133,8.862,0
236,35.428,-97.486,179.4,33.17,10,340,2.721,3.185,9.308,0
237,35.428,-97.486,179.9,32.98,10,341,2.522,3.037,9.261,0
238,35.427,-97.486,179.7,32.78,10,342,2.818,3.179,8.948,0
239,35.427,-97.486,179.8,32.8,10,344,3.226,3.334,8.719,0
240,35.427,-97.486,181,32.821,9,346,3.77,3.373,8.317,0
241,35.426,-97.486,183.1,32.56,9,347,3.331,3.28,8.517,0
242,35.426,-97.486,184.6,32.46,9,347,3.275,3.365,8.601,0
243,35.426,-97.486,186.2,32.75,9,348,3.415,3.299,8.681,0
244,35.425,-97.486,187.8,32.783,9,349,3.659,3.332,8.803,0
245,35.425,-97.486,189.3,32.73,9,349,3.598,3.495,8.701,0
246,35.425,-97.487,191,32.75,9,348,3.45,3.402,8.838,0
247,35.425,-97.487,192.7,32.801,9,349,3.36,3.47,8.622,0
248,35.424,-97.487,194.4,32.872,9,350,3.577,3.448,8.759,0
249,35.424,-97.487,196.1,32.922,9,351,3.5,3.367,8.997,0
250,35.424,-97.487,197.7,32.922,9,351,3.484,3.297,8.629,0
251,35.423,-97.487,199.2,32.963,9,352,3.345,3.388,8.6,0
252,35.423,-97.487,200.6,32.923,9,353,3.4,3.186,8.852,0
253,35.423,-97.487,201.8,32.903,9,352,2.917,3.132,8.857,0
254,35.423,-97.487,202.3,32.772,9,354,2.742,3.206,9.242,0
255,35.422,-97.488,202.5,32.684,9,355,2.591,3.085,9.071,0
256,35.422,-97.488,202.1,32.602,9,354,2.633,3.035,8.85,0
257,35.422,-97.488,202,32.571,9,354,2.828,3.183,8.755,0
258,35.422,-97.488,202,32.621,9,355,2.939,3.461,9.006,0
259,35.421,-97.488,202.3,32.771,9,356,2.717,3.559,8.642,0
260,35.421,-97.488,202.2,33.01,9,355,2.878,3.452,8.92,0
261,35.421,-97.488,202.1,33.23,9,355,2.762,3.038,8.469,0
262,35.42,-97.489,201.9,33.4,9,355,2.778,3,8.767,0
263,35.42,-97.489,201.7,33.56,9,355,2.47,2.988,9.298,0
264,35.42,-97.489,201,33.73,9,355,2.283,2.946,8.53,0
265,35.42,-97.489,199.8,33.831,9,355,2.687,3.052,8.651,0
266,35.419,-97.489,198.8,33.973,9,354,2.805,2.851,8.922,0
267,35.419,-97.489,198.6,34.002,9,353,2.976,2.755,8.388,0
268,35.419,-97.489,198.1,34.011,9,352,2.91,2.938,9.308,0
269,35.418,-97.489,197.6,34.05,9,352,2.949,2.779,9.278,0
270,35.418,-97.489,197.5,33.94,9,352,2.959,2.955,9.267,0
271,35.418,-97.49,197.7,33.71,9,351,2.628,2.828,9,0
272,35.418,-97.49,197.6,33.46,9,350,2.671,2.844,8.841,0
273,35.417,-97.49,197.5,33.27,9,351,2.831,2.857,8.92,0
274,35.417,-97.49,197.5,33.11,9,350,2.574,2.973,8.595,0
275,35.417,-97.49,197.5,33.07,9,350,2.676,3.009,8.879,0
276,35.416,-97.49,197.5,33.04,9,350,2.624,2.929,8.901,0
277,35.416,-97.49,197.6,33.04,9,350,2.696,2.963,8.803,0
279,35.416,-97.49,197.5,33.11,9,349,2.724,2.964,8.962,1
279,35.416,-97.49,197.5,33.11,9,349,2.724,2.964,8.962,1
280,35.415,-97.491,197.5,33.27,9,347,2.849,2.883,9.011,1
281,35.415,-97.491,197.6,33.38,9,348,2.862,2.967,9.172,0
282,35.415,-97.491,197.8,33.47,9,348,2.803,2.973,9.067,0
283,35.414,-97.491,197.7,33.61,9,346,2.742,2.868,9.209,0
284,35.414,-97.491,196.3,34.65,9,347,2.839,2.846,9.015,0
285,35.414,-97.491,196.1,34.37,9,347,2.915,2.868,9.158,0
286,35.414,-97.491,197.6,33.43,9,351,2.879,2.901,9.38,0
287,35.413,-97.491,197.6,33.19,9,351,2.685,2.878,9.149,0
288,35.413,-97.492,197.6,32.96,9,349,2.779,3.009,8.843,0
289,35.413,-97.492,197.7,32.69,9,350,2.75,3.014,8.93,0
290,35.412,-97.492,197.7,32.51,9,350,2.629,2.94,8.963,0
291,35.412,-97.492,197.7,32.38,9,351,2.743,3.043,8.888,0
292,35.412,-97.492,197.7,32.29,9,351,2.741,3.143,8.908,0
293,35.412,-97.492,197.8,32.33,9,349,2.775,3.187,8.858,0
294,35.411,-97.492,197.9,32.38,9,349,2.76,3.216,8.844,0
295,35.411,-97.492,197.9,32.44,9,349,2.546,3.19,8.928,0
296,35.411,-97.492,197.7,32.51,9,349,2.63,3.19,9.091,0
297,35.41,-97.492,197.4,32.58,9,349,2.569,2.911,8.402,0
298,35.41,-97.493,197.3,32.68,9,350,2.893,3.177,8.687,0
299,35.41,-97.493,197.5,32.83,9,350,2.824,3.359,8.704,0
300,35.41,-97.493,197.7,32.87,9,351,2.793,3.369,8.249,0
301,35.409,-97.493,197.7,33.11,9,352,2.876,3.513,8.71,0
302,35.409,-97.493,197.4,33.24,9,353,2.685,2.841,8.028,0
303,35.409,-97.493,197.2,33.41,9,353,2.654,2.864,8.264,0
304,35.408,-97.493,197.5,33.48,9,353,2.645,2.855,8.566,1
305,35.408,-97.493,197.7,33.55,9,355,2.536,2.977,9.091,1
306,35.408,-97.493,197.5,33.67,9,355,2.677,2.978,8.995,0
307,35.408,-97.494,197.5,33.75,9,357,2.868,2.918,8.848,0
308,35.407,-97.494,197.5,33.79,9,357,2.828,3.046,8.955,0
309,35.407,-97.494,197.7,33.82,9,356,2.686,2.868,8.797,0
310,35.407,-97.494,197.6,33.82,9,358,2.702,3.116,9.255,0
311,35.406,-97.494,197.6,33.77,9,358,2.629,2.824,8.943,0
312,35.406,-97.494,197.5,33.75,9,358,2.81,3.044,9.394,0
313,35.406,-97.494,197.3,33.74,9,359,2.852,2.796,8.517,0
314,35.406,-97.494,197.1,33.7,9,359,3.059,2.769,8.785,0
315,35.405,-97.494,196.8,33.73,9,359,2.712,2.855,9.14,0
316,35.405,-97.495,196,33.71,9,360,2.571,2.886,8.977,0
317,35.405,-97.495,194.5,33.76,9,358,2.657,2.823,9.126,0
318,35.404,-97.495,193.2,33.58,9,358,2.767,2.856,9.045,0
319,35.404,-97.495,191.6,33.67,9,357,2.786,2.811,9.137,0
320,35.404,-97.495,190.8,33.38,9,356,2.807,2.915,9.012,0
321,35.404,-97.495,189.8,33.13,9,355,2.742,2.88,8.609,0
322,35.403,-97.495,189,32.92,9,355,2.669,3.07,8.885,0
323,35.403,-97.495,187.9,32.83,9,355,2.399,2.993,8.897,0
324,35.403,-97.495,187.2,32.65,9,354,2.457,2.946,8.882,0
325,35.402,-97.495,185.7,32.74,9,355,2.548,2.997,8.782,0
326,35.402,-97.495,184.4,32.81,9,356,2.396,3.061,8.561,0
327,35.402,-97.495,183.5,32.8,9,357,2.589,3.006,8.669,1
328,35.401,-97.495,182.4,32.861,9,357,2.492,3.042,8.698,1
329,35.401,-97.495,181.5,33.29,9,358,2.747,2.885,8.35,1
330,35.401,-97.495,180.6,33.26,9,359,2.865,2.938,8.721,1
331,35.401,-97.495,180.1,33.562,9,358,2.753,2.795,8.61,1
333,35.4,-97.495,180.2,33.85,9,358,2.947,2.783,9.1,0
333,35.4,-97.495,180.2,33.85,9,358,2.947,2.783,9.1,0
334,35.4,-97.495,180.2,33.991,9,356,2.836,2.744,9,0
335,35.399,-97.495,180,33.84,9,356,2.815,2.833,9,0
336,35.399,-97.495,179,33.5,9,357,2.884,2.842,9.291,0
337,35.399,-97.495,179.2,33.59,9,357,2.79,2.863,8.946,0
338,35.398,-97.495,179.7,33.18,9,358,2.898,2.968,9.441,0
339,35.398,-97.495,179.8,33.28,9,357,2.772,2.87,8.826,0
340,35.398,-97.495,180.2,32.4,10,356,2.763,2.971,8.985,0
341,35.398,-97.495,180.6,31.92,11,356,2.834,3.131,9.196,0
342,35.397,-97.495,180.1,32.57,11,357,2.506,3.081,8.957,0
343,35.397,-97.495,180.1,32.59,11,356,2.608,2.902,8.659,0
344,35.397,-97.495,179.7,32.3,10,358,2.616,2.884,8.949,0
345,35.396,-97.495,179.6,32.43,10,358,2.726,3.001,8.817,0
346,35.396,-97.495,180.1,32.07,10,358,2.726,3.021,8.733,0
347,35.396,-97.495,180,32.18,9,358,2.74,3.096,8.948,0
348,35.396,-97.495,180.4,32.14,9,358,2.662,3.025,8.818,0
349,35.395,-97.495,180.1,32.31,9,360,2.7,3.026,9.019,1
350,35.395,-97.495,179.7,32.421,9,359,2.697,2.937,8.602,1
351,35.395,-97.495,179.9,32.77,9,359,2.838,2.961,8.769,1
352,35.394,-97.495,180.2,32.76,10,358,2.743,3.014,8.736,1
353,35.394,-97.495,180,32.8,10,356,2.658,3.152,9.205,0
354,35.394,-97.495,180.1,32.86,10,355,2.702,2.965,9.117,0
355,35.393,-97.495,179.9,32.99,10,354,2.924,2.935,9.087,0
356,35.393,-97.495,180.2,33.21,10,354,2.814,3.012,8.823,0
357,35.393,-97.495,180,32.91,10,353,2.748,3.05,9.1,0
358,35.393,-97.495,180,32.96,10,352,2.959,2.869,8.749,0
359,35.392,-97.495,180.1,32.9,9,352,2.793,2.75,8.838,0
360,35.392,-97.495,180,32.87,10,352,2.721,2.853,9.132,0
361,35.392,-97.495,179.7,32.28,10,352,2.79,2.839,9.226,0
362,35.391,-97.495,179.9,32.21,10,352,2.818,2.777,8.528,0
363,35.391,-97.495,179.7,32.33,10,354,2.758,2.992,8.872,0
364,35.391,-97.495,179.8,32.3,10,354,2.752,2.896,8.809,0
365,35.391,-97.495,179.8,32.1,10,353,2.77,2.869,9.193,0
366,35.39,-97.495,179.5,32.08,11,355,2.725,2.966,8.701,0
367,35.39,-97.495,179.6,31.75,11,355,2.874,3.066,8.947,0
368,35.39,-97.495,179.8,31.88,11,355,2.721,3.197,8.918,0
369,35.389,-97.495,179.5,32.28,11,355,2.654,3.124,8.88,0
370,35.389,-97.495,180.2,32.12,10,356,2.776,3.062,8.839,0
371,35.389,-97.495,179.8,32.32,10,356,2.597,3.094,8.866,0
372,35.388,-97.495,179.9,32.39,10,357,2.604,3.156,9.2,0
373,35.388,-97.495,179.8,32.56,10,357,2.726,3.166,9.023,0
374,35.388,-97.495,179.7,32.64,10,359,2.633,3.156,8.973,0
375,35.388,-97.495,179.8,32.65,10,358,2.762,3.213,9.072,0
376,35.387,-97.495,179.7,32.59,10,358,2.721,3.184,8.911,0
377,35.387,-97.495,179.6,32.98,10,358,2.622,3.128,8.83,0
378,35.387,-97.495,179.7,32.79,10,358,2.607,3.009,8.733,0
379,35.386,-97.495,179.7,32.95,9,357,2.506,3.073,8.67,0
380,35.386,-97.495,179.9,33.09,9,358,2.7,3.036,8.744,0
381,35.386,-97.495,179.7,33.2,9,358,2.849,3.002,9.058,0
382,35.386,-97.495,179.9,33.61,9,358,2.815,2.909,9.18,0
383,35.385,-97.495,179.7,33.42,9,356,2.807,3.073,9.358,0
384,35.385,-97.495,180,33.35,10,357,2.674,2.901,9.325,0
385,35.385,-97.495,180.3,33.2,10,356,2.848,2.917,8.801,0
386,35.384,-97.495,179.1,33.221,10,355,2.965,3.108,9.035,0
387,35.384,-97.495,179.6,33.221,10,354,2.806,3.09,9.133,0
389,35.384,-97.495,179.9,32.93,11,354,2.704,3.151,8.968,0
389,35.384,-97.495,179.9,32.93,11,354,2.704,3.151,8.968,0
390,35.383,-97.495,181.2,31.54,11,355,2.531,2.948,8.556,0
391,35.383,-97.495,180.5,31.76,12,357,2.653,3.092,8.785,0
392,35.383,-97.495,179.8,31.34,12,357,2.622,3.032,8.636,0
393,35.382,-97.495,179.3,32.02,12,356,2.584,3.076,8.71,0
394,35.382,-97.495,178.4,32.72,12,358,2.646,2.979,8.53,0
395,35.382,-97.495,178.8,32.04,12,357,2.848,3.03,8.372,0
396,35.381,-97.495,179.8,31.52,11,358,2.714,3.095,8.707,0
397,35.381,-97.495,180.2,31.29,11,357,2.614,2.874,8.745,1
398,35.381,-97.495,179.7,31.64,10,358,2.437,2.888,9.195,1
399,35.381,-97.495,179.4,31.53,10,359,2.699,2.654,8.916,1
400,35.38,-97.495,179.3,31.38,10,359,2.849,2.553,8.884,1
401,35.38,-97.495,179.5,30.89,10,360,2.802,2.756,8.87,1
402,35.38,-97.495,179.6,30.44,10,360,2.789,2.784,9.075,0
403,35.379,-97.495,179.8,29.98,10,361,2.793,2.778,9.039,0
404,35.379,-97.495,179.8,29.55,10,362,2.826,2.784,9.171,0
405,35.379,-97.495,179.8,29.32,10,365,2.781,3.014,8.72,0
406,35.379,-97.495,180,29.19,10,365,2.734,2.772,8.756,0
407,35.378,-97.495,179.6,29.1,10,365,2.645,2.91,8.762,0
408,35.378,-97.495,179.9,28.93,10,366,2.625,3.091,9.005,0
409,35.378,-97.495,179.8,28.74,10,366,2.562,2.903,8.81,0
410,35.378,-97.495,179.6,28.92,10,366,2.672,3.083,9.293,0
411,35.377,-97.495,179.8,29.13,10,369,2.652,3.396,8.771,0
412,35.377,-97.495,179.7,29.39,10,371,2.825,3.672,9.107,0
413,35.377,-97.495,179.8,29.27,10,369,2.801,3.426,8.896,0
414,35.377,-97.495,179.9,29.781,10,368,2.663,3.31,8.867,0
415,35.376,-97.495,179.9,30.201,9,369,2.541,3.26,8.831,0
416,35.376,-97.495,179.8,30.572,9,366,2.649,3.177,8.62,0
417,35.376,-97.495,179.8,30.952,9,364,2.781,3.004,8.769,0
418,35.375,-97.495,179.7,31.304,9,364,2.722,3.047,8.817,0
419,35.375,-97.495,179.9,31.442,9,363,2.726,2.855,9.309,0
420,35.375,-97.495,179.7,31.532,9,362,2.699,2.725,8.998,0
421,35.375,-97.495,179.6,31.501,9,362,2.817,3.021,9.09,0
422,35.374,-97.495,179.6,31.51,9,363,2.733,2.963,8.815,0
423,35.374,-97.495,179.7,31.49,10,363,2.605,2.877,8.78,0
424,35.374,-97.495,179.5,31.65,10,364,2.575,2.989,8.817,0
425,35.373,-97.495,179.5,32.19,9,364,2.708,3.276,9.283,0
426,35.373,-97.495,179.3,31.971,10,363,2.656,2.808,8.91,0
427,35.373,-97.495,179.1,32.281,10,361,2.621,3.101,8.97,0
428,35.373,-97.495,179.2,32.76,10,361,2.639,3.067,9.124,0
429,35.372,-97.495,179.2,32.87,10,361,2.725,3.073,9.017,0
430,35.372,-97.495,179.2,33,10,361,2.737,3.104,8.994,0
431,35.372,-97.495,179.2,33.121,10,360,2.623,3.057,8.756,0
432,35.371,-97.495,179.5,33.28,9,360,2.586,3.089,8.797,0
433,35.371,-97.495,179.3,33.44,9,360,2.604,3.211,8.821,0
434,35.371,-97.495,179.1,33.59,10,359,2.668,3.095,9.032,0
435,35.37,-97.495,179.3,33.8,9,358,2.725,3.032,9.293,0
436,35.37,-97.495,179.3,33.95,9,360,2.715,2.892,8.627,0
437,35.37,-97.495,179.2,33.911,9,358,2.626,2.877,8.877,0
438,35.37,-97.495,179.2,33.721,9,357,2.505,2.905,8.905,0
440,35.369,-97.495,179.4,33.831,9,356,2.582,2.892,8.946,0
440,35.369,-97.495,179.4,33.831,9,356,2.582,2.892,8.946,0
441,35.369,-97.495,179.2,34.1,9,358,2.546,2.803,8.764,0
442,35.368,-97.495,179.4,34.24,9,359,2.621,2.821,8.906,0
443,35.368,-97.495,179.3,34.39,9,358,2.541,2.793,8.767,0
444,35.368,-97.495,179.3,34.57,9,355,2.636,3.069,8.648,1
445,35.367,-97.495,179.6,34.681,9,355,2.724,2.863,8.928,1
446,35.367,-97.495,179.5,34.981,9,355,2.661,3.218,9.379,0
447,35.367,-97.495,179.5,35.161,9,355,2.598,3.026,8.864,0
448,35.366,-97.495,179.4,35.272,9,354,2.621,2.901,8.801,0
449,35.366,-97.495,179.4,35.34,9,354,2.687,2.649,9.441,0
450,35.366,-97.495,179.3,35.14,9,355,2.754,2.584,9.868,0
451,35.365,-97.495,178.9,34.6,9,353,2.938,2.482,9.098,0
452,35.365,-97.495,179.2,34.19,9,353,2.719,2.394,8.985,0
453,35.365,-97.495,179.3,33.66,9,355,2.859,2.766,9.124,0
454,35.365,-97.495,179.4,33.241,9,356,2.65,2.334,8.974,0
455,35.364,-97.495,179.3,32.62,9,355,2.682,2.428,8.966,0
456,35.364,-97.495,179.4,32.08,9,355,2.714,2.372,8.863,0
457,35.364,-97.495,179.3,31.6,9,355,2.619,2.424,8.949,0
458,35.363,-97.495,179.2,31.21,9,355,2.738,2.647,8.079,0
459,35.363,-97.495,179.4,30.86,9,354,2.776,2.867,8.577,0
460,35.363,-97.495,180.1,31.03,9,354,3.513,3.424,9.245,0
461,35.363,-97.495,180.9,31.11,9,354,3.408,3.312,8.576,0
462,35.362,-97.495,182.7,31.57,9,354,3.608,3.2,8.586,0
463,35.362,-97.495,185.5,31.87,9,354,3.548,3.123,8.382,0
464,35.362,-97.495,188.2,32.18,9,354,3.662,2.889,8.849,0
465,35.361,-97.495,188.9,32.43,10,354,3.61,2.756,8.897,0
466,35.361,-97.495,190,33.32,11,355,3.671,2.666,8.416,0
467,35.361,-97.495,193.7,32.03,10,356,3.641,2.775,8.663,0
468,35.361,-97.495,195.5,31.781,9,357,2.801,2.561,8.87,0
469,35.36,-97.495,195.8,31.5,9,356,2.938,2.248,9.146,0
470,35.36,-97.496,195.3,30.77,9,357,2.953,1.719,9.106,0
471,35.36,-97.496,194.7,29.85,10,358,3.296,1.57,8.993,0
472,35.36,-97.496,193.8,29.05,10,359,3.188,2.283,8.486,0
473,35.359,-97.496,194.9,28.29,10,360,2.84,2.779,8.812,0
474,35.359,-97.496,194.2,27.84,11,361,2.153,2.958,9.091,0
475,35.359,-97.496,192,27.48,11,361,1.962,3.159,8.997,0
476,35.359,-97.496,190.1,26.95,11,361,2.129,3.172,9.216,0
477,35.358,-97.496,185.3,27.99,10,359,2.125,3.18,8.958,0
478,35.358,-97.496,183.2,28.4,10,359,2.229,3.303,9.002,0
479,35.358,-97.496,180,28.542,10,358,2.167,3.324,8.975,0
480,35.358,-97.496,179.2,28.52,10,358,2.088,3.228,9.266,0
481,35.357,-97.496,175.4,29.67,10,357,1.769,3.174,9.292,0
482,35.357,-97.496,172.6,30.57,10,355,1.523,3.018,9.552,0
483,35.357,-97.496,168.8,31.15,10,355,1.898,3.025,9.27,0
484,35.356,-97.496,164.3,31.391,9,354,2.687,2.648,8.949,0
485,35.356,-97.496,162.2,31.35,9,354,3.436,2.675,8.594,0
486,35.356,-97.495,161.8,31.12,9,353,3.128,2.728,8.697,0
487,35.356,-97.495,162.5,30.861,9,353,2.911,2.731,9.022,0
488,35.355,-97.495,162.5,30.621,9,353,2.971,2.639,9.041,0
489,35.355,-97.495,162.5,30.411,9,352,3.674,2.784,8.58,0
490,35.355,-97.495,163.6,30.171,9,352,3.647,2.867,8.608,0
491,35.355,-97.495,165.9,29.93,9,352,3.769,3.141,8.609,0
493,35.354,-97.495,168.1,29.78,9,352,3.387,2.936,8.718,0
493,35.354,-97.495,168.1,29.78,9,352,3.387,2.936,8.718,0
494,35.354,-97.495,171.9,29.88,9,351,3.28,3.008,8.454,0
495,35.354,-97.495,173.6,29.99,9,351,3.317,3.066,8.79,0
496,35.353,-97.495,175.5,29.99,9,352,3.623,2.934,8.586,0
497,35.353,-97.495,177.1,29.94,9,351,3.46,2.926,8.44,0
498,35.353,-97.495,179,29.711,9,351,3.169,2.836,8.732,0
499,35.352,-97.495,180.2,29.601,9,350,2.618,2.87,8.864,1
500,35.352,-97.495,179.9,29.711,9,350,2.565,2.701,8.896,1
501,35.352,-97.495,179.7,29.65,9,350,2.771,2.578,9.028,1
502,35.352,-97.495,179.9,29.8,10,350,2.853,2.473,8.924,1
503,35.351,-97.495,180.1,29.45,10,350,2.761,2.862,9.063,1
504,35.351,-97.495,179.7,29.32,10,350,2.763,2.923,8.749,1
505,35.351,-97.495,179.7,29.28,10,349,2.512,3.236,8.693,1
506,35.351,-97.495,179.4,29.6,10,349,2.617,3.481,8.709,1
507,35.35,-97.495,179.3,29.92,10,350,2.644,3.538,8.985,0
508,35.35,-97.495,179.4,30.98,10,349,2.596,3.46,9.082,0
509,35.35,-97.495,179.2,31.14,10,349,2.53,3.368,8.711,0
510,35.349,-97.495,179.3,32.131,10,349,2.673,3.233,8.793,0
511,35.349,-97.495,179.5,32.531,10,349,2.717,3.107,8.93,0
512,35.349,-97.495,179.5,32.67,10,348,2.66,3.096,9.125,0
513,35.349,-97.495,178.9,33.201,10,347,2.733,3.141,9.016,0
514,35.348,-97.495,178.8,32.97,10,347,3.2,3.115,8.689,0
515,35.348,-97.495,179.3,33.01,10,346,3.03,3.213,8.707,0
516,35.348,-97.495,178.7,32.43,10,345,3.134,2.984,8.557,0
517,35.347,-97.495,178.4,32.46,11,346,2.815,2.909,8.945,0
518,35.347,-97.495,178.5,33.75,11,347,2.282,2.98,8.93,0
519,35.347,-97.495,179.5,33.27,12,348,2.138,2.968,9.06,0
520,35.346,-97.495,174.1,34.341,10,349,2.211,2.999,9.221,0
521,35.346,-97.495,172.6,34.55,9,350,2.254,2.929,9.131,0
522,35.346,-97.495,171.9,34.75,9,350,2.554,2.975,9.254,0
523,35.346,-97.494,170.1,34.83,9,350,2.64,3.025,9.126,0
524,35.345,-97.494,169.2,34.94,9,347,2.514,3.183,9.37,0
525,35.345,-97.494,168.1,35.001,9,346,2.192,3.152,9.278,0
526,35.345,-97.494,166.9,35.001,9,347,2.443,2.992,9.053,0
527,35.344,-97.494,165.4,34.982,9,347,2.525,3.079,8.981,0
528,35.344,-97.494,164.4,34.831,9,348,2.39,3.071,8.421,0
529,35.344,-97.494,163.4,34.99,9,348,2.766,3.425,9.387,0
530,35.343,-97.494,162.6,35.08,9,348,2.577,3.051,8.842,0
531,35.343,-97.494,162,35.13,9,348,2.822,3.33,8.631,0
532,35.343,-97.494,161.7,35.32,9,348,2.89,3.169,8.942,0
533,35.342,-97.493,161.4,35.65,9,348,2.968,2.614,8.876,0
534,35.342,-97.493,161.5,35.41,9,347,2.92,2.417,8.981,0
535,35.342,-97.493,161.6,34.91,9,347,2.733,2.343,8.947,0
536,35.342,-97.493,161.6,34.29,9,346,2.831,2.593,8.963,0
537,35.341,-97.493,161.3,33.75,9,346,2.865,2.895,8.745,1
538,35.341,-97.493,161.5,33.63,9,347,2.762,2.979,8.889,1
539,35.341,-97.493,161.6,33.68,9,347,2.819,2.886,8.925,1
540,35.34,-97.493,161.6,33.68,9,347,2.758,2.998,8.833,1
541,35.34,-97.492,161.7,33.63,9,347,2.708,2.919,8.849,1
542,35.34,-97.492,161.7,33.73,9,347,2.765,2.887,8.881,1
543,35.34,-97.492,161.5,33.73,9,345,2.674,2.972,8.906,1
544,35.339,-97.492,161.4,33.75,9,345,2.664,2.927,8.699,1
546,35.339,-97.492,161.3,33.79,9,345,2.837,2.926,8.596,1
546,35.339,-97.492,161.3,33.79,9,345,2.837,2.926,8.596,1
547,35.338,-97.492,161.3,34.202,9,344,3.072,2.93,9.101,0
548,35.338,-97.492,161.5,34.231,9,344,2.757,3.22,8.632,0
549,35.338,-97.492,161.9,34.21,10,344,2.743,2.852,8.34,0
550,35.338,-97.491,161.8,34.25,10,344,2.789,2.584,8.552,0
551,35.337,-97.491,161.7,34.32,10,344,2.799,2.734,8.69,0
552,35.337,-97.491,161.8,34.463,10,344,2.733,2.676,9.062,0
553,35.337,-97.491,161.6,34.493,10,343,2.746,2.646,9.117,0
554,35.336,-97.491,161.6,34.692,10,343,2.891,2.484,9.205,0
555,35.336,-97.491,161.5,34.34,10,344,3.202,2.794,9.278,0
556,35.336,-97.491,162.3,34.141,9,343,3.578,2.816,8.672,0
557,35.335,-97.491,163.8,33.99,9,342,3.624,2.847,8.584,0
558,35.335,-97.49,165.4,33.82,9,341,3.604,3.012,8.639,0
559,35.335,-97.49,167,33.84,9,343,3.691,3.079,8.474,0
560,35.335,-97.49,167.9,33.86,9,342,3.473,3.065,8.488,0
561,35.334,-97.49,169.6,33.981,9,342,3.507,3.185,8.763,0
562,35.334,-97.49,171.6,34.16,9,341,3.414,3.127,8.541,0
563,35.334,-97.49,172.7,34.15,9,341,3.574,2.895,8.686,0
564,35.333,-97.49,173.5,34.47,10,341,3.567,2.724,8.479,0
565,35.333,-97.49,175.1,34.17,10,342,3.582,2.811,8.669,0
566,35.333,-97.49,175.9,34.19,10,343,3.496,2.953,8.74,1
567,35.332,-97.49,177.4,34.05,10,342,3.149,2.855,8.601,1
568,35.332,-97.49,179.1,33.78,10,341,2.876,2.72,8.901,1
569,35.332,-97.49,180,33.75,10,343,2.965,2.88,8.89,1
570,35.332,-97.49,179.6,33.56,10,345,2.842,2.785,8.604,1
571,35.331,-97.49,179.8,33.55,10,345,2.913,2.845,8.842,1
572,35.331,-97.49,179.8,33.49,10,345,2.842,2.888,8.746,1
573,35.331,-97.49,179.7,33.5,10,344,2.823,2.996,8.843,1
574,35.33,-97.49,179.8,33.57,9,344,2.872,2.973,8.856,1
575,35.33,-97.49,180.2,33.8,9,343,2.962,3.095,8.577,1
576,35.33,-97.49,180.2,33.66,9,344,2.775,2.886,8.916,1
577,35.329,-97.49,180.1,33.9,9,344,2.784,2.993,8.76,1
578,35.329,-97.49,180,33.95,9,343,2.753,3.005,8.719,1
579,35.329,-97.49,180,34.08,9,344,2.912,3.009,8.961,1
580,35.328,-97.49,180,34.17,9,345,2.709,2.912,8.797,1
581,35.328,-97.49,180,34.22,9,343,2.951,2.64,9.06,1
582,35.328,-97.49,179.9,34,9,342,2.87,2.515,8.998,0
583,35.328,-97.49,179.9,33.72,9,343,3.109,2.608,9.047,0
584,35.327,-97.49,179.9,33.34,9,342,2.925,2.674,8.743,0
585,35.327,-97.49,179.9,32.93,10,342,2.734,2.61,8.773,0
586,35.327,-97.49,180,32.78,10,343,2.708,2.627,8.891,0
587,35.326,-97.49,179.9,32.62,10,343,2.749,2.738,8.913,0
588,35.326,-97.49,179.8,32.5,10,342,2.771,2.718,8.822,0
589,35.326,-97.49,179.8,32.39,10,342,2.839,2.788,9.041,1
590,35.325,-97.49,179.9,32.25,10,342,2.816,2.791,8.911,1
591,35.325,-97.49,179.9,32.13,9,342,2.746,2.724,8.979,1
592,35.325,-97.49,179.9,31.97,9,342,2.782,2.932,8.946,1
593,35.325,-97.49,180,31.85,10,342,2.723,3.057,8.889,1
594,35.324,-97.49,179.9,31.99,10,342,2.755,2.988,9.12,1
595,35.324,-97.49,179.7,32.24,10,342,2.816,2.668,8.887,1
596,35.324,-97.49,179.7,32.2,10,342,2.907,2.669,8.802,1
597,35.323,-97.49,180,31.931,9,336,2.916,2.73,8.929,1
599,35.323,-97.49,179.9,31.83,10,336,2.825,2.705,8.8,1
599,35.323,-97.49,179.9,31.83,10,336,2.825,2.705,8.8,1
600,35.323,-97.49,180.1,31.43,10,336,2.834,2.792,9.101,1
601,35.322,-97.49,180.1,31.36,10,338,2.85,2.908,8.944,1
602,35.322,-97.49,180.1,31.35,9,333,2.777,2.981,8.939,1
603,35.322,-97.49,180.4,31.29,10,333,2.735,2.927,8.815,1
604,35.322,-97.49,180.4,31.18,9,332,2.57,2.956,8.997,1
605,35.321,-97.49,180.2,31.18,9,333,2.53,2.906,9.025,1
606,35.321,-97.49,179.7,31.22,9,334,2.736,2.846,8.906,1
607,35.321,-97.49,179.6,31.23,9,335,2.786,2.945,8.742,1
608,35.32,-97.49,179.9,31.19,9,336,2.792,2.865,8.929,1
609,35.32,-97.49,180.2,30.951,9,333,2.834,2.93,9.041,1
610,35.32,-97.49,179.3,30.571,9,332,2.783,2.805,8.732,1
611,35.32,-97.49,180,31.04,9,333,2.708,2.795,8.737,1
612,35.319,-97.49,180,31.03,9,333,2.608,2.877,8.871,1
613,35.319,-97.49,179.9,31.04,9,334,2.706,2.648,8.812,1
614,35.319,-97.49,179.9,30.651,9,333,2.786,2.518,9.032,1
615,35.318,-97.49,179.8,30.36,9,333,2.808,2.477,8.784,1
616,35.318,-97.49,179.7,30.01,9,334,2.815,2.441,8.82,1
617,35.318,-97.49,179.6,29.651,9,334,2.841,2.468,8.859,1
618,35.318,-97.49,179.5,29.31,9,334,3.035,2.546,8.854,1
619,35.317,-97.49,180,29.03,9,334,2.945,2.523,8.751,1
620,35.317,-97.49,180.2,28.611,9,332,2.771,2.539,8.845,1
621,35.317,-97.49,180.1,28.38,9,332,2.815,2.522,9.051,1
622,35.317,-97.49,180,28.071,9,333,2.758,2.896,8.993,1
623,35.316,-97.49,179.8,28.14,9,332,2.698,3.253,8.81,1
624,35.316,-97.49,179.7,28.51,9,332,2.848,3.373,8.784,1
625,35.316,-97.49,179.9,28.95,10,332,2.635,3.326,8.831,1
626,35.316,-97.49,179.9,29.391,9,331,2.735,3.259,8.897,1
627,35.315,-97.49,179.9,29.821,9,331,2.873,3.033,8.588,1
628,35.315,-97.49,180.2,30.02,9,331,2.819,3.071,8.709,1
629,35.315,-97.49,180.1,30.28,9,329,2.83,3.013,8.961,1
630,35.315,-97.49,180.3,30.42,9,329,2.611,2.872,8.914,1
631,35.314,-97.49,180.1,30.41,9,328,2.625,2.65,8.895,1
632,35.314,-97.49,179.9,30.4,9,328,2.718,2.581,8.879,1
633,35.314,-97.49,179.6,30.14,9,327,2.824,2.581,8.928,1
634,35.313,-97.49,179.6,29.77,9,328,2.928,2.571,9.041,1
635,35.313,-97.49,179.7,29.46,9,327,2.783,2.659,8.866,1
636,35.313,-97.49,179.7,29.23,9,327,2.757,2.734,8.893,1
637,35.313,-97.49,179.6,28.97,9,327,2.809,2.952,8.976,1
638,35.312,-97.49,179.5,28.99,9,327,3.036,3.11,8.876,1
639,35.312,-97.49,180,28.961,9,327,2.818,2.797,8.817,1
