time,lat,lng,bearing,spd,acc,alt,accx,accy,accz,stable,
0,35.323,-97.49,180.1,31.32,15.17,335,-2.846,2.128,9.158,1
1,35.322,-97.49,180.9,31.83,15.17,336,-2.947,2.175,9.355,0
2,35.322,-97.49,180.8,31.3,15.17,336,-2.971,1.881,9.014,1
3,35.322,-97.49,180.7,31.31,15.17,337,-3.003,2.106,8.837,1
5,35.322,-97.49,180.7,31.62,16.687,336,-3.065,2.156,9.16,0
5,35.322,-97.49,180.7,31.62,16.687,336,-3.065,2.156,9.16,0
6,35.321,-97.49,180.5,31.66,15.17,333,-2.636,2.168,9.289,1
7,35.321,-97.49,179.2,31.18,15.17,333,-2.528,1.956,8.719,0
8,35.32,-97.49,179.5,31.08,15.17,334,-2.808,1.966,9.109,0
9,35.32,-97.49,178.4,30.49,16.687,334,-2.759,1.989,9.183,0
10,35.32,-97.49,178.3,30.83,18.204,332,-2.584,1.869,8.596,0
11,35.32,-97.49,179.2,30.83,16.687,333,-2.651,1.897,8.85,1
12,35.319,-97.49,180.9,31.24,18.204,334,-2.99,2.022,9.232,0
13,35.319,-97.49,180.8,31.39,16.687,333,-2.793,1.544,8.781,0
14,35.319,-97.49,180.1,31.01,16.687,335,-3.018,1.635,9.207,0
15,35.318,-97.49,180.2,30.31,16.687,332,-2.684,1.506,8.928,1
16,35.318,-97.49,179.8,30.18,16.687,333,-2.829,1.57,8.966,0
17,35.318,-97.49,179.9,29.85,16.687,333,-2.861,1.725,9.418,0
18,35.318,-97.49,180.1,29.59,15.17,333,-2.524,1.615,9.125,0
19,35.317,-97.49,181.5,29.25,15.17,334,-2.675,1.613,9.074,0
20,35.317,-97.49,180.5,28.9,15.17,333,-2.978,1.7,9.14,0
21,35.317,-97.49,180.1,28.54,15.17,335,-2.85,1.717,9.151,0
22,35.317,-97.49,180,28.27,15.17,334,-2.818,2.259,9.186,0
23,35.316,-97.49,178.7,27.68,15.17,333,-2.712,2.379,8.915,1
24,35.316,-97.49,179.6,28.24,15.17,334,-2.751,2.621,9.338,0
25,35.316,-97.49,179,28.28,15.17,333,-2.94,2.444,9.036,1
26,35.316,-97.49,179.5,29.22,15.17,334,-2.777,2.313,8.583,0
27,35.315,-97.49,179.6,29.54,15.17,335,-2.679,2.106,8.989,0
28,35.315,-97.49,180.2,30,15.17,335,-2.779,2.171,8.92,0
29,35.315,-97.49,179.2,29.63,15.17,334,-2.801,2.178,8.968,1
30,35.315,-97.49,179.2,29.53,16.687,333,-2.993,2.053,9.072,0
31,35.314,-97.49,179.8,30.13,16.687,333,-2.831,1.676,8.619,0
32,35.314,-97.49,180,30.35,16.687,334,-2.839,1.518,8.866,0
33,35.314,-97.49,180.3,30.32,16.687,334,-2.874,1.672,9.08,0
34,35.313,-97.49,180.9,30.19,15.17,334,-2.698,1.709,9.189,1
35,35.313,-97.49,180.8,29.91,15.17,334,-2.921,1.934,9.407,0
36,35.313,-97.49,179.9,29.46,15.17,334,-2.806,1.852,9.138,0
37,35.313,-97.49,180.7,29.62,15.17,334,-2.793,2.101,9.174,0
38,35.312,-97.49,180.8,29.63,15.17,333,-2.18,2.182,9.122,1
39,35.312,-97.49,179.5,28.98,15.17,332,-2.735,1.823,8.904,1
40,35.312,-97.49,179.1,29.18,15.17,330,-2.667,1.763,9.046,0
41,35.312,-97.49,179.4,28.66,15.17,330,-2.598,1.733,9.11,0
42,35.311,-97.49,179.8,28.63,15.17,328,-2.737,1.724,9.391,0
43,35.311,-97.49,179.8,28.3,15.17,328,-2.598,1.757,9.171,0
44,35.311,-97.49,180,28.24,15.17,328,-3.089,1.89,9.403,0
45,35.311,-97.49,179.5,28.14,15.17,327,-2.87,2.031,9.079,0
46,35.31,-97.49,180.2,28.17,15.17,327,-2.697,2.283,9.182,1
47,35.31,-97.49,181.2,28.41,15.17,328,-2.524,2.536,9.394,0
48,35.31,-97.49,181.3,28.21,15.17,328,-2.522,2.324,8.638,0
49,35.31,-97.49,180.9,28.26,15.17,328,-2.72,2.504,8.991,0
50,35.309,-97.49,180.8,28.66,15.17,328,-2.842,2.366,8.671,0
51,35.309,-97.49,179.7,28.75,15.17,323,-2.773,1.627,8.808,0
52,35.309,-97.49,179.6,29.06,15.17,323,-2.717,1.616,9.231,0
53,35.309,-97.49,179.9,28.88,15.17,324,-2.512,1.453,8.505,0
54,35.308,-97.49,179.9,28.91,16.687,324,-2.681,1.755,9.61,0
55,35.308,-97.49,180.7,28.97,16.687,325,-2.866,1.713,9.135,0
56,35.308,-97.49,180.9,28.89,16.687,324,-2.426,1.7,9.383,0
57,35.307,-97.49,182.1,29.71,18.204,325,-2.761,1.669,9.051,0
58,35.307,-97.49,182.7,28.71,18.204,323,-3.074,1.374,9.398,0
59,35.307,-97.49,184.5,28.64,18.204,331,-3.044,0.945,9.235,0
60,35.307,-97.49,181.2,28.95,19.721,330,-3.085,0.891,9.316,0
61,35.306,-97.49,179.8,27.69,19.721,330,-3.054,1.784,9.283,0
62,35.306,-97.49,181.6,26.9,19.721,330,-2.664,1.812,9.205,1
63,35.306,-97.49,181.2,23.13,19.721,328,-3.001,1.76,9.062,0
64,35.306,-97.49,180.1,19.47,19.721,327,-2.908,1.733,9.061,1
65,35.306,-97.49,179.2,21.41,19.721,328,-2.959,1.803,9.093,1
66,35.306,-97.49,180.3,22.13,19.721,327,-2.646,1.808,8.962,0
67,35.305,-97.49,179.8,22,19.721,327,-2.794,1.786,9.204,1
68,35.305,-97.49,180.4,21.11,18.204,326,-2.888,1.795,9.141,1
69,35.305,-97.49,181.1,20.93,18.204,325,-2.991,2.352,8.813,1
70,35.305,-97.49,181.2,21.09,18.204,325,-3.091,2.745,8.876,1
71,35.305,-97.49,180.9,21.02,18.204,324,-2.922,2.857,8.672,1
72,35.304,-97.49,181.8,21.27,18.204,325,-2.736,3.045,9,1
74,35.304,-97.49,182.8,21.09,18.204,325,-2.536,2.913,9.054,1
74,35.304,-97.49,182.8,21.09,18.204,325,-2.536,2.913,9.054,1
75,35.304,-97.49,178.9,23.77,16.687,323,-2.559,2.884,8.885,1
76,35.304,-97.49,179.3,24.41,16.687,324,-2.484,2.691,8.698,0
77,35.303,-97.49,178,24.87,16.687,324,-2.548,2.559,9.425,0
78,35.303,-97.49,177.6,24.84,16.687,323,-2.629,1.943,8.886,0
79,35.303,-97.49,177.4,24.48,18.204,323,-2.676,1.925,8.927,0
80,35.303,-97.49,178,24.83,16.687,324,-2.747,2.158,9.08,0
81,35.302,-97.49,178.1,25.04,16.687,324,-2.67,2.532,8.905,1
82,35.302,-97.49,177.4,24.82,18.204,324,-2.81,2.261,8.957,1
83,35.302,-97.49,178.8,26.16,18.204,323,-2.791,2.199,9.107,0
84,35.302,-97.49,179.3,26.77,19.721,324,-2.589,2.187,9.039,1
85,35.301,-97.49,181.3,27.28,18.204,324,-2.74,2.433,8.996,1
86,35.301,-97.49,180,27.23,18.204,325,-2.867,1.891,9.137,1
87,35.301,-97.49,179.9,27.31,18.204,326,-2.686,1.702,8.765,1
88,35.301,-97.49,180.2,27.29,16.687,325,-2.692,1.928,9.093,0
89,35.3,-97.49,179.9,27.14,16.687,325,-2.841,1.83,9.09,1
90,35.3,-97.49,179.9,26.9,16.687,326,-3.12,2.105,9.199,1
91,35.3,-97.49,180.9,26.8,18.204,327,-2.595,2.066,8.947,1
92,35.3,-97.49,178.9,27.12,19.721,328,-2.461,2.251,8.92,0
93,35.299,-97.49,180.5,27.31,18.204,327,-2.956,2.197,8.9,1
94,35.299,-97.49,179.7,27.92,16.687,327,-2.937,2.228,9.005,1
95,35.299,-97.49,177.6,28.13,16.687,327,-2.671,2.199,8.874,0
96,35.299,-97.49,176.2,28.29,16.687,326,-2.782,2.285,9.013,1
97,35.298,-97.49,174.4,28.57,16.687,325,-3.072,2.62,9.031,1
98,35.298,-97.49,173.3,28.56,16.687,326,-2.733,2.685,9.079,1
99,35.298,-97.49,173.1,30.05,16.687,325,-3.24,2.662,9.157,0
100,35.298,-97.49,171.9,30.81,15.17,324,-2.484,2.577,8.871,0
101,35.297,-97.49,170.9,31.56,15.17,324,-3.101,1.812,9.082,0
102,35.297,-97.49,170,31.47,15.17,326,-2.758,1.797,9.468,0
103,35.297,-97.49,168.9,31.84,15.17,327,-2.988,1.879,8.597,0
104,35.297,-97.49,168.5,31.33,15.17,325,-2.986,2.004,8.794,0
105,35.296,-97.49,167.7,31.59,16.687,330,-3.147,2.209,9.352,0
106,35.296,-97.489,166.3,32.25,19.721,329,-2.695,2.147,9.173,0
107,35.296,-97.489,165.5,33.32,21.238,329,-2.607,1.822,8.75,0
108,35.295,-97.489,166.7,32.93,19.721,328,-2.62,1.909,9.044,0
109,35.295,-97.489,165.5,32.05,19.721,327,-2.617,2.164,9.313,0
110,35.295,-97.489,163.8,31.1,21.238,327,-2.841,2.058,9.067,1
111,35.295,-97.489,163.8,31.05,19.721,327,-2.693,2.174,9.056,1
112,35.294,-97.489,161.8,29.8,18.204,326,-2.869,2.194,9.274,0
113,35.294,-97.489,162.5,30.26,18.204,326,-2.644,2.092,9.209,1
114,35.294,-97.489,162.5,29.9,18.204,322,-2.746,2.257,9.367,0
115,35.294,-97.488,163,30.25,18.204,323,-2.81,1.855,9.12,1
116,35.293,-97.488,162.9,30.32,18.204,323,-2.63,2.217,8.927,1
117,35.293,-97.488,163.5,30.25,18.204,323,-2.618,2.323,8.93,1
118,35.293,-97.488,163.7,30.45,18.204,321,-2.695,2.405,8.882,1
119,35.293,-97.488,163.9,30.78,16.687,321,-2.902,2.385,8.968,1
120,35.292,-97.488,163.2,30.84,16.687,321,-2.649,2.401,8.828,1
121,35.292,-97.488,163.5,31.09,16.687,322,-2.76,2.373,8.801,0
122,35.292,-97.488,165.3,31.06,16.687,322,-2.641,2.386,9.038,0
123,35.291,-97.488,163.6,31.56,18.204,330,-2.496,2.316,8.751,1
124,35.291,-97.488,163,31.96,18.204,328,-3.146,1.788,9.115,0
125,35.291,-97.488,162.8,31.78,16.687,328,-2.556,1.615,9.251,0
126,35.291,-97.487,162.6,31.46,18.204,328,-2.809,1.76,9.129,1
127,35.29,-97.487,162.8,31.61,16.687,327,-2.864,1.855,9.337,0
128,35.29,-97.487,163.2,31.41,16.687,327,-2.866,1.693,9.319,1
129,35.29,-97.487,163.2,31.28,16.687,325,-2.63,1.737,9.242,1
130,35.29,-97.487,163.5,30.96,16.687,324,-2.68,1.634,8.882,1
131,35.289,-97.487,163.7,30.97,16.687,324,-2.692,1.713,9.146,0
132,35.289,-97.487,162.9,30.08,16.687,323,-2.886,-0.809,9.425,0
133,35.289,-97.487,163.6,30.04,16.687,322,-2.88,1.585,9.414,0
135,35.289,-97.487,163.7,29.67,16.687,321,-2.481,0.379,9.613,0
135,35.289,-97.487,163.7,29.67,16.687,321,-2.481,0.379,9.613,0
136,35.288,-97.486,164.2,24.97,16.687,324,-2.638,1.856,9.082,1
137,35.288,-97.486,164.6,24.97,16.687,324,-2.606,1.851,9.27,1
138,35.288,-97.486,165.1,24.44,16.687,325,-2.765,1.999,9.155,1
139,35.288,-97.486,165.1,23.9,16.687,325,-2.285,2.269,9.119,1
140,35.287,-97.486,165.9,24.12,16.687,326,-2.581,2.757,9.091,1
141,35.287,-97.486,166.1,24.19,16.687,327,-2.67,2.992,8.895,1
142,35.287,-97.486,167.1,24.86,18.204,327,-2.425,2.505,9.043,1
143,35.287,-97.486,168.1,26.28,16.687,327,-2.361,2.939,8.911,1
144,35.286,-97.486,168.4,26.82,16.687,326,-2.469,2.604,8.972,1
145,35.286,-97.486,168.1,27.02,18.204,327,-2.584,2.319,9.154,1
146,35.286,-97.486,170.1,26.72,19.721,326,-2.528,1.999,9.221,0
147,35.286,-97.486,173.1,27.58,19.721,325,-2.777,1.785,9.306,1
148,35.285,-97.486,171.8,27.4,19.721,326,-2.591,2.002,8.987,1
149,35.285,-97.486,172.2,27.36,19.721,326,-2.564,2.073,9.086,1
150,35.285,-97.486,174.1,28.85,19.721,325,-2.354,2.141,9.121,1
151,35.285,-97.486,173.2,28.6,19.721,321,-2.754,2.205,9.061,0
152,35.284,-97.486,176.3,28.99,18.204,321,-2.704,2.075,8.777,1
153,35.284,-97.486,175.2,27.87,18.204,319,-2.794,1.805,9.072,1
154,35.284,-97.486,174.6,27.78,18.204,319,-2.611,1.814,9.28,1
155,35.284,-97.486,172.9,27.51,18.204,318,-2.379,2.009,9.046,1
156,35.283,-97.486,174.6,27.48,18.204,317,-1.903,2.488,9.305,1
157,35.283,-97.486,175.5,27.15,19.721,318,-2.588,2.415,9.13,1
158,35.283,-97.486,176,27.64,18.204,317,-2.744,2.16,9.052,0
159,35.283,-97.486,175.2,27.87,18.204,317,-2.632,1.955,9.123,1
160,35.282,-97.486,178.6,26.68,19.721,318,-2.342,2.096,9.097,0
161,35.282,-97.486,181.1,27.51,19.721,318,-2.632,1.748,8.873,1
162,35.282,-97.486,179.4,28.94,19.721,318,-3.264,1.546,8.57,0
163,35.281,-97.486,181.2,29.91,19.721,319,-3.577,1.702,8.579,0
164,35.281,-97.486,175.2,27.63,16.687,319,-3.961,1.652,8.907,0
165,35.281,-97.486,175.2,27.51,16.687,319,-5.095,1.918,9.382,0
166,35.281,-97.485,174.5,27.4,18.204,320,-4.338,1.686,8.914,0
167,35.281,-97.485,173.1,28.34,19.721,320,-4.552,1.737,9.137,0
168,35.28,-97.485,164.6,26.85,18.204,321,-3.89,1.69,8.686,0
169,35.28,-97.485,157.7,24.87,18.204,321,-4.294,1.774,8.807,0
170,35.28,-97.485,156.2,23.98,19.721,320,-4.306,1.472,7.556,0
171,35.28,-97.485,149.5,23.26,19.721,321,-2.82,1.851,9.473,0
172,35.28,-97.485,140.4,24.01,19.721,322,-2.255,1.585,8.825,1
173,35.28,-97.484,136.5,23.15,18.204,324,-2.19,1.708,9.271,0
174,35.279,-97.484,136,22.09,18.204,324,-2.456,1.802,9.369,0
175,35.279,-97.484,134.6,21.54,16.687,324,-2.436,1.734,9.247,0
176,35.279,-97.484,134.1,21.97,18.204,326,-2.402,1.901,9.056,1
177,35.279,-97.484,132.1,20.6,18.204,327,-2.425,1.622,8.917,1
178,35.279,-97.484,129,20.83,18.204,329,-2.944,1.652,9.006,1
179,35.279,-97.483,134.8,21.11,18.204,330,-2.356,1.91,9.282,1
180,35.279,-97.483,136.4,21.41,16.687,329,-1.364,2.272,9.629,0
181,35.279,-97.483,137.5,21.45,16.687,328,-0.99,2.65,9.687,0
182,35.278,-97.483,143.5,22.27,16.687,329,-2.002,2.103,9.453,0
183,35.278,-97.483,148.4,22.73,15.17,328,-0.724,2.429,9.54,0
184,35.278,-97.483,150.2,22.94,16.687,326,-1.297,2.499,9.254,0
185,35.278,-97.483,152.6,22.91,16.687,325,-2.811,2.792,8.888,1
186,35.278,-97.483,157.2,23.72,16.687,327,-3.205,2.721,8.84,0
187,35.277,-97.482,161.1,24.44,16.687,328,-2.813,2.695,8.754,1
188,35.277,-97.482,162.1,25.41,16.687,326,-2.773,1.887,9.13,1
189,35.277,-97.482,161.8,25.09,16.687,323,-2.977,1.845,9.348,0
190,35.277,-97.482,161.9,24.75,18.204,322,-3.013,1.85,9.576,0
191,35.277,-97.482,162.6,24.94,19.721,322,-2.862,2.049,8.713,0
192,35.276,-97.482,162,25.99,19.721,320,-3.333,1.953,9.645,0
193,35.276,-97.482,165.6,25.4,19.721,320,-3.56,2.154,8.771,0
194,35.276,-97.482,170.5,26.09,19.721,317,-3.21,2.453,8.493,1
195,35.276,-97.482,167.7,27,21.238,319,-2.804,2.437,9.022,0
196,35.275,-97.482,164.1,28.29,21.238,320,-2.343,1.678,9.255,0
197,35.275,-97.482,161.6,28.15,19.721,322,-2.239,1.763,9.364,0
199,35.275,-97.482,159.8,26.98,21.238,324,-2.75,1.75,9.435,0
199,35.275,-97.482,159.8,26.98,21.238,324,-2.75,1.75,9.435,0
200,35.274,-97.481,158.4,28.38,21.238,322,-2.85,1.736,9.201,0
201,35.274,-97.481,159.7,29.46,19.721,321,-2.727,1.822,9.52,0
202,35.274,-97.481,160.8,26.23,19.721,323,-2.85,1.654,8.89,0
203,35.274,-97.481,159.8,25.48,19.721,322,-3.099,1.781,8.953,0
204,35.273,-97.481,162.5,25.88,19.721,322,-3.076,1.782,9.13,0
205,35.273,-97.481,164.3,26.67,19.721,322,-3.145,2.117,9.306,0
206,35.273,-97.481,162.5,26.3,19.721,323,-2.799,2.033,8.959,0
207,35.273,-97.481,162.4,26.19,19.721,323,-2.953,2.116,9.018,0
208,35.273,-97.481,159.6,25.29,19.721,320,-3.042,2.259,9.074,0
209,35.272,-97.48,157.3,24.12,21.238,318,-2.924,2.256,9.106,0
210,35.272,-97.48,158.8,24.4,21.238,317,-2.983,2.268,9.071,1
211,35.272,-97.48,160.1,25.13,22.755,315,-2.837,2.231,8.753,0
212,35.272,-97.48,160.9,24.59,22.755,313,-2.93,2.257,8.879,1
213,35.272,-97.48,162.6,25.69,22.755,313,-2.934,2.187,8.702,0
214,35.271,-97.48,160.7,25.08,21.238,311,-2.919,2.177,9.001,1
215,35.271,-97.48,163.5,26.18,19.721,310,-2.829,2.192,8.798,0
216,35.271,-97.48,164,26.43,19.721,311,-2.835,2.204,8.891,0
217,35.271,-97.48,164.1,26.39,19.721,312,-2.92,2.178,8.867,0
218,35.27,-97.48,164.1,26.3,19.721,313,-2.743,2.252,8.842,0
219,35.27,-97.48,163.5,26.18,18.204,311,-2.535,2.089,8.569,0
220,35.27,-97.48,164,26.45,18.204,312,-2.644,2.158,8.81,0
221,35.27,-97.479,163.6,26.22,18.204,312,-2.378,2.226,9.14,1
222,35.269,-97.479,163.3,26.45,18.204,312,-2.519,2.289,8.799,0
223,35.269,-97.479,163.4,26.46,18.204,313,-2.93,2.193,8.91,1
224,35.269,-97.479,161.9,26.34,16.687,315,-2.802,2.238,8.882,1
225,35.269,-97.479,161.3,26.59,15.17,316,-2.827,2.217,8.884,0
226,35.269,-97.479,160.8,26.89,15.17,316,-2.799,2.248,8.991,0
227,35.268,-97.479,159.5,26.38,15.17,317,-2.746,2.09,8.662,1
228,35.268,-97.479,159.8,26.88,15.17,316,-2.723,1.961,8.903,1
229,35.268,-97.479,159.7,26.89,16.687,316,-2.757,2.184,9.053,0
230,35.268,-97.479,156.1,26.74,18.204,313,-2.923,1.757,8.985,1
231,35.267,-97.478,153.3,26.37,21.238,313,-2.917,1.678,9.061,0
232,35.267,-97.478,153,26.87,27.306,313,-2.869,1.683,9.155,0
233,35.267,-97.478,155,28.84,28.823,310,-2.819,1.657,8.966,0
234,35.267,-97.478,154.5,27.13,30.34,310,-2.964,1.787,9.094,0
235,35.267,-97.478,155.5,26.75,30.34,310,-2.77,1.654,9.207,0
236,35.266,-97.478,156.5,26.84,25.789,310,-2.789,1.694,8.869,0
237,35.266,-97.478,153.3,25.35,21.238,311,-2.854,1.707,8.907,0
238,35.266,-97.478,152.1,25.14,19.721,312,-2.963,1.638,8.875,0
239,35.266,-97.478,151.4,25.01,19.721,312,-2.897,1.752,9.242,0
240,35.265,-97.477,150.5,24.92,19.721,314,-2.743,1.679,8.874,0
241,35.265,-97.477,150.3,24.56,18.204,313,-2.572,1.564,8.794,0
242,35.265,-97.477,149.1,24.65,18.204,313,-2.713,1.692,9.241,0
243,35.265,-97.477,149.4,24.38,16.687,311,-2.812,1.635,8.923,0
244,35.265,-97.477,148.4,23.66,16.687,312,-2.923,2.08,9.032,0
245,35.265,-97.477,147.2,23.63,16.687,313,-2.744,2.088,8.92,0
246,35.264,-97.477,146.8,23.33,16.687,313,-2.761,2.257,9.013,0
247,35.264,-97.476,146.4,23.33,16.687,311,-2.681,2.131,9.108,0
248,35.264,-97.476,144.1,23.49,15.17,312,-2.442,2.105,9.243,0
249,35.264,-97.476,143.8,23.25,15.17,308,-2.528,2.088,8.845,0
250,35.264,-97.476,144.4,23.1,15.17,310,-2.643,2.154,8.836,0
251,35.264,-97.476,144.1,23.01,15.17,310,-2.621,2.462,8.78,1
252,35.263,-97.476,143.3,23.44,15.17,313,-2.702,2.506,8.623,1
253,35.263,-97.476,144.4,23.66,15.17,314,-2.973,2.592,8.997,0
254,35.263,-97.475,143.9,24.06,15.17,315,-2.843,2.525,8.692,1
255,35.263,-97.475,143.3,24.41,15.17,315,-2.842,2.579,8.871,0
257,35.263,-97.475,143.3,24.92,15.17,316,-2.773,2.459,8.455,0
257,35.263,-97.475,143.3,24.92,15.17,316,-2.773,2.459,8.455,0
258,35.262,-97.475,144.1,25.4,15.17,311,-2.947,2.312,9.079,0
259,35.262,-97.475,144.3,25.62,15.17,310,-2.953,1.754,9.073,0
260,35.262,-97.474,144.1,25.36,15.17,309,-2.931,1.571,8.876,0
261,35.262,-97.474,143.3,24.84,15.17,309,-3.131,1.691,8.9,0
262,35.262,-97.474,143.4,24.54,15.17,309,-2.943,1.638,8.989,0
263,35.261,-97.474,142.9,24.14,15.17,310,-2.817,1.73,9.027,1
264,35.261,-97.474,143.2,23.81,15.17,311,-2.882,2.099,9.081,1
265,35.261,-97.474,143.1,23.86,15.17,312,-2.803,2.168,9.026,0
266,35.261,-97.473,143.2,23.59,15.17,311,-2.843,2.24,8.882,0
267,35.261,-97.473,142.9,23.84,15.17,311,-2.775,2.301,9.114,1
268,35.261,-97.473,143.6,24.01,13.653,312,-2.851,2.254,8.854,1
269,35.26,-97.473,143.7,24.25,15.17,312,-3.089,2.252,9.049,0
270,35.26,-97.473,142.8,24.49,13.653,313,-2.919,2.214,8.984,1
271,35.26,-97.473,143.3,24.55,13.653,316,-2.886,1.986,8.683,1
272,35.26,-97.472,143.6,24.42,15.17,316,-2.677,1.905,8.764,1
273,35.26,-97.472,143.1,24.37,13.653,318,-2.883,1.857,9.22,0
274,35.259,-97.472,143.5,24.33,13.653,318,-2.774,2.143,9.001,0
275,35.259,-97.472,144.2,24.38,13.653,318,-2.962,1.711,9.077,0
276,35.259,-97.472,144.3,24.14,13.653,319,-3.115,1.656,9.184,0
277,35.259,-97.472,144.4,23.73,13.653,318,-2.85,1.664,9.055,0
278,35.259,-97.472,144,23.36,13.653,318,-3.14,1.856,8.985,0
279,35.259,-97.471,143.8,23.11,15.17,317,-3.025,1.995,8.694,0
280,35.258,-97.471,144,22.91,15.17,316,-2.988,2.165,8.987,1
281,35.258,-97.471,143.6,22.96,15.17,316,-2.917,2.26,8.913,0
282,35.258,-97.471,143.6,23.1,15.17,316,-2.833,2.393,8.895,0
283,35.258,-97.471,143.9,23.25,15.17,315,-2.981,2.514,8.927,1
284,35.258,-97.471,143.2,23.56,15.17,314,-2.84,2.236,9.015,1
285,35.258,-97.47,143.6,23.74,15.17,313,-3.037,2.329,8.946,1
286,35.257,-97.47,143.5,23.97,15.17,312,-2.854,2.165,8.827,1
287,35.257,-97.47,143.7,24.05,15.17,312,-2.974,2.208,8.786,1
288,35.257,-97.47,144.1,24.17,15.17,312,-2.877,2.276,8.895,1
289,35.257,-97.47,143.4,24.45,15.17,311,-2.82,2.216,9.058,1
290,35.257,-97.47,143.3,24.77,15.17,311,-2.839,1.913,9.148,0
291,35.257,-97.469,143.9,24.74,15.17,311,-2.806,2.085,8.992,1
292,35.256,-97.469,143.1,24.62,15.17,311,-2.842,2.079,8.616,0
293,35.256,-97.469,143.2,24.68,15.17,311,-2.817,2.156,8.866,0
294,35.256,-97.469,143.4,24.82,15.17,309,-2.989,1.87,9.184,0
295,35.256,-97.469,143.8,25,15.17,309,-2.911,1.615,8.84,0
296,35.256,-97.469,143.8,24.78,15.17,310,-2.995,1.736,9.087,1
297,35.256,-97.469,143.1,24.67,15.17,309,-2.939,1.652,9.033,0
298,35.255,-97.468,143,24.29,15.17,311,-3.048,1.758,9.284,1
299,35.255,-97.468,143.1,24.04,15.17,311,-2.868,1.668,8.929,1
300,35.255,-97.468,143.3,23.65,15.17,311,-2.854,1.856,9.051,1
301,35.255,-97.468,142.9,23.31,15.17,308,-2.83,1.967,9.3,1
302,35.255,-97.468,142.8,23.41,15.17,310,-2.863,1.861,8.917,0
303,35.254,-97.468,143.5,23.05,15.17,310,-3.024,1.873,9.256,1
304,35.254,-97.467,144.4,23.12,15.17,311,-2.852,1.872,8.907,0
305,35.254,-97.467,143.8,23.07,15.17,311,-2.847,2.072,8.922,0
306,35.254,-97.467,143.5,22.82,15.17,313,-2.842,2.211,9.011,0
307,35.254,-97.467,143.3,22.95,15.17,312,-2.939,2.22,9.044,1
308,35.254,-97.467,143.6,23.26,15.17,312,-2.919,2.161,8.841,1
309,35.253,-97.467,143.8,23.31,15.17,312,-2.562,2.101,8.994,1
310,35.253,-97.467,143.1,23.65,15.17,312,-2.724,2.124,8.823,0
311,35.253,-97.466,143.8,23.78,15.17,313,-3.001,2.152,8.881,1
312,35.253,-97.466,144,24,15.17,314,-2.978,2.068,8.945,1
313,35.253,-97.466,143.8,24.31,15.17,314,-2.997,2.19,9.294,0
314,35.253,-97.466,143.8,24.23,15.17,314,-2.848,1.679,9.109,1
316,35.252,-97.466,143.4,24.36,13.653,314,-2.943,2.093,9.178,0
316,35.252,-97.466,143.4,24.36,13.653,314,-2.943,2.093,9.178,0
317,35.252,-97.465,143.7,24.18,15.17,315,-3.151,2.046,8.916,0
318,35.252,-97.465,143.7,24.14,15.17,314,-2.982,1.68,8.915,1
319,35.252,-97.465,143.5,24.12,15.17,314,-3.011,1.924,9.224,0
320,35.252,-97.465,143.3,23.93,15.17,313,-2.819,1.849,9.054,1
321,35.251,-97.465,143.4,23.8,15.17,314,-2.893,1.886,8.969,1
322,35.251,-97.465,143.6,23.72,15.17,314,-2.911,2.074,9.164,0
323,35.251,-97.464,143.7,23.44,15.17,313,-2.951,2.227,8.96,0
324,35.251,-97.464,143.6,23.66,15.17,312,-3.011,1.694,8.993,0
325,35.251,-97.464,143.8,23.42,15.17,312,-3.018,1.746,8.972,0
326,35.25,-97.464,143,23.19,15.17,314,-3.111,1.666,9.126,0
327,35.25,-97.464,143.9,22.68,15.17,313,-3.028,1.689,9.034,0
328,35.25,-97.464,143.1,22.21,15.17,313,-2.897,1.683,8.881,0
329,35.25,-97.464,143.5,21.83,15.17,314,-2.731,1.674,9.028,0
330,35.25,-97.463,143.2,21.09,15.17,315,-3.052,1.77,9.35,0
331,35.25,-97.463,144.1,20.47,15.17,316,-2.907,1.718,9.016,1
332,35.25,-97.463,143.4,20.24,15.17,316,-3.025,1.671,8.973,0
333,35.249,-97.463,143.1,19.79,15.17,315,-2.997,1.695,8.938,0
334,35.249,-97.463,142.5,19.37,15.17,314,-2.919,2.074,9.11,0
335,35.249,-97.463,143.1,19.03,15.17,315,-2.894,1.737,9.203,1
336,35.249,-97.463,143.6,18.87,15.17,315,-2.686,1.677,9.058,0
337,35.249,-97.463,144,18.37,16.687,313,-2.963,1.781,9.235,1
338,35.249,-97.462,144.7,18.07,16.687,314,-2.913,1.736,9.202,1
339,35.249,-97.462,144.2,17.55,15.17,315,-2.908,1.746,9.086,1
340,35.249,-97.462,143.9,17.18,15.17,316,-2.944,1.28,9.147,1
341,35.248,-97.462,142.8,17.04,15.17,316,-2.997,0.104,9.589,0
342,35.248,-97.462,144.9,15.17,15.17,314,-3.026,0.05,9.773,0
343,35.248,-97.462,144.1,13.16,16.687,313,-3.059,1.262,9.478,0
344,35.248,-97.462,144.1,10.99,16.687,314,-2.924,1.722,9.234,1
345,35.248,-97.462,144.3,10.38,16.687,313,-3.055,-0.368,9.643,0
346,35.248,-97.462,143.8,8.75,16.687,313,-2.917,1.071,9.344,0
347,35.248,-97.462,143.3,6.74,16.687,312,-2.863,1.851,9.048,1
348,35.248,-97.462,142.7,5.66,16.687,312,-2.93,1.528,9.19,1
349,35.248,-97.462,144.6,5.43,16.687,312,-2.899,2.517,9.005,1
350,35.248,-97.462,145.1,5.19,16.687,311,-2.747,3.191,8.76,1
351,35.248,-97.462,146.5,5.53,16.687,312,-2.752,3.855,8.581,1
352,35.248,-97.462,143.6,6.55,15.17,311,-2.639,3.162,8.706,1
353,35.248,-97.462,143.5,8.41,15.17,311,-2.872,2.966,8.782,1
354,35.248,-97.461,144,9.49,15.17,313,-2.843,2.504,8.946,1
355,35.248,-97.461,144,10.15,16.687,312,-2.81,2.614,8.875,1
356,35.247,-97.461,142.2,10.59,15.17,311,-2.75,3.017,8.707,1
357,35.247,-97.461,143,11.07,15.17,313,-2.645,2.963,8.523,1
358,35.247,-97.461,142.7,12.02,15.17,312,-2.733,2.948,8.636,1
359,35.247,-97.461,144.1,12.82,15.17,311,-2.884,2.97,8.753,1
360,35.247,-97.461,143.5,13.73,15.17,310,-2.674,2.355,8.944,1
361,35.247,-97.461,142.9,14.57,15.17,310,-2.766,2.518,8.949,1
362,35.247,-97.461,143.5,15.02,15.17,311,-2.979,2.634,8.747,1
363,35.247,-97.461,144,15.51,15.17,311,-2.828,2.717,8.868,1
364,35.247,-97.461,144.1,16.09,15.17,313,-2.573,2.798,8.56,1
365,35.246,-97.46,143.3,16.92,15.17,313,-2.498,2.866,8.887,1
366,35.246,-97.46,143.7,17.81,15.17,316,-2.694,2.906,8.902,1
367,35.246,-97.46,144.8,18.64,15.17,316,-2.715,2.85,9.017,1
368,35.246,-97.46,145.3,19.14,15.17,317,-2.594,2.278,8.938,1
369,35.246,-97.46,145.2,19.3,16.687,318,-2.44,1.911,9.061,1
370,35.246,-97.46,146.4,19.61,16.687,321,-2.732,2.19,9.286,0
371,35.246,-97.46,147.8,19.63,18.204,321,-2.733,2.22,9.063,1
373,35.245,-97.46,148.2,22.12,19.721,320,-2.709,2.005,9.141,1
373,35.245,-97.46,148.2,22.12,19.721,320,-2.709,2.005,9.141,1
374,35.245,-97.459,148.6,20.55,18.204,318,-2.9,2.172,9.22,1
375,35.245,-97.459,149.4,20.97,18.204,318,-2.668,2.092,9.315,0
376,35.245,-97.459,151.7,20.52,18.204,316,-2.663,1.96,8.997,1
377,35.245,-97.459,152,20.13,18.204,316,-2.678,2,9.074,1
378,35.244,-97.459,151.1,20.64,18.204,317,-2.524,1.978,9.108,0
379,35.244,-97.459,152.9,20.63,18.204,317,-2.842,1.712,8.888,1
380,35.244,-97.459,153.5,20.52,18.204,317,-2.805,1.958,8.76,0
381,35.244,-97.459,153.2,19.99,18.204,315,-3.062,2.238,8.994,1
382,35.244,-97.459,152.8,19.61,18.204,315,-2.909,2.19,8.884,1
383,35.244,-97.458,152.7,19.71,18.204,315,-2.889,2.249,8.788,1
384,35.243,-97.458,151.7,20.51,16.687,316,-2.976,2.381,9.031,1
385,35.243,-97.458,152.4,20.78,16.687,316,-2.987,2.35,8.824,1
386,35.243,-97.458,152.8,21.51,16.687,316,-2.762,2.39,8.821,1
387,35.243,-97.458,153.3,22.08,16.687,316,-2.771,2.483,9.047,1
388,35.243,-97.458,153.9,22.46,16.687,317,-2.955,2.529,8.969,1
389,35.243,-97.458,152.4,21.68,16.687,316,-2.94,2.043,8.933,0
390,35.242,-97.458,152.8,21.48,16.687,317,-2.949,2.163,8.856,1
391,35.242,-97.458,152.8,21.69,16.687,317,-3.03,2.236,9.278,0
392,35.242,-97.457,152.5,22.03,16.687,318,-2.901,1.772,8.86,0
393,35.242,-97.457,152.2,22.21,16.687,318,-2.786,1.737,9.188,0
394,35.242,-97.457,151.9,21.77,16.687,318,-3.007,1.77,9.303,0
395,35.242,-97.457,152.1,21.54,16.687,321,-2.904,1.978,8.946,0
396,35.241,-97.457,152.4,21.55,16.687,320,-2.878,2.238,9.196,1
397,35.241,-97.457,153,21.39,18.204,320,-2.807,2.3,9.2,1
398,35.241,-97.457,152.9,21.87,18.204,321,-2.889,1.878,8.969,1
399,35.241,-97.457,153.2,21.41,16.687,320,-2.944,2.1,8.868,1
400,35.241,-97.457,153.1,21.14,16.687,320,-2.914,2.068,9.104,1
401,35.24,-97.456,153.1,21.4,16.687,319,-2.98,1.801,9.066,1
402,35.24,-97.456,152.8,21.29,16.687,321,-2.967,2.049,9.147,1
403,35.24,-97.456,152.1,21.01,18.204,318,-2.874,1.977,8.909,1
404,35.24,-97.456,152.6,20.91,16.687,320,-2.86,1.932,8.931,1
405,35.24,-97.456,152,20.38,18.204,320,-2.877,1.97,8.932,1
406,35.24,-97.456,151.6,20.21,18.204,321,-2.798,2.051,9.154,1
407,35.239,-97.456,152.9,20.29,18.204,321,-2.769,2.088,8.995,0
408,35.239,-97.456,152.7,20,18.204,321,-2.832,2.117,8.781,1
409,35.239,-97.456,152.5,19.84,18.204,321,-2.746,2.114,9.17,1
410,35.239,-97.456,152.6,19.83,16.687,322,-2.83,2.195,9.024,1
411,35.239,-97.455,153.2,20.26,16.687,321,-2.952,2.221,9.075,0
412,35.239,-97.455,153.1,20.09,16.687,322,-2.923,1.802,9.205,0
413,35.239,-97.455,152.9,20.09,16.687,322,-2.728,1.964,9.186,0
414,35.238,-97.455,153.2,20.77,16.687,325,-2.453,2.076,9.071,1
415,35.238,-97.455,154.2,20.59,16.687,323,-2.336,1.917,9.165,1
416,35.238,-97.455,154.8,20.62,18.204,323,-2.611,2.034,9.209,1
417,35.238,-97.455,154.4,20.22,19.721,323,-2.82,2.245,9.176,1
418,35.238,-97.455,151.4,18.19,21.238,321,-2.821,1.699,8.961,1
419,35.238,-97.455,151.7,18.53,21.238,319,-2.838,1.928,9.298,0
420,35.238,-97.455,156.3,18.39,21.238,321,-2.818,2.091,9.236,1
421,35.237,-97.455,159.8,19.74,21.238,317,-2.787,2.219,9.102,1
422,35.237,-97.455,161.7,19.42,21.238,318,-2.583,2.138,9.037,1
423,35.237,-97.454,161.9,20.47,21.238,318,-2.529,2.3,9.016,1
424,35.237,-97.454,161,19.78,18.204,319,-2.685,2.543,8.838,1
425,35.237,-97.454,162.5,20.12,18.204,320,-2.895,2.643,8.903,1
426,35.236,-97.454,162.5,20.36,18.204,320,-2.827,2.556,8.952,1
428,35.236,-97.454,162.6,20.91,18.204,321,-2.884,2.482,8.877,1
428,35.236,-97.454,162.6,20.91,18.204,321,-2.884,2.482,8.877,1
429,35.236,-97.454,163.2,21.08,18.204,324,-2.635,1.705,9.041,1
430,35.236,-97.454,163.3,21.4,18.204,326,-2.766,1.716,9.046,1
431,35.236,-97.454,162.8,20.74,19.721,328,-2.914,1.724,9.296,1
432,35.235,-97.454,164.4,20.51,18.204,327,-2.905,1.67,9.05,0
433,35.235,-97.454,164.3,20.61,18.204,328,-2.901,1.807,9.435,0
434,35.235,-97.454,165.2,20.62,18.204,329,-2.13,1.711,9.272,1
435,35.235,-97.454,166,19.98,18.204,328,-1.555,1.68,9.304,0
436,35.235,-97.454,169.2,19.29,16.687,329,-2.11,1.672,9.268,0
437,35.234,-97.454,172.8,18.77,16.687,331,-3.341,1.827,9.126,1
438,35.234,-97.454,173.5,18.83,15.17,329,-3.936,1.031,8.945,0
439,35.234,-97.454,171.6,18.55,16.687,331,-2.77,0.513,9.776,0
440,35.234,-97.454,168.1,16.08,16.687,332,-1.376,0.694,9.641,0
441,35.234,-97.453,171.4,14.44,15.17,334,-1.415,0.756,9.701,0
442,35.234,-97.453,171,14.14,16.687,332,-2.601,-0.054,9.57,0
443,35.234,-97.453,172.7,13.75,16.687,332,-2.69,0.333,9.702,0
444,35.233,-97.453,169.8,12.68,18.204,329,-2.663,0.215,9.681,0
445,35.233,-97.453,164,12.6,19.721,329,-2.783,0.199,9.527,0
446,35.233,-97.453,170,10.33,19.721,328,-2.677,0.639,9.575,0
447,35.233,-97.453,172.2,8.25,19.721,329,-2.563,1.784,9.189,0
448,35.233,-97.453,166.9,5.84,19.721,330,-2.572,1.673,9.224,1
449,35.233,-97.453,186.1,4.33,19.721,330,-2.642,0.299,9.396,0
450,35.233,-97.453,176.4,3.81,19.721,330,-2.593,1.048,9.397,0
451,35.233,-97.453,179.7,2.23,19.721,330,-2.529,1.463,9.17,1
452,35.233,-97.453,216.1,1.62,19.721,331,-2.562,1.906,9.163,1
453,35.233,-97.453,201.7,0.85,18.204,329,-2.504,1.891,9.109,1
454,35.233,-97.453,41.5,0.28,18.204,328,-2.544,1.887,9.185,1
455,35.233,-97.453,0,0,18.204,329,-2.545,1.89,9.147,1
456,35.233,-97.453,265.5,0.98,18.204,329,-2.567,1.888,9.202,1
457,35.233,-97.453,26.3,0.82,19.721,329,-2.563,1.899,9.136,1
458,35.233,-97.453,281.8,0.96,18.204,329,-2.573,1.9,9.168,1
459,35.233,-97.453,251,0.55,18.204,329,-2.545,1.893,9.183,1
460,35.233,-97.453,223,1.61,18.204,329,-2.548,1.904,9.177,1
461,35.233,-97.453,223,1.61,18.204,329,-2.534,1.884,9.131,1
462,35.233,-97.453,317,1.17,19.721,330,-2.56,1.889,9.176,1
463,35.233,-97.453,30.2,0.64,19.721,331,-2.577,1.894,9.206,1
464,35.233,-97.453,94.5,1.42,19.721,331,-2.545,1.886,9.161,1
465,35.233,-97.453,131.1,1.77,18.204,330,-2.564,1.897,9.175,1
466,35.233,-97.453,146.5,0.75,18.204,329,-2.533,1.871,9.168,1
467,35.233,-97.453,146.5,0.75,18.204,329,-2.529,1.921,9.192,1
468,35.233,-97.453,337.4,1.88,18.204,331,-2.562,1.891,9.131,1
469,35.233,-97.453,337.4,1.88,18.204,331,-2.536,1.899,9.202,1
470,35.233,-97.453,349.6,0.89,18.204,329,-2.534,1.884,9.166,1
471,35.233,-97.453,327.4,1.07,18.204,327,-2.538,1.897,9.163,1
472,35.233,-97.453,310.3,1.81,18.204,325,-2.51,1.897,9.106,1
473,35.233,-97.453,318.5,1.35,18.204,325,-2.589,1.901,9.187,1
474,35.233,-97.453,318.5,1.35,18.204,325,-2.532,1.902,9.15,1
475,35.233,-97.453,244,1.13,18.204,322,-2.519,1.894,9.144,1
476,35.233,-97.453,149.9,1.46,18.204,323,-2.556,1.915,9.204,1
477,35.233,-97.453,147.8,0.28,18.204,323,-2.569,1.892,9.182,1
478,35.233,-97.453,169.1,1.44,18.204,324,-2.53,1.907,9.115,1
479,35.233,-97.453,176,1.98,16.687,323,-2.558,1.905,9.209,1
480,35.233,-97.453,189,1.35,18.204,323,-2.54,1.883,9.105,1
481,35.233,-97.453,189,1.35,18.204,323,-2.539,1.898,9.12,1
482,35.233,-97.453,189,1.35,18.204,323,-2.553,1.88,9.141,1
483,35.233,-97.453,189,1.35,18.204,323,-2.571,1.905,9.151,1
485,35.233,-97.453,5.4,1.69,18.204,325,-2.56,1.885,9.14,1
485,35.233,-97.453,5.4,1.69,18.204,325,-2.56,1.885,9.14,1
486,35.233,-97.453,44,1.55,16.687,324,-2.558,1.909,9.148,1
487,35.233,-97.453,33.2,1.01,18.204,325,-2.575,1.889,9.148,1
488,35.233,-97.453,6.1,0.56,18.204,326,-2.586,1.89,9.165,1
489,35.233,-97.453,310.6,1.14,16.687,326,-2.55,1.901,9.165,1
490,35.233,-97.453,295.3,0.85,18.204,325,-2.472,1.881,9.114,1
491,35.233,-97.453,295.3,0.85,18.204,325,-2.483,1.901,9.183,1
492,35.233,-97.453,132.4,1.16,18.204,327,-2.471,1.904,9.15,1
493,35.233,-97.453,162.1,2.13,16.687,327,-2.514,1.894,9.194,1
494,35.233,-97.453,170.9,1.09,16.687,327,-2.547,1.88,9.118,1
495,35.233,-97.453,189.9,1.04,16.687,326,-2.568,1.912,9.169,1
496,35.233,-97.453,249.5,1.32,16.687,327,-2.521,1.895,9.159,1
497,35.233,-97.453,314.3,1.31,16.687,328,-2.553,1.902,9.086,1
498,35.233,-97.453,341.9,1.32,16.687,329,-2.455,1.892,9.107,1
499,35.233,-97.453,1.4,1.37,18.204,329,-2.553,1.903,9.151,1
500,35.233,-97.453,34,1.25,18.204,328,-2.545,1.892,9.153,1
501,35.233,-97.453,69.3,0.75,18.204,329,-2.551,1.894,9.159,1
502,35.233,-97.453,139.9,1.51,18.204,330,-2.585,1.88,9.184,1
503,35.233,-97.453,199.6,2.25,16.687,330,-2.547,1.903,9.178,1
504,35.233,-97.453,223.1,2.01,16.687,329,-2.54,1.902,9.185,1
505,35.233,-97.453,243.8,2.04,16.687,329,-2.547,1.888,9.14,1
506,35.233,-97.454,268.5,1.38,18.204,330,-2.57,1.899,9.198,1
507,35.233,-97.454,284.5,0.69,18.204,331,-2.518,1.905,9.132,1
508,35.233,-97.454,284.5,0.69,18.204,331,-2.537,1.896,9.134,1
509,35.233,-97.454,183.2,1.17,16.687,331,-2.561,1.893,9.167,1
510,35.233,-97.453,123.9,1.44,18.204,333,-2.535,1.887,9.124,1
511,35.233,-97.453,106.3,1.16,18.204,333,-2.552,1.913,9.182,1
512,35.233,-97.453,74.4,1.45,18.204,332,-2.569,1.895,9.194,1
513,35.233,-97.453,76.4,0.89,18.204,332,-2.586,1.892,9.188,1
514,35.233,-97.453,90.6,1.82,18.204,333,-2.514,1.911,9.147,1
515,35.233,-97.453,116.3,1.68,18.204,332,-2.543,1.904,9.18,1
516,35.233,-97.453,135.9,1.31,18.204,332,-2.543,1.898,9.144,1
517,35.233,-97.453,188.1,2.65,18.204,331,-2.522,1.905,9.156,1
518,35.233,-97.453,203.1,1.05,18.204,331,-2.566,1.898,9.191,1
519,35.233,-97.453,212.6,1.49,16.687,332,-2.525,1.9,9.108,1
520,35.233,-97.453,207.3,1.92,16.687,332,-2.55,1.9,9.169,1
521,35.233,-97.453,217.7,2.33,18.204,332,-2.534,1.9,9.13,1
522,35.233,-97.453,237.3,1.87,18.204,334,-2.544,1.896,9.154,1
523,35.233,-97.453,280.4,2.05,18.204,334,-2.552,1.882,9.137,1
524,35.233,-97.454,328.1,1.35,18.204,335,-2.561,1.897,9.176,1
525,35.233,-97.453,8.9,2.28,18.204,336,-2.573,1.89,9.173,1
526,35.233,-97.453,27.9,2.11,18.204,336,-2.537,1.906,9.163,1
527,35.233,-97.453,31.4,0.64,18.204,336,-2.557,1.869,9.139,1
528,35.233,-97.453,14.3,0.81,18.204,337,-2.563,1.902,9.178,1
529,35.233,-97.453,346.4,1.07,18.204,336,-2.539,1.887,9.125,1
530,35.233,-97.453,316.4,0.73,18.204,336,-2.554,1.897,9.165,1
531,35.233,-97.453,316.4,0.73,18.204,336,-2.537,1.885,9.163,1
532,35.233,-97.453,193,0.71,18.204,334,-2.554,1.886,9.156,1
533,35.233,-97.453,138.8,1.02,18.204,335,-2.532,1.899,9.149,1
534,35.233,-97.453,105.3,1.06,18.204,335,-2.575,1.903,9.176,1
535,35.233,-97.453,105.3,1.46,18.204,335,-2.521,1.896,9.103,1
536,35.233,-97.453,105.3,1.46,18.204,335,-2.554,1.895,9.155,1
538,35.233,-97.453,226.1,1.31,18.204,334,-2.486,1.925,9.124,1
538,35.233,-97.453,226.1,1.31,18.204,334,-2.486,1.925,9.124,1
539,35.233,-97.453,276.8,1.06,18.204,335,-2.584,1.892,9.196,1
540,35.233,-97.453,295.6,0.67,16.687,335,-2.579,1.899,9.189,1
541,35.233,-97.453,295.6,0.67,16.687,335,-2.53,1.901,9.116,1
542,35.233,-97.454,213.2,0.96,16.687,333,-2.539,1.894,9.139,1
543,35.233,-97.454,186.1,1.05,18.204,332,-2.538,1.913,9.182,1
544,35.233,-97.453,172.1,0.96,16.687,334,-2.538,1.895,9.196,1
545,35.233,-97.453,177.7,1.29,16.687,334,-2.556,1.906,9.168,1
546,35.233,-97.453,180.3,1.45,16.687,334,-2.555,1.906,9.199,1
547,35.233,-97.453,173.9,0.9,16.687,334,-2.553,1.887,9.192,1
548,35.233,-97.453,125.8,1.65,18.204,334,-2.519,1.91,9.104,1
549,35.233,-97.453,96.6,1.2,18.204,335,-2.544,1.885,9.127,1
550,35.233,-97.453,64.6,1.54,18.204,337,-2.563,1.895,9.193,1
551,35.233,-97.453,54.4,1.71,18.204,337,-2.555,1.897,9.161,1
552,35.233,-97.453,38.2,1.18,18.204,337,-2.54,1.897,9.164,1
553,35.233,-97.453,41,1.57,18.204,337,-2.543,1.892,9.138,1
554,35.233,-97.453,38.1,1.11,18.204,337,-2.531,1.884,9.14,1
555,35.233,-97.453,40.9,0.84,18.204,339,-2.533,1.89,9.162,1
556,35.233,-97.453,36.3,0.85,18.204,340,-2.528,1.903,9.135,1
557,35.233,-97.453,36.3,0.85,18.204,340,-2.546,1.893,9.144,1
558,35.233,-97.453,36.3,0.85,18.204,340,-2.579,1.881,9.146,1
559,35.233,-97.453,36.3,0.85,18.204,340,-2.527,1.921,9.167,1
560,35.233,-97.453,251.4,1.48,18.204,338,-2.543,1.895,9.19,1
561,35.233,-97.453,245.4,1.62,16.687,338,-2.57,1.883,9.112,1
562,35.233,-97.453,232.5,1.78,18.204,339,-2.523,1.897,9.131,1
563,35.233,-97.453,231.3,1.04,16.687,341,-2.515,2.511,9.021,1
564,35.233,-97.453,231.3,1.04,16.687,341,-2.417,3.415,8.754,1
565,35.233,-97.453,231.3,1.04,16.687,341,-2.408,3.673,8.563,1
566,35.233,-97.453,219.4,0.97,18.204,346,-2.573,3.748,8.72,1
567,35.233,-97.453,190.5,3.16,16.687,345,-2.97,3.255,8.702,1
568,35.233,-97.453,185.9,3.66,16.687,344,-3.552,2.552,8.377,0
569,35.233,-97.453,182.7,3.66,16.687,344,-3.555,2.033,8.842,0
570,35.233,-97.453,180.6,4.03,16.687,343,-4.382,2.041,8.556,0
571,35.233,-97.453,151.2,7.14,16.687,342,-5.379,1.942,8.306,0
572,35.233,-97.453,135.3,7.75,15.17,342,-5.496,1.876,8.017,0
573,35.233,-97.453,119.1,8.42,15.17,341,-4.47,2.491,8.235,0
574,35.233,-97.453,101.6,8.59,15.17,343,-3.056,2.948,8.59,1
575,35.233,-97.453,90.4,9.58,15.17,342,-2.747,2.948,8.913,1
576,35.233,-97.453,90.8,11.3,15.17,341,-2.69,2.873,8.743,1
577,35.233,-97.453,86.2,12.3,15.17,341,-2.828,2.889,8.89,0
578,35.233,-97.452,87.5,13.6,15.17,341,-2.915,2.375,8.983,0
579,35.233,-97.452,88.4,14.75,15.17,341,-2.97,2.423,8.933,1
580,35.233,-97.452,88.1,15.54,15.17,337,-2.68,2.285,8.582,0
581,35.233,-97.452,89.5,16.18,15.17,336,-2.537,2.018,9.138,0
582,35.233,-97.452,89.6,16.8,15.17,336,-2.705,1.998,8.652,0
583,35.233,-97.452,90,16.92,15.17,334,-2.854,1.723,9.162,0
584,35.233,-97.451,90,17.07,15.17,334,-3.113,2.388,9.436,0
585,35.233,-97.451,89.9,16.82,16.687,336,-2.889,2.226,8.994,0
586,35.233,-97.451,91,17.34,16.687,335,-2.759,2.175,9.16,0
587,35.233,-97.451,90.7,16.91,15.17,335,-2.612,2.375,9.145,0
588,35.233,-97.451,90.1,17.5,15.17,335,-2.785,2.564,8.939,0
589,35.233,-97.451,91.9,17.31,15.17,334,-2.817,2.542,9.01,0
590,35.233,-97.45,90.9,17.05,15.17,333,-2.821,2.5,8.869,0
592,35.233,-97.45,90.3,17.21,15.17,331,-2.748,2.474,9.017,0
592,35.233,-97.45,90.3,17.21,15.17,331,-2.748,2.474,9.017,0
593,35.233,-97.45,90.1,17.5,15.17,329,-2.626,2.51,8.725,1
594,35.233,-97.45,90.9,17.4,15.17,331,-2.509,3.015,8.525,0
595,35.233,-97.449,88.7,17.37,15.17,330,-2.626,2.917,8.864,1
596,35.233,-97.449,90,18.1,15.17,332,-3.017,2.931,8.583,1
597,35.233,-97.449,90.7,18.94,15.17,332,-2.892,3.194,8.703,1
598,35.233,-97.449,90.6,19.35,16.687,332,-2.371,3.577,8.475,1
599,35.233,-97.449,90.7,21.03,15.17,331,-2.543,3.102,8.747,1
600,35.233,-97.448,89.6,21.14,16.687,332,-2.709,2.527,9.463,0
601,35.233,-97.448,89.4,22.35,18.204,333,-2.822,1.699,8.892,0
602,35.233,-97.448,89.5,22.84,16.687,332,-2.994,2.051,9.128,0
603,35.233,-97.448,89.8,23.04,16.687,329,-2.758,2.285,9.493,0
604,35.233,-97.447,89.9,23.3,18.204,328,-2.707,2.244,9.189,0
605,35.233,-97.447,89.8,23.33,18.204,328,-2.597,2.143,9.134,1
606,35.233,-97.447,90.2,23.57,19.721,328,-2.788,1.942,8.896,1
607,35.233,-97.446,91.1,23.46,18.204,326,-2.846,1.691,9.165,1
608,35.233,-97.446,90.2,23.25,18.204,326,-2.725,1.808,9.36,0
609,35.233,-97.446,90.4,23.04,18.204,326,-2.402,1.626,9.144,0
610,35.233,-97.446,90.4,22.57,16.687,326,-2.862,1.834,9.06,1
611,35.233,-97.445,90.5,22.59,16.687,327,-2.898,1.923,8.937,1
612,35.233,-97.445,90.5,22.4,16.687,326,-2.949,1.758,9.183,0
613,35.233,-97.445,90.8,22.42,16.687,327,-2.925,1.733,9.34,0
614,35.233,-97.445,91.2,22.83,16.687,326,-3.059,2.042,10.241,0
615,35.233,-97.444,89.6,21.21,16.687,328,-2.933,1.688,9.039,0
616,35.233,-97.444,89.7,21.06,16.687,328,-2.897,1.724,9.218,0
617,35.233,-97.444,90.4,21.05,16.687,329,-2.855,1.706,9.185,1
618,35.233,-97.444,91.3,20.27,16.687,329,-2.943,1.716,9.188,0
619,35.233,-97.444,91.1,20.09,16.687,329,-3.033,1.747,9.181,1
620,35.233,-97.443,90.9,19.97,16.687,330,-2.812,1.72,9.198,1
621,35.233,-97.443,91.7,19.35,16.687,329,-2.853,1.719,9.085,1
622,35.233,-97.443,92.1,18.9,18.204,328,-2.806,0.715,9.097,0
623,35.233,-97.443,93.9,19.49,19.721,332,-3.003,-0.479,9.634,0
624,35.233,-97.443,93.3,18.7,19.721,331,-3.1,-0.961,9.994,0
625,35.233,-97.442,91.3,14.11,18.204,330,-2.955,1.778,9.161,1
626,35.233,-97.442,91.7,12.61,16.687,329,-2.999,1.683,8.958,1
627,35.233,-97.442,92.2,12.39,18.204,329,-2.886,1.701,9.112,1
628,35.233,-97.442,90.9,12.09,18.204,329,-2.936,0.594,9.33,0
629,35.233,-97.442,92.3,11.12,19.721,330,-2.926,1.136,9.284,1
630,35.233,-97.442,92.6,9.05,18.204,329,-2.921,1.193,9.298,1
631,35.233,-97.442,88.8,8.02,16.687,329,-3.029,0.58,9.359,0
632,35.233,-97.442,90.1,7.72,16.687,328,-3.005,0.47,9.479,0
633,35.233,-97.442,90.4,6.8,18.204,326,-2.943,0.979,9.292,0
634,35.233,-97.442,89.4,5.78,18.204,326,-2.961,0.883,9.394,1
635,35.233,-97.442,91.4,4.82,18.204,326,-3.019,0.845,9.41,1
636,35.233,-97.442,106.3,2.72,19.721,327,-2.871,2.087,9.018,1
637,35.233,-97.442,134.9,0.7,18.204,326,-2.888,2.077,9.049,1
638,35.233,-97.442,84.9,0.2,18.204,327,-2.836,2.076,8.978,1
639,35.233,-97.442,0,0,18.204,328,-2.886,2.07,9.042,1
