time,lat,lng,bearing,spd,acc,alt,accx,accy,accz,stable
0,35.24434711,-97.45883606,332.2,22.29,3,330,-0.806,3.369,9.26,0
1,35.244524,-97.45894997,331.9,22.28002,4,330,-0.647,3.168,9.212,0
2,35.24469744,-97.45905836,331.8,22.130009,4,329,-0.558,3.086,9.294,0
3,35.24486989,-97.45917008,331.4,22.12001,5,329,-0.716,3.013,9.653,0
4,35.24504236,-97.45929244,330.5,22.17001,5,330,-0.839,2.907,9.631,0
5,35.24520334,-97.45940332,329.8,21.800001,4,329,-0.791,2.908,9.651,0
6,35.24536545,-97.45951934,329.1,21.480001,4,329,-0.833,3.01,9.627,0
7,35.2455381,-97.45964761,328.6,21.17001,4,330,-0.48,2.568,9.594,0
8,35.24569059,-97.45976561,328.1,20.590038,3,330,-0.76,1.959,9.665,0
9,35.24583094,-97.45987698,327.4,19.130022,3,330,-0.618,1.795,9.821,0
10,35.24596224,-97.45997903,326.7,17.460045,3,331,-0.615,1.601,10.011,0
11,35.24608416,-97.46007705,326.2,15.770029,3,331,-0.497,1.589,9.814,0
12,35.24618484,-97.46016612,325.5,13.920057,3,331,-0.435,2.084,9.659,0
13,35.24627616,-97.46024365,325,12.430037,3,332,-0.46,2.754,9.423,0
14,35.24636807,-97.46031849,324.7,11.720005,3,332,-0.585,2.812,9.478,0
15,35.24644746,-97.46038413,324.3,11.130018,3,331,-0.476,2.092,9.697,0
16,35.24652245,-97.46044953,324.1,10.04008,3,331,-0.491,1.833,9.792,0
17,35.24658121,-97.46051029,323.9,8.490023,3,332,-0.653,2.714,9.44,0
18,35.24663878,-97.46056181,323.8,7.550027,3,332,-0.645,2.792,9.352,1
19,35.24669077,-97.46061015,323.7,7.0900283,3,333,-0.647,2.971,9.443,1
20,35.24673615,-97.46065498,323.6,6.6,3,334,-0.818,4.142,9.073,0
21,35.24678745,-97.4607006,323.6,6.93,3,334,-1.106,4.15,9.167,0
23,35.24684084,-97.46075452,323.6,7.9,3,334,-0.879,4.041,9.007,0
24,35.24690829,-97.46081599,323.6,8.780005,3,334,-1.021,3.972,9.277,0
25,35.24697982,-97.46087844,323.8,9.57,3,334,-0.942,4.015,9.32,0
26,35.24705927,-97.46094263,323.8,10.420019,3,334,-1.115,4.116,9.022,0
27,35.247141,-97.46101735,323.9,11.300017,3,334,-1.046,4.407,8.883,0
28,35.24723363,-97.46109589,323.9,12.5301,3,334,-1.201,4.436,9.136,0
29,35.24733649,-97.46119495,323.7,13.830057,3,334,-1.266,4.617,8.944,0
30,35.24745085,-97.46129615,323.5,15.090162,3,334,-1.21,4.322,8.766,0
31,35.24769825,-97.46152126,323.5,17.430141,3,335,-1.149,4.197,9.367,0
32,35.24783065,-97.46164474,323.6,18.310133,3,335,-1.062,3.704,9.148,0
33,35.24797397,-97.46176873,323.5,18.94013,3,335,-1.239,3.716,9.518,0
34,35.24811695,-97.46189449,323.4,19.450066,3,335,-1.14,3.574,9.259,0
35,35.24825976,-97.46202366,323.5,19.690125,3,334,-1.08,3.29,9.387,0
36,35.24840054,-97.46215379,323.5,19.760124,3,334,-1.034,3.31,9.518,0
37,35.24854768,-97.46228091,323.5,19.890202,3,334,-1.122,3.385,9.287,0
38,35.24869769,-97.46241612,323.5,20.120201,3,334,-1.251,3.609,9.33,0
39,35.24884942,-97.46254612,323.5,20.500244,3,334,-1.006,3.374,9.274,0
40,35.24900441,-97.46268222,323.6,20.84029,3,333,-1.146,3.427,9.502,0
41,35.2491584,-97.4628221,323.7,21.1304,3,333,-1.111,3.656,9.414,0
42,35.24931074,-97.46296124,323.6,21.430458,3,333,-1.136,3.379,9.434,0
43,35.24947054,-97.46310379,323.5,21.70052,3,333,-1.047,3.348,9.3,0
44,35.24962882,-97.46324579,323.4,21.980738,3,333,-1.139,3.387,9.452,0
45,35.24979118,-97.46339628,323.4,22.260729,3,333,-1.189,3.295,9.637,0
46,35.24995466,-97.46354193,323.5,22.580885,3,332,-1.182,3.36,9.653,0
47,35.2501227,-97.46368982,323.6,22.930872,3,332,-1.126,3.611,9.162,0
48,35.25029588,-97.46384109,323.6,23.390854,3,331,-1.222,3.735,9.354,0
49,35.25047025,-97.46400152,323.6,23.840471,3,331,-1.136,3.687,9.47,0
50,35.2506467,-97.46416015,323.6,24.110298,3,331,-1.067,3.56,9.383,0
51,35.25082246,-97.46432051,323.6,24.320051,3,331,-1.067,3.652,9.541,0
52,35.25100286,-97.46447443,323.6,24.520033,3,331,-1.11,3.521,9.303,0
53,35.25118089,-97.46463546,323.6,24.660099,3,331,-1.126,3.359,9.428,0
54,35.25136168,-97.46480208,323.6,24.760202,3,331,-1.136,3.571,9.423,0
55,35.25154107,-97.46496391,323.7,24.880072,3,331,-1.149,3.471,9.11,0
56,35.2517262,-97.46512836,323.6,25.050097,3,332,-1.146,3.622,9.474,0
57,35.25191265,-97.46529853,323.6,25.410095,3,332,-1.03,3.487,9.345,0
58,35.25209814,-97.46546842,323.6,25.710234,3,332,-1.177,3.432,9.332,0
59,35.25228656,-97.46563527,323.7,25.870195,3,333,-1.192,3.42,9.374,0
60,35.25247796,-97.46580235,323.6,26.000233,3,332,-1.165,3.543,9.337,0
61,35.25266347,-97.46597178,323.5,26.110376,3,333,-1.214,3.434,9.456,0
62,35.25285525,-97.46613835,323.5,26.230618,3,333,-1.213,3.419,9.242,0
63,35.25304976,-97.46631418,323.4,26.390614,3,333,-1.14,3.362,9.358,0
64,35.25324302,-97.46648722,323.4,26.510544,3,334,-1.172,3.324,9.349,0
65,35.2534355,-97.46665985,323.5,26.570543,3,334,-1.014,3.46,9.21,0
66,35.25362829,-97.46683044,323.6,26.52061,3,335,-1.013,3.489,9.043,0
67,35.25381936,-97.46700328,323.9,26.450546,3,335,-1.081,3.241,9.283,0
68,35.25401404,-97.46717698,323.9,26.400484,3,336,-1.191,3.327,9.328,0
69,35.25420741,-97.46734455,323.7,26.340548,3,336,-1.186,3.448,9.584,0
70,35.25439966,-97.46751384,323.5,26.29055,3,336,-1.119,3.182,9.48,0
71,35.25458804,-97.46768459,323.4,26.190619,3,336,-1.072,3.202,9.613,0
72,35.25477988,-97.46785233,323.5,26.120432,3,337,-0.967,3.249,9.49,0
73,35.2549707,-97.46802897,323.6,26.030434,3,337,-1.066,3.167,9.548,0
74,35.25515828,-97.46819971,323.6,25.930378,3,337,-1.062,3.107,9.599,0
75,35.25534582,-97.46836753,323.6,25.820278,3,337,-1.262,3.247,9.353,0
76,35.25553154,-97.46853394,323.6,25.740095,3,338,-1.131,3.299,9.417,0
77,35.25572084,-97.46870035,323.6,25.690159,3,338,-1.113,3.304,9.239,0
78,35.2559068,-97.46886706,323.6,25.650095,3,338,-1.161,3.159,9.497,0
79,35.25609273,-97.46903283,323.7,25.550196,3,338,-1.147,3.01,9.315,0
80,35.2562776,-97.46920427,323.6,25.440071,3,338,-1.153,3.144,9.402,0
81,35.25646246,-97.46937361,323.5,25.34,3,338,-1.098,2.999,9.313,0
83,35.25664374,-97.46953797,323.4,25.29001,3,338,-0.863,3.068,9.516,0
84,35.2568292,-97.46970431,323.5,25.220016,3,337,-0.797,3.13,9.303,0
85,35.25701186,-97.46986342,324.1,25.13003,3,337,-0.844,3.361,9.486,0
86,35.2571967,-97.47002034,324.7,25.01005,3,337,-0.868,3.212,9.258,0
87,35.25738277,-97.47017859,325.1,25.08005,3,336,-1.127,3.266,9.373,0
88,35.25757107,-97.47033389,325.2,25.220095,3,335,-1.424,3.196,9.38,0
89,35.25775815,-97.47049528,324.8,25.280127,3,335,-1.262,3.268,9.422,0
90,35.25794362,-97.47065657,324.5,25.33007,3,335,-1.462,3.256,9.242,0
91,35.25813047,-97.4708194,324.2,25.350126,3,335,-1.246,3.152,9.41,0
92,35.25849146,-97.4711435,324,24.99005,3,335,-1.358,3.06,9.559,0
93,35.25867071,-97.47129977,324,24.650019,3,335,-1.077,2.804,9.421,0
94,35.25884831,-97.47146117,323.8,24.270033,3,335,-1.095,2.869,9.389,0
95,35.25902263,-97.47161627,323.6,23.930033,3,335,-1.101,2.895,9.576,0
96,35.25919311,-97.4717693,323.6,23.57,3,335,-1.139,2.91,9.365,0
97,35.25935638,-97.47191695,323.6,23.010054,3,335,-1.064,2.291,9.685,0
98,35.25951499,-97.47205848,323.6,21.880146,3,335,-1.143,2.17,9.609,0
99,35.25966128,-97.47219564,323.4,20.750086,3,335,-1.194,2.646,9.394,0
100,35.25980683,-97.47232674,323.3,20.23006,3,335,-1.132,2.906,9.405,0
101,35.25994924,-97.47245711,323.5,19.90001,3,335,-1.102,2.959,9.382,0
102,35.26009458,-97.47258703,323.5,19.57,3,335,-1.125,2.942,9.339,0
103,35.26023559,-97.47271248,323.6,19.300022,3,334,-1.139,2.919,9.604,0
104,35.26037126,-97.47283662,323.5,18.83,3,334,-1.126,2.082,9.628,0
105,35.26049603,-97.47295008,323.6,17.520002,3,335,-1.11,2.117,9.659,0
106,35.26061425,-97.47305581,323.7,16.480003,3,335,-1.044,2.751,9.487,0
107,35.26072813,-97.47316145,323.7,16.21001,3,334,-1.135,2.812,9.568,0
108,35.26084291,-97.47326129,323.5,15.920012,3,334,-1.109,2.964,9.393,0
109,35.26095646,-97.4733631,323.5,15.480003,3,335,-1.01,1.668,9.887,0
110,35.26105508,-97.47345115,323.6,13.87,3,334,-1.032,1.762,9.72,0
111,35.26114282,-97.47353193,323.6,12.35,3,334,-1.105,2.199,9.552,0
112,35.26122607,-97.47360625,323.8,11.3900175,3,335,-1.039,2.1,9.694,0
113,35.2613045,-97.47367312,323.8,10.44,3,334,-1.061,1.606,9.741,0
114,35.26136425,-97.47372957,323.8,8.660006,3,335,-1.021,0.989,9.864,0
115,35.26140999,-97.47376875,323.6,6.3400316,3,335,-1.011,1.197,9.829,0
116,35.26143962,-97.47379148,323.2,4.31,3,334,-1.049,1.991,9.701,0
117,35.26145985,-97.47381091,323,3.11,3,335,-1.072,2.331,9.561,0
118,35.26147474,-97.47382598,323,2.3000216,3,334,-1.094,2.568,9.532,0
119,35.26148622,-97.47383371,323,1.68,3,335,-1.13,2.841,9.534,0
120,35.26149557,-97.47384133,323.1,1.25,3,335,-1.155,2.958,9.504,0
121,35.26150224,-97.47385162,323.1,0.97,3,335,-1.104,2.914,9.491,0
122,35.26150224,-97.47385162,323.1,0.97,3,335,-1.067,2.637,9.47,0
123,35.26151094,-97.47385815,0,0,3,334,-1.168,3.167,9.42,0
124,35.26151094,-97.47385815,0,0,3,334,-1.2,3.235,9.41,0
125,35.26151094,-97.47385815,0,0,3,334,-1.168,3.229,9.418,0
126,35.26151094,-97.47385815,0,0,3,334,-1.151,3.233,9.4,0
127,35.26151094,-97.47385815,0,0,3,334,-1.16,3.232,9.384,0
128,35.26151094,-97.47385815,0,0,3,334,-1.165,3.238,9.392,0
129,35.26151094,-97.47385815,0,0,3,334,-1.155,3.24,9.399,0
130,35.26151094,-97.47385815,0,0,3,334,-1.157,3.228,9.405,0
131,35.26151094,-97.47385815,0,0,3,334,-1.149,3.217,9.403,0
132,35.26151094,-97.47385815,0,0,3,334,-1.165,3.229,9.407,0
133,35.26151094,-97.47385815,0,0,3,334,-1.166,3.226,9.409,0
134,35.26151094,-97.47385815,0,0,3,334,-1.168,3.232,9.404,0
135,35.26151094,-97.47385815,0,0,3,334,-1.158,3.236,9.394,0
136,35.26151094,-97.47385815,0,0,3,334,-1.158,3.229,9.409,0
137,35.26151094,-97.47385815,0,0,3,334,-1.15,3.219,9.399,0
138,35.26151094,-97.47385815,0,0,3,334,-1.16,3.222,9.422,0
139,35.26151094,-97.47385815,0,0,3,334,-1.167,3.226,9.391,0
140,35.26151094,-97.47385815,0,0,3,334,-1.169,3.233,9.398,0
142,35.26151094,-97.47385815,0,0,3,334,-1.168,3.287,9.403,0
143,35.26151094,-97.47385815,0,0,3,334,-1.16,3.294,9.393,0
144,35.26151094,-97.47385815,0,0,3,334,-1.17,3.431,9.364,0
145,35.26151094,-97.47385815,0,0,3,334,-1.177,3.591,9.335,0
146,35.26151094,-97.47385815,0,0,3,334,-1.222,4.367,9.13,0
147,35.26152755,-97.47386996,323.1,1.02,3,333,-1.254,4.833,9.024,0
148,35.26154324,-97.47388734,323,2.49002,3,333,-1.291,4.881,8.947,0
149,35.26157123,-97.47391338,323.3,4.110012,3,332,-1.257,4.625,9.053,0
150,35.26168081,-97.47400842,323.6,7.080028,3,332,-1.413,4.742,8.954,0
151,35.26174495,-97.47406565,323.6,8.6500225,3,332,-1.124,4.588,8.944,0
152,35.2618189,-97.47413148,323.7,9.93002,3,332,-1.073,4.344,9.253,0
153,35.26189494,-97.47419848,323.8,10.810019,3,332,-1.168,3.677,9.356,0
154,35.26197396,-97.47426995,324,11.11004,3,332,-1.041,3.243,9.51,0
155,35.26205562,-97.47433742,324,10.9600725,3,332,-1.089,2.922,9.525,0
156,35.26213401,-97.47440574,324.1,10.680019,3,332,-1.096,2.86,9.501,0
157,35.26220495,-97.47447027,323.8,9.95002,3,332,-1.09,1.832,9.688,0
158,35.26226254,-97.47452593,323.6,8.470054,3,332,-1.032,2.216,9.623,0
159,35.26231526,-97.4745731,323.6,7.6901627,3,332,-1.083,2.748,9.456,0
160,35.26237048,-97.47462061,323.2,7.3002467,3,332,-1.099,2.845,9.328,0
161,35.26242275,-97.47466021,323.5,7.1500072,3,332,-1.087,4.551,9.101,0
162,35.26248749,-97.47471949,323.4,8.85,3,332,-1.226,5.25,8.869,0
163,35.26256602,-97.47479318,323.2,11.000018,3,332,-1.347,5.313,8.804,0
164,35.26266183,-97.47488514,323.2,13.0202465,3,332,-1.319,5.115,8.831,0
165,35.26277245,-97.47498743,323,14.930031,3,332,-1.274,4.77,8.948,0
166,35.26289303,-97.47509612,323.4,16.720505,3,331,-1.273,4.393,9.167,0
167,35.26302451,-97.47521844,323.4,17.9804,3,332,-1.174,4.075,9.262,0
168,35.26316325,-97.47534221,323.3,18.960592,3,331,-1.075,4.034,9.299,0
169,35.26330734,-97.47546996,323.3,19.890491,3,331,-1.035,4.019,9.355,0
170,35.26345799,-97.4756081,323.6,20.77078,3,331,-0.939,3.954,9.203,0
171,35.26361864,-97.47574797,323.8,21.600391,3,331,-0.966,3.966,9.26,0
172,35.26378576,-97.47589176,323.9,22.410437,3,330,-1.074,3.974,9.346,0
173,35.26395726,-97.47604083,323.9,23.160423,3,330,-0.866,3.819,9.1,0
174,35.26413045,-97.47619623,324.3,23.840302,3,330,-0.668,3.766,9.121,0
175,35.26431377,-97.47635705,325.1,24.520247,3,330,-0.753,3.416,9.38,0
176,35.2644993,-97.47650777,325.6,24.780052,3,329,-0.741,3.512,9.664,0
177,35.26468486,-97.4766631,326.2,24.880032,3,329,-0.566,3.077,9.302,0
178,35.26487384,-97.47680993,327.3,24.84001,3,329,-0.768,3.211,9.422,0
179,35.26506563,-97.47694974,328,24.590073,3,328,-0.786,3.175,9.383,0
180,35.26524775,-97.4770907,328.5,24.330296,3,328,-0.464,3.13,9.483,0
181,35.26542982,-97.47723048,329.1,24.130167,3,328,-0.607,3.153,9.618,0
182,35.26561316,-97.47736872,329.8,23.940353,3,328,-0.642,3.075,9.573,0
183,35.26579014,-97.47749377,330.5,23.71017,3,328,-0.731,2.997,9.447,0
184,35.26597734,-97.47761452,331.3,23.420307,3,328,-0.733,3.038,9.417,0
185,35.26615365,-97.47773194,332,22.980312,3,328,-0.723,2.813,9.452,0
186,35.26632722,-97.4778487,332.5,22.630373,3,328,-0.774,2.798,9.528,0
187,35.26650362,-97.47795485,332.9,22.220224,3,328,-0.88,3.075,9.527,0
188,35.26668163,-97.47806124,333.4,22.130035,3,327,-0.743,3.169,9.359,0
189,35.26685961,-97.4781663,334.1,22.010036,4,327,-0.795,3.236,9.341,0
190,35.26703474,-97.47826147,334.8,21.760036,4,327,-0.824,3.28,9.392,0
191,35.2672108,-97.47835871,335.4,21.620085,4,327,-0.783,3.283,9.415,0
192,35.26738651,-97.47843891,336,21.44019,4,327,-0.813,3.212,9.449,0
193,35.26756657,-97.47853445,336.6,21.350283,4,328,-0.785,3.169,9.374,0
194,35.2677456,-97.47862711,337.2,21.260084,4,328,-0.892,3.363,9.377,0
195,35.26792409,-97.47871549,337.7,21.240116,4,328,-0.789,3.16,9.579,0
196,35.2681091,-97.47880963,337.9,21.34001,5,329,-0.724,3.127,9.355,0
197,35.26830632,-97.478911,338.3,21.45001,5,327,-0.799,3.191,9.438,0
198,35.26846693,-97.47897449,339.5,20.600157,5,329,-0.772,3.037,9.426,0
199,35.26864284,-97.47905289,340.1,20.490196,5,329,-0.752,2.974,9.371,0
200,35.26881815,-97.47912025,340.8,20.200201,5,330,-0.829,2.972,9.487,0
201,35.26899366,-97.47919731,341.2,19.870205,5,329,-0.838,2.995,9.518,0
203,35.2691593,-97.47926519,341.5,19.570309,5,329,-0.925,2.931,9.429,0
204,35.26932371,-97.47933763,341.6,19.260374,5,329,-0.869,2.67,9.325,0
205,35.26947844,-97.4794071,341.7,18.990168,5,329,-0.793,1.826,9.888,0
206,35.2696431,-97.47947526,342.5,17.770012,4,330,-0.908,1.946,9.85,0
207,35.26978436,-97.47952597,343,16.540049,3,330,-1.051,2.71,9.565,0
208,35.26991293,-97.47957333,342.8,15.750203,3,330,-1.038,2.908,9.415,0
209,35.27004008,-97.47962076,342.9,15.310161,3,330,-1.14,2.961,9.333,0
210,35.27016725,-97.4796663,343,15.130083,3,329,-1.253,3.86,9.207,0
211,35.27029599,-97.47971197,342.7,15.390004,3,329,-1.127,3.358,9.421,0
212,35.27057827,-97.47980252,343.4,16.180153,3,328,-0.9,1.553,9.753,0
213,35.27069887,-97.47984502,343.4,14.150509,3,328,-1.168,1.682,9.83,0
214,35.27081055,-97.47989254,342.9,13.33006,3,328,-1.138,2.872,9.483,0
215,35.27092385,-97.47993403,343.2,13.040383,3,328,-1.209,2.409,9.55,0
216,35.27102602,-97.47997416,342.8,12.150333,3,328,-1.167,1.815,9.682,0
217,35.27111243,-97.48001461,342.4,10.590302,3,328,-1.053,0.899,9.979,0
218,35.27118262,-97.48004004,341,8.800142,4,328,-1.148,2.518,9.657,0
219,35.27124741,-97.48006292,342.8,8.22,4,329,-1.033,5.08,8.931,0
220,35.27133282,-97.48008864,345.7,9.780864,4,330,-1.237,5.789,8.824,0
221,35.27145796,-97.48014065,343.5,13.52037,3,330,-1.268,5.69,8.846,0
222,35.27159018,-97.4801841,344.6,15.331305,3,330,-1.305,5.489,8.938,0
223,35.27176434,-97.48025229,343.4,18.451084,3,330,-1.184,4.787,8.707,0
224,35.27193422,-97.48031271,343.2,19.950064,3,329,-1.264,4.256,9.155,0
225,35.27211412,-97.48037803,343.1,20.98001,3,329,-1.24,3.35,9.323,0
226,35.27229647,-97.48044627,343.1,21.090038,3,329,-1.226,3,9.419,0
227,35.2724817,-97.48052072,342.9,20.87,3,330,-1.159,2.875,9.576,0
228,35.27266334,-97.48058884,342.9,20.710194,3,330,-1.032,2.914,9.39,0
229,35.2728405,-97.48065088,343.1,20.490244,3,329,-1.024,2.886,9.446,0
230,35.27301736,-97.48071752,343.1,20.260159,3,329,-1.081,2.845,9.513,0
231,35.27318981,-97.48078328,342.9,20.13002,3,329,-1.111,2.901,9.423,0
232,35.27335883,-97.48084831,343.1,19.73,3,329,-1.151,2.899,9.51,0
233,35.27352635,-97.48091263,343.1,19.440042,3,329,-1.207,2.893,9.421,0
234,35.27369063,-97.48097507,343,19.18001,3,329,-1.061,3.108,9.48,0
235,35.27385463,-97.48103788,343,19.120066,3,329,-1.021,3.134,9.32,0
236,35.27402001,-97.48109137,343,18.99013,3,329,-0.919,1.861,9.618,0
237,35.27416273,-97.48114221,343.2,17.470411,3,329,-0.891,1.051,10.105,0
238,35.27429019,-97.48119098,343.5,15.170211,3,330,-0.994,1.105,9.904,0
239,35.2743978,-97.48123005,343.3,12.860762,3,330,-0.933,1.026,9.917,0
240,35.2744816,-97.48126025,343.5,10.450579,3,330,-0.923,1.032,9.893,0
241,35.27454936,-97.48128262,343.2,8.151036,3,331,-1.074,2.958,8.633,0
242,35.27460894,-97.48130701,343.4,7.150846,3,330,-0.812,2.635,8.994,0
243,35.2746638,-97.48132636,343.2,6.5107684,3,330,-1.148,2.797,9.325,0
244,35.27471799,-97.48134923,341.9,6.141596,3,331,-1.031,2.766,9.433,0
245,35.27476003,-97.48136536,341.8,5.531528,3,332,-1.02,1.932,9.624,0
246,35.27478618,-97.48136012,343.3,3.7006621,3,330,-1.011,2.223,9.608,0
247,35.27480723,-97.48137087,339.6,2.870627,3,330,-1.04,2.749,9.546,0
248,35.27480723,-97.48137087,339.6,2.870627,3,330,-1.144,3.01,9.474,0
249,35.27482377,-97.48137588,343.4,1.17,3,330,-1.173,2.939,9.497,0
250,35.27483022,-97.48136743,344,0.84,3,329,-1.113,2.851,9.448,0
251,35.27483022,-97.48136743,344,0.84,3,329,-1.127,3.255,9.351,0
252,35.27483022,-97.48136743,344,0.84,3,329,-1.114,3.325,9.336,0
253,35.27483022,-97.48136743,344,0.84,3,329,-1.155,3.335,9.388,0
254,35.27483022,-97.48136743,344,0.84,3,329,-1.182,3.365,9.373,0
255,35.27483022,-97.48136743,344,0.84,3,329,-1.183,3.378,9.378,0
256,35.27483022,-97.48136743,344,0.84,3,329,-1.177,3.383,9.366,0
257,35.27483022,-97.48136743,344,0.84,3,329,-1.177,3.382,9.368,0
258,35.27483022,-97.48136743,344,0.84,3,329,-1.188,3.391,9.368,0
259,35.27483022,-97.48136743,344,0.84,3,329,-1.181,3.385,9.357,0
260,35.27483022,-97.48136743,344,0.84,3,329,-1.186,3.378,9.374,0
261,35.27483022,-97.48136743,344,0.84,3,329,-1.184,3.376,9.372,0
262,35.27483022,-97.48136743,344,0.84,3,329,-1.186,3.389,9.348,0
264,35.27483022,-97.48136743,344,0.84,3,329,-1.191,3.395,9.354,0
265,35.27483022,-97.48136743,344,0.84,3,329,-1.196,3.378,9.364,0
266,35.27483022,-97.48136743,344,0.84,3,329,-1.191,3.381,9.36,0
267,35.27483022,-97.48136743,344,0.84,3,329,-1.186,3.385,9.361,0
268,35.27483022,-97.48136743,344,0.84,3,329,-1.184,3.402,9.344,0
269,35.27483022,-97.48136743,344,0.84,3,329,-1.206,3.576,9.369,0
270,35.27483022,-97.48136743,344,0.84,3,329,-1.231,4.011,9.212,0
271,35.27483022,-97.48136743,344,0.84,3,329,-1.269,4.84,8.997,0
272,35.27484132,-97.4813735,344.1,0.920489,3,327,-1.263,5.028,8.942,0
273,35.27491194,-97.48139987,348.2,3.9302037,3,327,-1.279,5.021,8.903,0
274,35.27495892,-97.48141262,348.3,5.2404675,3,327,-1.35,4.834,8.774,0
275,35.27502522,-97.48143673,344.5,7.2700276,3,327,-1.527,4.728,8.922,0
276,35.27509022,-97.48144353,344.7,8.110499,3,326,-1.444,4.869,8.802,0
277,35.27517793,-97.48148314,344.5,9.100791,3,327,-1.523,4.649,8.939,0
278,35.2752755,-97.48150859,344,10.320819,3,326,-1.406,4.613,9.127,0
279,35.2753808,-97.48154579,344.9,11.25,4,326,-1.38,4.56,9.275,0
280,35.27550753,-97.48159674,343.1,13.260544,4,327,-1.402,4.54,8.936,0
281,35.27562205,-97.48163689,344,13.630059,4,327,-1.382,4.509,8.999,0
282,35.27576897,-97.48168995,342.9,14.931339,4,327,-1.327,4.516,9.021,0
283,35.27592349,-97.48175229,342.8,16.44088,4,328,-1.259,4.566,9.1,0
284,35.27607807,-97.48181243,343,17.44139,4,328,-1.245,4.425,9.02,0
285,35.27623432,-97.4818684,343.8,17.780138,4,328,-1.116,4.362,8.988,0
286,35.2764027,-97.48192825,343.6,18.980042,4,328,-0.818,4.248,8.88,0
287,35.27657827,-97.48200018,343.2,19.711227,4,329,-1.271,4.072,9.12,0
288,35.27675387,-97.4820669,343.7,20.270632,4,329,-1.09,3.963,8.914,0
289,35.27693185,-97.48213379,343.4,21.220602,4,330,-1.307,4.192,9.157,0
290,35.27712137,-97.4822048,343.3,21.650923,4,330,-1.149,3.774,9.365,0
291,35.27731234,-97.48228078,343.1,22.021002,4,330,-1.21,3.745,9.2,0
292,35.27750482,-97.48235576,342.6,22.531174,4,331,-1.224,4.002,8.904,0
293,35.27770537,-97.4824324,342.5,23.070488,4,331,-1.211,4.003,8.935,0
294,35.27791736,-97.48252445,342.6,23.450258,4,332,-1.296,3.95,8.942,0
295,35.27812473,-97.48260049,342.6,24.210032,4,332,-1.238,3.709,9.209,0
296,35.27833663,-97.48268552,342.7,24.410131,4,332,-0.913,3.239,9.325,0
297,35.27854521,-97.48275554,342.9,24.400074,4,332,-0.965,3.168,9.191,0
298,35.27874736,-97.48283072,342.7,24.190102,4,332,-0.936,3.273,9.54,0
299,35.27896623,-97.48291328,342.6,24.280132,4,332,-0.878,3.528,9.541,0
300,35.2791759,-97.48298994,342.8,24.570166,4,332,-0.933,3.483,9.105,0
301,35.27939202,-97.48307159,342.9,24.84013,4,333,-1.005,3.748,9.705,0
302,35.27961383,-97.48315852,343.2,25.260199,4,334,-0.87,3.464,9.442,0
303,35.27983159,-97.48323621,343.3,25.820156,4,334,-1.28,3.147,9.448,0
304,35.28005688,-97.48331861,343.5,25.830156,4,334,-1.062,3.534,9.122,0
305,35.2802817,-97.48340247,343.5,25.990047,4,334,-0.961,3.377,9.4,0
306,35.2805069,-97.48348176,343.7,26.26003,4,334,-1.148,3.442,8.964,0
307,35.28073701,-97.48356368,343.8,26.240122,4,335,-1.033,3.181,9.199,0
308,35.28096658,-97.48364719,343.7,26.000048,4,335,-1.124,3.054,9.344,0
309,35.28119001,-97.48373541,343.6,25.970047,3,335,-1.161,2.816,9.218,0
310,35.28141263,-97.48381675,343.4,25.87,3,336,-1.003,3.247,9.102,0
311,35.2816301,-97.48389831,343.5,25.740002,3,335,-0.904,3.245,9.461,0
312,35.28185446,-97.48397798,343.7,25.820047,3,335,-0.97,3.544,9.689,0
313,35.28208432,-97.48406271,343.7,26.09003,3,335,-1.128,3.482,9.463,0
314,35.28230755,-97.48414054,343.7,26.28023,3,335,-1.069,3.219,9.358,0
315,35.28253122,-97.48421955,343.7,26.300426,3,336,-1.12,3.327,9.31,0
316,35.28275991,-97.48430594,343.6,26.370018,3,335,-1.146,3.332,9.547,0
317,35.28298828,-97.48439052,343.5,26.390188,3,335,-1.327,3.493,8.876,0
318,35.28321671,-97.48444798,343.3,26.510002,3,332,-1.62,3.75,9.305,0
319,35.28345707,-97.4845426,342.9,26.930046,3,332,-1.521,3.924,9.234,0
320,35.28369476,-97.48464472,341.7,27.470066,3,332,-1.098,3.922,9.403,0
321,35.28393881,-97.484749,341.3,28.130144,3,332,-0.819,3.964,9.075,0
322,35.28418393,-97.48483923,341.6,28.450144,3,331,-0.497,3.976,9.227,0
323,35.28443953,-97.48494186,342.5,29.120062,3,332,-0.968,3.86,9.333,0
324,35.28469793,-97.48503377,343.2,29.780243,3,332,-1.298,3.771,9.341,0
326,35.28496136,-97.48513602,343.3,30.160059,3,332,-1.317,3.818,9.39,0
327,35.28523324,-97.48522612,343,30.88004,3,331,-1.005,3.698,9.127,0
328,35.28550704,-97.48532851,343,31.390024,3,331,-1.218,3.796,9.125,0
329,35.28578205,-97.48543263,343,31.86019,3,332,-1.255,4.161,9.067,0
330,35.28606283,-97.48553886,342.9,32.510098,3,332,-1.574,4.011,9.037,0
331,35.28635198,-97.48565123,342.6,33.28025,3,332,-1.529,4.029,9.164,0
332,35.28664093,-97.48576848,341.9,33.960377,3,332,-0.781,3.995,9.405,0
333,35.28693941,-97.48588719,341.5,34.670143,3,333,-0.776,4.086,9.164,0
334,35.2872437,-97.48600686,341.8,35.360317,3,333,-0.365,3.962,9.351,0
335,35.28755141,-97.48612565,342.3,36.040276,3,333,-0.599,2.871,9.612,0
336,35.28818754,-97.48634804,343.4,36.160137,3,334,-0.517,2.383,9.588,0
337,35.28849725,-97.48646392,343.5,35.520035,3,333,-1.271,2.685,9.363,0
338,35.28879906,-97.48657723,343.2,34.91007,3,334,-0.958,2.447,9.655,0
339,35.28908963,-97.48669176,343.1,34.300144,3,335,-0.979,2.857,9.366,0
340,35.28937889,-97.48680064,343.2,33.93009,3,336,-0.958,3.084,9.461,0
341,35.2896657,-97.48690283,343.3,33.71018,3,336,-0.99,3.113,9.579,0
342,35.2899559,-97.48701121,343.2,33.56015,3,336,-1.07,3.222,9.554,0
343,35.29024307,-97.48711939,343.2,33.43018,3,335,-0.991,3.077,9.38,0
344,35.29053391,-97.48722837,343.2,33.240055,3,335,-1.027,3.215,9.128,0
345,35.29082028,-97.48732897,343.2,33.13022,3,335,-1.067,3.2,9.309,0
346,35.29109776,-97.48743477,343.2,33.120216,3,335,-1.151,2.904,8.299,0
347,35.29139422,-97.48753518,343.7,33.300117,3,334,-0.92,3.276,9.212,0
348,35.29167459,-97.48763572,343.7,33.08022,3,335,-0.993,3.26,9.29,0
349,35.29196046,-97.48774271,343.5,33.120384,4,336,-1.01,3.15,9.106,0
350,35.29227171,-97.48784281,343.9,33.690147,4,336,-1.078,3.268,9.335,0
351,35.29254432,-97.48795426,343.2,33.250053,5,335,-1.249,3.307,9.499,0
352,35.29283044,-97.48805827,343.3,33.29018,5,336,-1.076,3.32,9.424,0
353,35.29312392,-97.48814851,343.7,33.430294,5,337,-0.963,3.189,9.372,0
354,35.29340543,-97.48827172,343,33.400253,5,338,-0.967,3,9.294,0
355,35.29368969,-97.4884133,343,33.55007,4,339,-1.065,3.181,9.421,0
356,35.29397427,-97.48853786,343.4,33.63,3,341,-0.933,3.081,9.582,0
357,35.29425997,-97.48864588,343.3,33.59012,3,340,-0.996,3.141,9.51,0
358,35.29455166,-97.48874858,343.1,33.600094,3,340,-0.846,3.047,9.439,0
359,35.29484264,-97.48886544,343.2,33.54,3,341,-0.841,2.959,9.306,0
360,35.29513237,-97.48896549,343.4,33.360004,3,340,-0.838,2.807,9.324,0
361,35.29541621,-97.48906589,343.6,33.11,3,340,-0.713,2.929,9.375,0
362,35.29570882,-97.48915063,344,32.980053,3,340,-0.909,2.879,9.629,0
363,35.29599541,-97.48925238,344.3,32.780003,3,339,-0.65,2.888,9.456,0
364,35.29627809,-97.48934638,344.9,32.58004,3,339,-0.593,2.941,9.758,0
365,35.29657063,-97.48943752,345.8,32.39,3,336,-0.48,3.035,9.648,0
366,35.29684832,-97.48952038,346.8,32.030125,3,337,-0.164,3.047,9.874,0
367,35.29712696,-97.48957892,348.2,31.660267,3,335,-0.403,2.959,9.486,0
368,35.29740462,-97.48963514,349.8,31.320772,3,335,-0.566,3.048,9.503,0
369,35.29768029,-97.48968174,351.1,30.951979,3,337,-0.611,3.124,9.485,0
370,35.29795492,-97.48972713,352.1,30.64261,3,337,-0.612,3.208,9.503,0
371,35.29822934,-97.4897692,352.9,30.422014,3,338,-0.699,3.276,9.448,0
372,35.29850334,-97.48980206,353.6,30.271296,3,338,-0.802,3.345,9.255,0
373,35.29877826,-97.48983048,354.2,30.131037,3,337,-0.491,3.328,9.329,0
374,35.29905014,-97.48985337,355.3,30.011213,3,336,-0.427,3.295,9.348,0
375,35.29931655,-97.48987249,356.7,29.85151,3,336,-0.708,3.245,9.386,0
376,35.29958076,-97.4898827,357.8,29.711136,3,336,-0.797,3.314,9.315,0
377,35.29984833,-97.48989427,358.3,29.620817,3,336,-0.79,3.411,9.368,0
378,35.30010251,-97.48990287,359.3,29.551626,3,335,-0.874,3.361,9.09,0
379,35.30037048,-97.48990183,359.8,29.551422,3,334,-1.051,3.355,9.139,0
380,35.30063956,-97.4899046,0,29.541235,3,334,-0.832,3.424,9.25,0
381,35.30090953,-97.48990253,0.2,29.590433,3,334,-0.93,3.39,9.312,0
382,35.30117726,-97.4898994,0.2,29.64043,3,334,-1.029,3.344,9.372,0
383,35.30144613,-97.4898986,0.2,29.710428,3,334,-1.105,3.321,9.397,0
385,35.30171574,-97.48989776,0,29.800167,3,334,-1.009,3.315,9.44,0
386,35.3019832,-97.48990109,0,29.860168,3,334,-1.255,3.243,9.388,0
387,35.30225173,-97.48990036,359.9,29.900167,3,334,-1.142,3.188,9.486,0
388,35.30252074,-97.48990228,359.8,29.890167,3,334,-0.909,3.087,9.378,0
389,35.30278831,-97.48990407,359.8,29.790062,3,335,-0.813,2.86,9.648,0
390,35.30305906,-97.4899028,0.2,29.560026,3,334,-0.774,2.886,9.497,0
391,35.30332061,-97.48989473,0.7,29.160015,3,335,-1.05,2.957,9.337,0
392,35.3035805,-97.48988886,0.9,28.890007,3,335,-1.153,3.095,9.24,0
393,35.30383857,-97.48988308,0.9,28.700008,3,335,-1.303,3.242,9.349,0
394,35.30409569,-97.4898802,0.7,28.610003,3,335,-1.322,3.235,9.35,0
395,35.30460815,-97.4898784,359.9,28.48,3,335,-1.205,3.113,9.331,0
396,35.3048659,-97.48987766,0,28.330002,3,335,-1.056,3.057,9.253,0
397,35.30512235,-97.48987723,0.1,28.180017,3,335,-1.227,2.951,9.371,0
398,35.30537275,-97.48987657,359.9,28.000029,3,334,-1.204,2.968,9.494,0
399,35.30562558,-97.48988169,359.6,27.870089,3,335,-1.437,3.006,9.467,0
400,35.30587807,-97.48988593,358.9,27.730007,3,335,-1.318,3.044,9.316,0
401,35.30612434,-97.4898943,358.6,27.620008,3,334,-0.994,3.046,9.572,0
402,35.30637155,-97.4898936,358.7,27.560001,3,334,-0.796,3.177,9.481,0
403,35.30662063,-97.48989995,359,27.54003,3,334,-0.758,3.205,9.261,0
404,35.30686748,-97.48990464,359.2,27.600355,3,334,-0.696,3.114,9.439,0
405,35.30712084,-97.48990439,359.9,27.62003,3,333,-0.912,3.087,9.402,0
406,35.30737163,-97.48990208,0.2,27.660028,3,333,-0.825,3.217,9.529,0
407,35.30762203,-97.48989882,0.4,27.730017,3,332,-1.043,3.233,9.294,0
408,35.30787267,-97.48989711,0.3,27.800016,3,332,-1.146,3.319,9.486,0
409,35.30812414,-97.48989736,0.1,27.890028,3,332,-1.103,3.338,9.434,0
410,35.30837827,-97.48989737,0.1,27.960028,3,332,-1.059,3.413,9.386,0
411,35.30862861,-97.48989944,0.1,28.000017,3,331,-1.117,3.399,9.449,0
412,35.30888227,-97.48989893,0,28.100046,3,332,-1.043,3.309,9.401,0
413,35.30913779,-97.48989707,0,28.190065,3,332,-0.976,3.382,9.371,0
414,35.30939122,-97.48990502,0,28.290018,3,333,-0.973,3.255,9.346,0
415,35.30964773,-97.48990423,0,28.360044,3,332,-1.007,3.204,9.583,0
416,35.30990313,-97.48990538,359.9,28.410112,3,333,-0.977,3.537,9.216,0
417,35.31015951,-97.48990677,0,28.550043,3,333,-0.93,3.523,9.233,0
418,35.31042038,-97.48989854,0,28.850142,3,332,-1.048,3.641,9.309,0
419,35.31068396,-97.48989811,0,29.21017,3,333,-1.039,3.638,9.367,0
420,35.31095244,-97.48990151,0,29.58017,3,333,-0.952,3.659,9.255,0
421,35.31122041,-97.48990278,0.1,29.940136,3,333,-1.221,3.7,9.389,0
422,35.31149313,-97.48990358,359.9,30.300371,3,333,-1.093,3.721,9.174,0
423,35.31177273,-97.48990676,359.8,30.70032,3,333,-1.03,3.663,9.319,0
424,35.31204921,-97.4899084,0,31.030413,3,334,-1.147,3.681,9.28,0
425,35.31233034,-97.48991145,0,31.35046,3,334,-1.129,3.634,9.307,0
426,35.31261526,-97.4899164,359.8,31.640455,3,335,-1.142,3.649,9.218,0
427,35.31290884,-97.48991896,359.7,31.920507,3,335,-1.082,3.673,9.249,0
428,35.31319616,-97.48992738,359.8,32.150562,3,335,-1.053,3.183,9.283,0
429,35.31348533,-97.48992466,359.9,32.10045,3,335,-0.996,3.036,9.608,0
430,35.3137697,-97.48992701,359.9,31.820402,3,335,-1.069,3.044,9.374,0
431,35.31405175,-97.48993172,359.9,31.4807,3,336,-0.999,3.108,9.351,0
432,35.31433274,-97.48992827,359.8,31.250639,3,335,-0.87,3.171,9.221,0
433,35.31461315,-97.48992728,0,31.08058,3,334,-0.869,3.312,9.391,0
434,35.31489152,-97.48992656,0.1,31.010412,3,335,-1.054,3.468,9.633,0
435,35.31517385,-97.48992894,0.1,31.090643,3,335,-0.99,3.422,9.385,0
436,35.31545682,-97.4899281,0.1,31.17036,3,335,-1.076,3.509,9.404,0
437,35.31573899,-97.48992676,0.1,31.270775,3,335,-1.046,3.353,9.655,0
438,35.31602186,-97.48992708,0.1,31.380636,3,336,-1.153,3.533,9.295,0
439,35.31630846,-97.48992692,0.1,31.520458,3,336,-1.077,3.502,9.176,0
440,35.3165941,-97.48992117,0.1,31.650455,3,336,-1.066,3.402,9.187,0
441,35.31688189,-97.48992262,359.9,31.831062,3,336,-1.09,3.503,9.384,0
442,35.31716938,-97.48992493,359.8,31.940565,3,337,-1.099,3.635,9.501,0
443,35.31745997,-97.48991984,0,32.16062,3,337,-1.071,3.577,9.544,0
444,35.31775208,-97.4899236,359.9,32.380558,3,337,-1.094,3.394,9.426,0
446,35.31804434,-97.48992321,359.8,32.440678,3,337,-1.038,3.323,9.392,0
447,35.31833768,-97.48992222,359.9,32.490746,3,338,-1.107,3.446,9.391,0
448,35.31863429,-97.48992397,359.9,32.570446,3,338,-1.057,3.349,9.33,0
449,35.31892882,-97.48992542,359.9,32.640614,3,339,-1.107,3.396,9.491,0
450,35.31921942,-97.48992792,359.9,32.700554,3,339,-1.147,3.407,9.37,0
451,35.31951517,-97.48993051,359.9,32.80022,3,339,-0.843,3.189,9.379,0
452,35.31981166,-97.48993358,0,32.90004,3,339,-1.098,3.449,9.228,0
453,35.32011421,-97.48992896,0.4,32.970005,3,339,-1.081,3.313,9.654,0
454,35.32041075,-97.4899316,359.8,32.740883,3,340,-1.059,3.345,9.291,0
455,35.32071152,-97.48993823,359.8,33.270073,3,339,-0.938,3.171,9.455,0
456,35.32131709,-97.48993554,0,33.53002,3,339,-0.994,3.428,9.635,0
457,35.32161937,-97.48993452,0,33.57001,3,339,-0.998,2.999,9.602,0
458,35.32192223,-97.48993236,359.9,33.46,3,339,-1.047,3.24,9.345,0
459,35.32222474,-97.48993334,359.9,33.58001,3,339,-1.041,3.289,9.438,0
460,35.32253043,-97.48992479,359.9,33.66001,3,338,-0.895,3.404,9.514,0
461,35.32283431,-97.48992723,359.9,33.740005,3,338,-1.058,3.24,9.558,0
462,35.32313642,-97.48992873,359.9,33.74018,3,338,-1.017,3.328,9.513,0
463,35.3234421,-97.48993204,0,33.750214,3,338,-0.988,3.338,9.47,0
464,35.32374311,-97.48993077,0.1,33.71029,3,339,-1.115,3.339,9.354,0
465,35.32404417,-97.4899306,0,33.690247,3,339,-1.171,3.343,9.311,0
466,35.32434922,-97.48992291,359.9,33.69033,3,338,-1.106,3.21,9.435,0
467,35.3246539,-97.48992528,359.8,33.67043,3,338,-1.14,3.304,9.374,0
468,35.32495864,-97.48992691,359.9,33.64038,3,339,-1.037,3.221,9.451,0
469,35.3252585,-97.48992694,359.8,33.660294,3,339,-0.892,3.351,9.525,0
470,35.32556469,-97.48992908,0,33.64033,3,339,-0.991,3.313,9.379,0
471,35.32587025,-97.48992816,0.2,33.820652,3,338,-1.194,3.258,9.331,0
472,35.32617644,-97.48992656,359.7,33.65018,3,338,-0.992,3.253,9.489,0
473,35.32648073,-97.48992782,359.9,33.64018,3,338,-0.869,3.286,9.455,0
474,35.3267844,-97.48993253,0,33.650383,3,339,-0.872,3.366,9.443,0
475,35.32708892,-97.48992515,0.1,33.650383,3,339,-0.893,3.227,9.327,0
476,35.32739117,-97.48991949,0.1,33.61012,3,339,-1.105,3.258,9.515,0
477,35.32769481,-97.48991862,0,33.630333,3,339,-1.036,3.287,9.293,0
478,35.32799552,-97.48992366,0,33.650383,3,340,-0.911,3.248,9.373,0
479,35.32830042,-97.48992097,359.9,33.650295,3,340,-0.988,3.453,9.299,0
480,35.32860297,-97.48992296,359.9,33.67021,3,340,-0.79,3.292,9.384,0
481,35.32890719,-97.48992446,0.1,33.67029,3,341,-0.929,3.256,9.24,0
482,35.32920756,-97.4899193,0.2,33.64038,3,341,-1.166,3.311,9.462,0
483,35.32951177,-97.4899188,0.1,33.630333,3,341,-1.027,3.328,9.337,0
484,35.32981538,-97.48992116,0,33.64033,3,341,-1.084,3.317,9.286,0
485,35.3301185,-97.48992108,0,33.64029,3,341,-1.158,3.324,9.427,0
486,35.33041597,-97.48992548,359.9,33.64033,3,342,-1.073,3.34,9.364,0
487,35.33072014,-97.4899331,359.8,33.650253,3,342,-0.949,3.355,9.312,0
488,35.33102507,-97.48993863,359.8,33.70018,3,342,-1.127,3.367,9.556,0
489,35.33132996,-97.48993964,359.9,33.690247,3,343,-1.056,3.387,9.42,0
490,35.33163797,-97.48993226,359.8,33.67048,3,342,-0.971,3.37,9.444,0
491,35.33194152,-97.48993534,359.7,33.750095,3,342,-0.873,3.406,9.493,0
492,35.33224585,-97.48993886,359.8,33.72048,3,342,-1.061,3.324,9.499,0
493,35.3325474,-97.48994027,359.6,33.67048,3,342,-1.255,3.162,9.372,0
494,35.33284775,-97.4899474,358.8,33.630596,3,342,-1.429,3.294,9.138,0
495,35.33315184,-97.48996107,357.6,33.64029,3,343,-1.195,3.206,9.368,0
496,35.33345248,-97.48998197,356.1,33.690094,3,343,-1.2,3.293,9.473,0
497,35.33375591,-97.49001192,355.1,33.68018,3,343,-1.435,3.244,9.333,0
498,35.33406228,-97.49004678,354.8,33.680073,3,343,-1.659,3.106,9.309,0
499,35.33436195,-97.49010003,352,33.680004,3,343,-1.505,3.285,9.5,0
500,35.33465727,-97.49016374,350,33.680096,3,344,-1.215,3.251,9.411,0
501,35.33495743,-97.49023972,348.5,33.65015,3,344,-1.128,3.323,9.456,0
502,35.33525523,-97.49032387,347.5,33.670177,3,344,-1.544,3.169,9.27,0
503,35.33554423,-97.49042168,346,33.610382,3,345,-1.79,3.277,9.652,0
504,35.33583546,-97.49052433,344.2,33.61054,3,346,-1.259,3.31,9.534,0
505,35.33612463,-97.4906291,342.7,33.600857,3,346,-1.027,3.222,9.721,0
506,35.33641265,-97.4907478,341.9,33.621006,3,347,-0.935,3.399,9.659,0
508,35.33669888,-97.4908657,341.4,33.641163,3,347,-0.747,3.304,9.576,0
509,35.3369875,-97.49098841,341.2,33.771423,3,348,-0.791,3.38,9.369,0
510,35.33726461,-97.49109528,341.8,33.1849,3,350,-1.02,3.432,9.036,0
511,35.33754592,-97.49120443,342,33.085087,3,351,-1.144,3.447,9.319,0
512,35.3378366,-97.49131717,342,33.053486,3,352,-1.366,3.477,8.858,0
513,35.3381248,-97.49142785,341.8,33.05334,3,353,-1.174,3.251,8.745,0
514,35.33840407,-97.49154274,341.4,33.15145,3,354,-1.431,2.823,9.086,0
515,35.3386887,-97.49165749,341.3,33.29184,3,355,-1.028,3.39,9.038,0
516,35.33897611,-97.49177169,341.2,33.400726,3,356,-0.903,3.222,9.293,0
517,35.33955364,-97.49200859,341.5,33.560074,3,356,-0.863,3.233,9.343,0
518,35.33983466,-97.49211723,341.6,33.47015,3,357,-1.04,3.156,9.302,0
519,35.3401235,-97.49223775,341.4,33.290073,3,356,-1.095,3.095,9.388,0
520,35.34039979,-97.49234922,341.3,33.130054,3,356,-1.113,3.147,9.427,0
521,35.34068103,-97.49246948,341.2,32.94007,3,356,-0.936,3.054,9.438,0
522,35.34096482,-97.49259071,341.4,32.710052,3,356,-0.914,2.918,9.427,0
523,35.34123813,-97.49270123,341.6,32.40001,3,356,-1.007,2.88,9.425,0
524,35.34151289,-97.49281686,341.5,32.150005,3,355,-1.048,2.919,9.334,0
525,35.34178513,-97.49293052,341.3,31.950077,3,356,-1.065,3.008,9.388,0
526,35.34205999,-97.49305302,341.2,31.810001,3,356,-0.996,3.076,9.55,0
527,35.34233597,-97.49315913,341.4,31.59,3,356,-0.978,2.902,9.555,0
528,35.34260436,-97.49326821,341.4,31.240005,3,356,-0.863,2.837,9.559,0
529,35.34286599,-97.49337454,341.5,30.840025,3,357,-0.877,2.643,9.239,0
530,35.34312132,-97.49347935,341.7,30.33,3,357,-0.797,2.76,8.993,0
531,35.34337461,-97.49358398,341.7,29.790016,3,356,-0.911,2.558,9.258,0
532,35.3436295,-97.49368257,341.9,29.200043,3,355,-0.866,2.362,9.677,0
533,35.34387498,-97.49378307,342.2,28.660084,3,355,-0.496,2.687,9.516,0
534,35.34411111,-97.49387258,343.1,28.19003,3,355,-0.394,2.691,9.446,0
535,35.34435707,-97.49394307,344.6,28.06377,3,354,-0.592,2.815,9.483,0
536,35.34459771,-97.49401675,345.2,27.71065,3,353,-0.659,2.916,9.593,0
537,35.34483663,-97.49409024,346,27.510017,3,353,-0.718,2.916,9.54,0
538,35.3450738,-97.49415836,347,27.310028,3,354,-0.627,3.029,9.617,0
539,35.34531087,-97.49422052,348.1,27.300528,3,354,-0.689,3.118,9.614,0
540,35.34555249,-97.49427818,348.9,27.180002,3,355,-0.799,3.141,9.58,0
541,35.34579034,-97.49432871,349.8,27.160067,3,355,-0.719,3.394,9.459,0
542,35.34602474,-97.49437881,350.6,27.170414,3,355,-0.697,3.428,9.376,0
543,35.34626975,-97.49442019,351.7,27.320528,3,355,-0.586,3.565,9.2,0
544,35.34651708,-97.49445864,352.9,27.600409,3,356,-0.703,3.605,9.316,0
545,35.34677194,-97.49449627,353.6,27.930403,3,356,-0.756,3.656,9.419,0
546,35.34702589,-97.49452397,354.4,28.280573,3,356,-0.727,3.68,9.466,0
547,35.34728272,-97.4945482,355.3,28.630392,3,355,-0.773,3.658,9.334,0
548,35.34754194,-97.49457001,356.2,28.920338,3,356,-0.704,3.686,9.187,0
549,35.34780854,-97.49458388,357.1,29.230171,3,356,-0.834,3.57,9.224,0
550,35.34807562,-97.49459157,358,29.480204,3,355,-0.904,3.657,9.318,0
551,35.3483416,-97.4945928,358.7,29.710379,3,355,-0.753,3.423,9.54,0
552,35.34860833,-97.49460233,359.2,29.970602,3,356,-0.997,3.585,9.574,0
553,35.34888124,-97.49459686,359.5,30.060665,3,354,-0.873,3.551,9.272,0
554,35.34915626,-97.4946022,359.7,30.320322,3,354,-0.986,3.484,9.7,0
555,35.34942907,-97.49460649,359.7,30.500591,3,354,-1.131,3.319,9.415,0
556,35.34971073,-97.49461498,359.7,30.610529,3,354,-1.224,3.158,8.8,0
557,35.34998864,-97.49461525,359.7,30.69079,3,355,-1.226,3.192,9.218,0
558,35.35026637,-97.49461928,359.7,30.75047,3,355,-1.127,3.124,9.179,0
559,35.35054289,-97.49462738,359.8,30.800716,3,356,-1.266,3.033,9.367,0
560,35.35082076,-97.49462569,359.8,30.820715,3,356,-1.371,3.335,9.181,0
561,35.351096,-97.49462625,359.6,30.86065,3,356,-1.182,3.38,9.452,0
562,35.35137054,-97.49462427,359.6,30.870584,3,356,-1.227,3.278,9.42,0
563,35.35164749,-97.49462804,359.6,30.890715,3,357,-1.282,3.357,9.309,0
564,35.35192199,-97.49463695,359.5,30.900784,3,357,-1.2,3.421,9.556,0
565,35.35220541,-97.4946435,359.4,30.940584,3,357,-1.304,3.406,9.329,0
567,35.35248435,-97.49464873,359.5,30.960522,3,357,-0.986,3.403,9.159,0
568,35.35276535,-97.49465483,359.5,30.970644,3,357,-1.141,3.193,9.346,0
569,35.35304115,-97.49465649,359.9,30.970781,3,358,-1.295,3.214,9.321,0
570,35.35332278,-97.49465113,0,30.960522,3,357,-1.378,3.257,9.109,0
571,35.35359913,-97.49465469,359.9,30.960522,3,357,-1.178,3.171,9.13,0
572,35.35387816,-97.49465191,359.5,31.040522,3,357,-1.136,3.231,9.302,0
573,35.35415779,-97.4946588,359.5,30.990582,3,357,-1.229,3.177,9.47,0
574,35.35471796,-97.494663,359.4,30.980412,3,357,-1.121,3.261,9.334,0
575,35.35499736,-97.49466609,359.7,30.960522,3,357,-1.052,3.376,9.542,0
576,35.35527612,-97.49467032,359.8,30.960522,3,358,-0.883,3.243,9.135,0
577,35.35555566,-97.49467793,359.7,30.970465,3,358,-1.178,3.354,9.331,0
578,35.35583054,-97.49468403,359.6,30.950583,3,358,-0.974,3.217,9.505,0
579,35.35610868,-97.49468432,359.7,30.960272,3,359,-1.018,3.203,9.238,0
580,35.35639105,-97.4946852,359.5,30.990362,3,359,-1.027,3.413,9.542,0
581,35.35667541,-97.49468165,359.5,30.990465,3,359,-0.952,3.352,9.307,0
582,35.35695521,-97.4946859,359.5,31.010273,3,359,-1.178,3.145,9.253,0
583,35.3572358,-97.49470084,359.5,30.970465,3,359,-0.939,3.334,9.456,0
584,35.35751933,-97.4947036,359.5,30.990412,3,358,-0.97,3.283,9.307,0
585,35.35779958,-97.4947016,359.4,30.990412,3,358,-1.114,3.209,9.646,0
586,35.3580803,-97.4947102,359.4,31.030363,3,359,-1.207,3.279,9.333,0
587,35.35835941,-97.494716,359.3,31.090162,3,359,-1.325,3.134,9.211,0
588,35.35863795,-97.49471857,359.2,31.080315,3,359,-1.465,3.105,9.42,0
589,35.35891556,-97.49471866,359.2,31.040781,3,360,-1.036,3.327,9.581,0
590,35.35919284,-97.49472043,359.3,31.011175,3,361,-0.589,3.183,9.204,0
591,35.35947162,-97.49472827,359.2,31.05078,3,361,-0.952,3.395,9.706,0
592,35.3597519,-97.49473314,359.3,31.100271,3,362,-0.968,3.075,9.201,0
593,35.36003423,-97.49472777,359.3,31.010582,3,360,-0.913,3.284,9.185,0
594,35.36031346,-97.49472747,359.5,30.980644,3,360,-0.922,3.37,9.373,0
595,35.36059129,-97.49473182,359.4,30.990644,3,360,-1.038,3.398,9.579,0
596,35.36086954,-97.49473885,359.3,30.961092,3,361,-0.781,3.532,10.042,0
597,35.36114643,-97.49475089,359.2,30.881762,3,362,-0.988,3.409,9.411,0
598,35.36142311,-97.49475364,359.4,30.79247,3,362,-0.978,3.441,9.527,0
599,35.36169974,-97.49476655,359.4,30.674408,3,363,-0.95,3.297,9.094,0
600,35.36197514,-97.49477001,359.5,30.554424,3,365,-1.093,3.56,9.552,0
