time,lat,lng,bearing,spd,acc,alt,accx,accy,accz,stable
0,35.24421212,-97.4585821,332.6,22.25,7.585,318,-0.191,1.424,9.494,1
1,35.24437451,-97.45869872,332,22.19,7.585,318,-0.022,1.424,9.5,1
2,35.24454865,-97.45881457,331.8,22.15,9.101999,318,0.152,1.419,9.431,1
3,35.24473702,-97.45893282,331.5,22.23,9.101999,319,0.208,1.422,9.437,1
4,35.24491405,-97.45905383,331.1,22.28,9.101999,319,0.053,1.382,9.486,1
5,35.24509066,-97.4591728,330.2,22.05,9.101999,319,0.107,1.183,9.572,1
6,35.24525892,-97.45929689,329.6,21.89,9.101999,319,0.098,1.117,9.575,1
7,35.24541126,-97.45942694,328.6,21.49,12.136,319,0.132,1.126,9.618,1
8,35.24556977,-97.4595516,328.2,21.27,12.136,319,0.085,0.989,9.666,1
9,35.24571278,-97.45967077,327.8,20.05,12.136,319,0.041,0.314,9.8,1
10,35.24585932,-97.45979626,327.3,18.39,12.136,319,0.061,-0.081,9.853,1
11,35.24599929,-97.45991496,326.5,16.59,12.136,320,0.075,-0.172,9.922,1
13,35.24611671,-97.46001889,326.3,15.46,12.136,321,0.123,-0.235,9.872,1
14,35.24621348,-97.46011081,325,13.03,10.6189995,323,0.195,-0.147,9.841,1
15,35.24629437,-97.46020406,325,11.97,10.6189995,324,0.251,0.636,9.663,1
16,35.24637673,-97.46025617,324.7,11.75,10.6189995,321,0.281,0.859,9.587,1
17,35.24644347,-97.46032346,324.8,10.88,10.6189995,323,0.275,0.549,9.676,1
18,35.24652365,-97.46039237,324.8,10.88,12.136,323,0.255,0.043,9.789,1
19,35.2465782,-97.46048328,323.9,7.97,9.101999,324,0.243,0.449,9.707,1
20,35.24662587,-97.46052817,323.5,7.37,9.101999,325,0.21,0.908,9.616,1
21,35.24667264,-97.46057403,324,6.83,9.101999,324,0.183,0.964,9.582,1
22,35.24672314,-97.46062013,323.6,6.44,9.101999,324,0.165,1.677,9.411,1
23,35.2467853,-97.46067377,323.9,7.32,9.101999,322,0.162,2.275,9.246,1
24,35.24682372,-97.46071675,323.3,8.21,7.585,322,0.141,2.293,9.252,1
25,35.24689225,-97.46076404,322.9,9.03,7.585,321,0.118,2.236,9.284,1
26,35.24697242,-97.46082936,323.7,9.92,7.585,321,0.029,2.263,9.272,1
27,35.24704962,-97.4608954,324.8,10.69,7.585,321,0.014,2.332,9.295,1
28,35.24713999,-97.46097992,324.2,11.71,7.585,321,-0.082,2.591,9.191,1
29,35.24723032,-97.4610678,324,13.01,7.585,321,-0.122,2.689,9.146,1
30,35.24732513,-97.46116437,323.7,14.16,6.068,322,-0.199,2.666,9.186,1
31,35.24742806,-97.46125643,323.7,14.16,9.101999,322,-0.209,2.596,9.152,1
32,35.24756243,-97.4613653,323.7,16.44,6.068,320,-0.171,2.516,9.187,1
33,35.24768187,-97.4614723,323.7,16.44,9.101999,320,-0.181,2.253,9.305,1
34,35.2478431,-97.4616066,323.7,18.47,7.585,319,-0.226,2.079,9.354,1
35,35.24797731,-97.46172674,323.7,18.47,9.101999,319,-0.274,1.935,9.345,1
36,35.24813502,-97.46188037,323.5,19.51,7.585,319,-0.159,1.666,9.382,1
37,35.2482765,-97.4620078,323.5,19.51,9.101999,319,-0.231,1.489,9.469,1
38,35.2484299,-97.46213716,323.2,19.74,9.101999,319,-0.223,1.554,9.475,1
39,35.24857243,-97.46226702,323.2,19.74,10.6189995,319,-0.224,1.658,9.43,1
40,35.2487119,-97.46239446,323.6,20.16,9.101999,319,-0.211,1.778,9.37,1
41,35.24885815,-97.46252594,323.6,20.16,10.6189995,319,-0.217,1.685,9.398,1
42,35.24900036,-97.46266257,323.5,20.92,7.585,318,-0.202,1.678,9.469,1
43,35.24915192,-97.46279939,323.5,20.92,10.6189995,318,-0.238,1.673,9.435,1
44,35.24931024,-97.46294228,323.6,21.51,9.101999,317,-0.237,1.614,9.384,1
45,35.24946624,-97.4630826,323.6,21.5,10.6189995,317,-0.233,1.62,9.418,1
46,35.24962119,-97.46323654,323.3,21.97,9.101999,318,-0.198,1.621,9.419,1
47,35.24978001,-97.46338076,323.3,21.97,10.6189995,318,-0.215,1.633,9.408,1
48,35.24994512,-97.46352707,323.6,22.69,9.101999,317,-0.208,1.667,9.419,1
49,35.25011731,-97.46366307,323.7,23.12,9.101999,315,-0.229,1.821,9.466,1
50,35.25028378,-97.46380654,323.7,23.59,9.101999,314,-0.234,1.752,9.445,1
51,35.25045991,-97.4639702,323.5,23.92,9.101999,313,-0.213,1.662,9.485,1
52,35.25064441,-97.46411858,323.6,24.2,9.101999,313,-0.188,1.648,9.526,1
53,35.25081984,-97.46427654,323.6,24.19,10.6189995,312,-0.187,1.656,9.545,1
54,35.2510094,-97.46446316,323.6,24.56,7.585,313,-0.184,1.644,9.508,1
55,35.25118223,-97.4646321,323.6,24.71,9.101999,314,-0.19,1.623,9.43,1
56,35.25136278,-97.4647961,323.3,24.79,9.101999,314,-0.219,1.613,9.44,1
57,35.25154994,-97.4649603,323.6,24.91,9.101999,314,-0.218,1.742,9.387,1
58,35.25173065,-97.46512282,323.6,24.91,10.6189995,314,-0.217,1.842,9.412,1
59,35.25191896,-97.46529222,323.5,25.5,7.585,315,-0.166,1.764,9.396,1
60,35.25210125,-97.4654549,323.8,25.83,7.585,314,-0.226,1.682,9.447,1
61,35.25229042,-97.46562074,323.5,25.88,7.585,314,-0.255,1.661,9.454,1
62,35.25248797,-97.46578481,323.5,26.05,7.585,314,-0.258,1.669,9.478,1
63,35.25269206,-97.46595804,323.4,26.18,7.585,314,-0.246,1.701,9.482,1
64,35.25287692,-97.46612962,323.4,26.31,9.101999,314,-0.236,1.716,9.462,1
65,35.25307026,-97.46630653,323.5,26.37,9.101999,314,-0.209,1.69,9.421,1
66,35.25326401,-97.46647525,323.5,26.57,9.101999,315,-0.154,1.594,9.5,1
67,35.25345622,-97.46664466,323.6,26.58,7.585,315,-0.111,1.507,9.491,1
68,35.25364492,-97.46680686,323.9,26.53,7.585,314,-0.155,1.489,9.467,1
69,35.25383904,-97.46697746,324,26.41,7.585,315,-0.262,1.501,9.455,1
70,35.25403358,-97.46714277,323.7,26.37,6.068,316,-0.296,1.5,9.439,1
71,35.25422301,-97.46731899,323.6,26.32,6.068,316,-0.266,1.474,9.457,1
72,35.25440974,-97.46748773,323.4,26.32,6.068,317,-0.231,1.46,9.448,1
73,35.25460249,-97.46765263,323.5,26.16,6.068,316,-0.156,1.464,9.453,1
74,35.25478863,-97.46782534,323.6,26.04,6.068,316,-0.17,1.461,9.468,1
75,35.25498068,-97.46800116,323.5,25.97,6.068,316,-0.26,1.414,9.384,1
76,35.25516921,-97.46815924,323.6,25.78,4.5509996,317,-0.233,1.413,9.485,1
77,35.25552964,-97.46849576,323.7,25.68,4.5509996,317,-0.254,1.443,9.461,1
78,35.25571354,-97.46866723,323.5,25.66,4.5509996,317,-0.208,1.466,9.43,1
79,35.2558977,-97.46883671,323.7,25.6,4.5509996,318,-0.175,1.446,9.507,1
80,35.25608722,-97.46901224,323.6,25.45,4.5509996,316,-0.258,1.407,9.516,1
81,35.25627102,-97.4691697,323.6,25.38,4.5509996,315,-0.251,1.39,9.472,1
82,35.25646046,-97.46934019,323.5,25.38,6.068,315,-0.256,1.376,9.419,1
83,35.25665198,-97.46951326,323.7,25.28,6.068,314,-0.227,1.387,9.51,1
84,35.25684294,-97.46968544,323.7,25.21,6.068,314,-0.043,1.331,9.449,1
85,35.25701529,-97.4698482,324.3,25.01,6.068,315,0.029,1.302,9.496,1
86,35.25719824,-97.47000997,324.8,25.07,6.068,315,0.008,1.401,9.481,1
87,35.257371,-97.47016078,325,25.06,6.068,314,-0.048,1.535,9.427,1
88,35.25754984,-97.47032654,325.1,25.2,6.068,314,-0.288,1.498,9.457,1
89,35.25773405,-97.47049627,324.5,25.23,6.068,314,-0.436,1.483,9.474,1
90,35.25792634,-97.4706543,324.3,25.3,6.068,314,-0.398,1.464,9.446,1
91,35.25811521,-97.47081847,324,25.29,7.585,314,-0.419,1.382,9.524,1
92,35.25830152,-97.4709782,324,25.07,7.585,314,-0.364,1.261,9.547,1
93,35.25848432,-97.47114019,324,25.07,9.101999,314,-0.31,1.122,9.604,1
94,35.2586612,-97.47129505,324.1,24.48,7.585,315,-0.349,1.068,9.569,1
95,35.25883255,-97.47144531,323.7,24.09,6.068,315,-0.358,1.088,9.557,1
96,35.25900763,-97.47160194,323.7,24.09,9.101999,315,-0.331,1.11,9.653,1
97,35.25917484,-97.47174823,323.6,23.36,6.068,315,-0.275,1.115,9.627,1
98,35.25933845,-97.4718927,323.6,22.6,7.585,315,-0.28,0.547,9.723,1
99,35.25949845,-97.47203949,323.5,21.38,7.585,315,-0.369,0.408,9.763,1
100,35.25965097,-97.47216986,323.4,20.53,7.585,315,-0.358,0.856,9.627,1
101,35.2598017,-97.47229643,323.3,20.09,7.585,315,-0.26,1.075,9.538,1
103,35.25994682,-97.47242018,323.5,19.73,6.068,316,-0.245,1.13,9.493,1
104,35.26009347,-97.47254347,323.7,19.48,6.068,315,-0.228,1.147,9.501,1
105,35.26023118,-97.47267512,323.6,19.25,6.068,316,-0.294,1.143,9.564,1
106,35.26036905,-97.4728055,323.7,18.47,6.068,316,-0.288,0.282,9.761,1
107,35.26050145,-97.47290855,323.6,16.92,7.585,315,-0.258,0.43,9.722,1
108,35.26061334,-97.47301388,323.5,16.37,7.585,315,-0.283,0.991,9.609,1
109,35.26073362,-97.47311992,323.8,16.08,7.585,314,-0.343,1.123,9.56,1
110,35.26084272,-97.47322444,323.3,15.83,7.585,314,-0.283,1.145,9.548,1
111,35.26095809,-97.47331647,323.5,14.94,7.585,314,-0.276,0.022,9.808,1
112,35.26105815,-97.47340228,323.4,13.33,9.101999,315,-0.286,-0.011,9.833,1
113,35.26114599,-97.47348708,323.8,11.9,9.101999,315,-0.266,0.474,9.716,1
114,35.26123015,-97.47356726,323.3,11.39,9.101999,314,-0.285,0.404,9.707,1
115,35.26129681,-97.47363177,323.5,9.88,9.101999,314,-0.285,-0.143,9.865,1
116,35.26136149,-97.47368592,323.4,8.28,9.101999,315,-0.352,-0.795,10.023,0
117,35.26140594,-97.47372664,323.1,5.82,7.585,316,-0.358,-0.592,9.968,0
118,35.26144764,-97.47376284,322.3,3.76,9.101999,316,-0.305,0.121,9.809,0
119,35.26147061,-97.47378335,324,2.79,9.101999,317,-0.275,0.548,9.704,0
120,35.26148779,-97.47380085,324,2.15,9.101999,317,-0.275,0.765,9.653,0
121,35.26150286,-97.47380451,326.3,1.46,9.101999,317,-0.266,0.988,9.593,0
122,35.26151559,-97.47381242,326.3,1.28,9.101999,317,-0.268,1.136,9.556,0
123,35.26152555,-97.47382538,325.8,1.32,10.6189995,318,-0.266,1.137,9.562,0
124,35.26153321,-97.47383294,325.6,0.68,10.6189995,318,-0.278,0.855,9.623,0
125,35.26153321,-97.47383294,325.6,0.68,10.6189995,318,-0.265,1.264,9.522,0
126,35.26154732,-97.47382006,0,0,10.6189995,316,-0.261,1.395,9.497,1
127,35.26154732,-97.47382006,0,0,10.6189995,316,-0.259,1.42,9.489,1
128,35.26154732,-97.47382006,0,0,10.6189995,316,-0.262,1.422,9.489,1
129,35.26154732,-97.47382006,0,0,10.6189995,316,-0.26,1.424,9.49,1
130,35.26154306,-97.47380787,0,0,9.101999,317,-0.259,1.422,9.489,1
133,35.26154306,-97.47380787,0,0,9.101999,317,-0.26,1.426,9.492,1
134,35.26154306,-97.47380787,0,0,9.101999,317,-0.261,1.424,9.49,1
135,35.26153381,-97.47380788,0,0,7.585,318,-0.261,1.425,9.485,1
136,35.26153381,-97.47380788,0,0,7.585,318,-0.261,1.423,9.488,1
137,35.26153381,-97.47380788,0,0,7.585,318,-0.259,1.425,9.49,1
138,35.26153381,-97.47380788,0,0,7.585,318,-0.255,1.425,9.489,1
139,35.26153381,-97.47380788,0,0,7.585,318,-0.259,1.425,9.486,1
140,35.26153381,-97.47380788,0,0,7.585,318,-0.26,1.423,9.487,1
141,35.26153381,-97.47380788,0,0,7.585,318,-0.257,1.425,9.491,1
142,35.26153381,-97.47380788,0,0,7.585,318,-0.256,1.425,9.489,1
143,35.26153381,-97.47380788,0,0,7.585,318,-0.257,1.474,9.476,1
144,35.26153381,-97.47380788,0,0,7.585,318,-0.256,1.462,9.476,1
145,35.26153381,-97.47380788,0,0,7.585,318,-0.253,1.578,9.449,1
146,35.26153381,-97.47380788,0,0,7.585,318,-0.241,1.782,9.401,1
147,35.26153381,-97.47380788,0,0,7.585,318,-0.24,1.891,9.367,1
148,35.26153381,-97.47380788,0,0,7.585,318,-0.21,2.863,9.121,1
149,35.26154525,-97.47382645,324.4,3.06,15.17,319,-0.198,3.032,9.074,1
150,35.26157571,-97.47385673,322.8,4.92,15.17,320,-0.202,2.922,9.109,1
151,35.26161211,-97.4738918,323.2,4.92,15.17,320,-0.218,2.901,9.097,1
152,35.26168369,-97.47397648,323.2,7.5,15.17,319,-0.189,2.888,9.113,1
153,35.26173784,-97.47402593,323.2,7.5,15.17,319,-0.157,2.682,9.114,1
154,35.26182809,-97.47409852,323.4,10.28,15.17,316,-0.223,2.22,9.297,1
155,35.26190282,-97.47415562,324.1,10.97,15.17,314,-0.235,1.707,9.41,1
156,35.2619829,-97.47422642,324.1,10.97,15.17,314,-0.213,1.247,9.542,1
157,35.26206507,-97.474313,323.9,10.88,15.17,312,-0.261,1.152,9.543,1
158,35.26215439,-97.47437269,324.2,10.51,15.17,312,-0.297,0.264,9.746,1
159,35.26223382,-97.47444115,323.7,9.15,7.585,309,-0.26,0.176,9.768,1
160,35.26228751,-97.47449856,324,7.98,7.585,308,-0.254,0.819,9.62,1
161,35.26234261,-97.47455377,322.7,7.51,7.585,307,-0.264,0.934,9.612,1
162,35.26239136,-97.47460417,323.4,7.13,7.585,307,-0.244,1.937,9.37,1
163,35.26245083,-97.47464357,323.2,7.64,7.585,307,-0.249,3.226,9.002,1
164,35.26251808,-97.47471524,323,9.91,7.585,308,-0.223,3.398,8.965,1
165,35.26260112,-97.47478206,323.2,11.96,7.585,307,-0.218,3.403,8.954,1
166,35.26269734,-97.47487152,322.9,14.04,7.585,307,-0.181,3.233,9.04,1
167,35.26279056,-97.47498154,323.2,15.86,7.585,307,-0.194,2.928,9.116,1
168,35.26292014,-97.47507916,323.4,17.38,7.585,306,-0.249,2.567,9.182,1
169,35.26318437,-97.47532556,323.2,19.41,7.585,307,-0.243,2.326,9.248,1
170,35.26332448,-97.4754534,323.2,19.41,10.6189995,307,-0.157,2.249,9.171,1
171,35.26346089,-97.47559443,323.9,21.02,7.585,306,-0.054,2.221,9.293,1
172,35.26362023,-97.47573858,324,21.95,9.101999,305,-0.065,2.169,9.302,1
173,35.26378505,-97.47588555,323.9,22.71,9.101999,305,-0.089,2.144,9.313,1
174,35.26395313,-97.47605337,323.9,23.51,9.101999,306,-0.049,2.098,9.397,1
175,35.26412446,-97.47620917,324.6,24.11,9.101999,306,0.18,2.047,9.328,1
176,35.26430807,-97.47636814,325.5,24.78,9.101999,306,0.205,1.92,9.453,1
177,35.26449214,-97.4765224,325.5,24.78,10.6189995,306,0.128,1.566,9.445,1
178,35.2646821,-97.47666747,326.6,24.86,9.101999,311,0.321,1.535,9.507,1
179,35.26486671,-97.47680917,327.6,24.7,9.101999,310,0.177,1.257,9.623,1
180,35.26505378,-97.4769469,328.2,24.35,9.101999,309,0.08,1.239,9.646,1
181,35.26524039,-97.47708775,328.2,24.34,9.101999,308,0.048,1.296,9.569,1
182,35.26543464,-97.47722325,329.4,24.09,7.585,308,0.16,1.327,9.513,1
183,35.26562152,-97.477358,329.4,24.08,10.6189995,308,0.146,1.314,9.526,1
184,35.26581601,-97.47748196,330.7,23.66,7.585,308,0.177,1.281,9.541,1
185,35.26600285,-97.47759738,331.3,23.73,7.585,312,0.182,1.16,9.511,1
186,35.2661869,-97.47771765,332.3,22.91,7.585,311,0.069,1.132,9.599,1
187,35.26637502,-97.47782331,332.7,22.56,7.585,310,0.034,1.116,9.53,1
188,35.26654536,-97.47792405,333.4,21.96,7.585,309,0.044,1.246,9.585,1
189,35.26672405,-97.4780228,333.5,22.14,7.585,308,0.07,1.321,9.532,1
190,35.26690547,-97.47812855,334.4,22.02,7.585,309,0.137,1.369,9.518,1
191,35.26708685,-97.47822881,335.1,21.69,7.585,309,0.087,1.422,9.505,1
192,35.26725401,-97.47831852,335.4,21.58,7.585,309,0.074,1.434,9.461,1
193,35.26742482,-97.47841088,336.8,21.34,7.585,310,0.112,1.403,9.506,1
194,35.26760577,-97.47850864,336.9,21.28,7.585,309,0.082,1.389,9.52,1
195,35.26777495,-97.47861188,337.1,21.16,7.585,310,0.06,1.402,9.476,1
197,35.26794534,-97.47871667,336.3,21.25,7.585,311,0.077,1.4,9.477,1
198,35.2681147,-97.47879329,338.5,20.91,7.585,313,0.093,1.323,9.476,1
199,35.26829547,-97.47888668,338.9,20.77,7.585,313,0.113,1.302,9.503,1
200,35.26845738,-97.47895621,339.8,20.54,7.585,313,0.088,1.319,9.518,1
201,35.26862654,-97.47903348,340.3,20.3,7.585,313,0.096,1.214,9.513,1
202,35.26878772,-97.4790978,341,19.93,7.585,315,0.087,1.131,9.532,1
203,35.26895808,-97.47917536,340.6,19.95,7.585,317,0.045,1.123,9.521,1
204,35.26912934,-97.47927382,341.3,19.56,7.585,321,-0.02,1.124,9.519,1
205,35.26927897,-97.47932651,341.5,19.03,7.585,321,-0.103,1.124,9.49,1
206,35.26943549,-97.47937768,343.2,18.68,7.585,321,-0.019,0.431,9.665,1
207,35.26958852,-97.4794265,343,17.2,7.585,322,-0.069,0.223,9.746,1
208,35.26973207,-97.47949334,343.1,16.1,7.585,321,-0.222,0.447,9.68,1
209,35.26986765,-97.47953024,343,15.44,7.585,320,-0.18,0.971,9.56,1
210,35.27000098,-97.4795631,343.2,15.34,7.585,318,-0.2,1.116,9.544,1
211,35.27012904,-97.47961264,342.1,15.06,7.585,318,-0.232,1.654,9.436,1
212,35.27026756,-97.47965554,342.9,15.42,6.068,318,-0.227,2.107,9.294,1
213,35.27040805,-97.4797103,343.1,16.13,7.585,319,-0.201,1.453,9.48,1
214,35.27055185,-97.47974595,343.5,15.83,6.068,319,-0.332,-0.406,9.941,1
215,35.27067587,-97.47980055,342.5,13.83,6.068,318,-0.336,0.339,9.758,1
216,35.27079723,-97.47984794,343.8,13.21,6.068,317,-0.292,1.003,9.574,1
217,35.2709103,-97.47987897,343.2,12.77,6.068,316,-0.311,0.188,9.81,1
218,35.27100971,-97.47991901,342.9,11.23,7.585,316,-0.341,-0.28,9.903,1
219,35.27109907,-97.47995886,343,9.22,6.068,316,-0.315,-0.409,9.918,0
220,35.27117148,-97.47998637,343.1,7.69,7.585,316,-0.236,1.265,9.52,0
221,35.27124037,-97.48001459,343.6,8.24,6.068,316,-0.095,3.501,8.93,0
222,35.2713338,-97.48006137,343.5,10.02,7.585,315,-0.185,4.011,8.806,0
223,35.27145584,-97.48010501,343.5,14.65,6.068,315,-0.216,4.043,8.802,0
224,35.27160251,-97.48014578,343.7,17.04,7.585,312,-0.144,3.569,8.959,0
225,35.27176438,-97.48021057,343.6,18.62,6.068,312,-0.192,2.911,9.135,0
226,35.27192541,-97.48026824,343.6,18.61,9.101999,312,-0.258,2.375,9.272,0
227,35.27212996,-97.48032697,343.6,21.01,7.585,311,-0.3,1.515,9.5,0
228,35.27231157,-97.48039235,343.6,21,9.101999,311,-0.306,1.205,9.535,1
229,35.27249578,-97.48046206,342.6,21.28,9.101999,311,-0.308,1.178,9.561,1
230,35.27266621,-97.48054834,342.6,20.65,7.585,311,-0.245,1.157,9.576,1
231,35.2728439,-97.48061606,342.6,20.65,9.101999,311,-0.229,1.155,9.582,1
232,35.27301514,-97.48068053,343.6,20.19,7.585,312,-0.224,1.16,9.601,1
233,35.27318971,-97.48074335,343.6,20.19,9.101999,312,-0.288,1.157,9.558,1
234,35.27334745,-97.48080958,342.9,19.71,7.585,311,-0.295,1.168,9.579,1
235,35.27351725,-97.48087335,342.9,19.71,9.101999,311,-0.269,1.255,9.575,1
236,35.27368386,-97.48093252,342.9,19.17,7.585,311,-0.246,1.387,9.61,1
237,35.273849,-97.48099464,342.9,19.17,9.101999,311,-0.203,1.154,9.612,1
238,35.27401325,-97.48104672,343.3,18.8,15.17,311,-0.21,-0.202,9.874,1
239,35.27417554,-97.48110622,343.3,18.8,16.687,311,-0.252,-0.553,10.019,0
240,35.2742891,-97.48115275,343.6,14.28,15.17,313,-0.294,-0.684,10.058,0
241,35.27440258,-97.48120399,343.5,12.43,15.17,314,-0.295,-0.788,10.033,0
242,35.27450999,-97.4812429,343.5,12.43,16.687,314,-0.27,-0.395,9.927,0
243,35.27456023,-97.4812434,346.7,7.88,16.687,312,-0.252,0.792,9.653,0
244,35.27462938,-97.48126331,346.7,7.88,18.203999,312,-0.32,0.947,9.613,0
245,35.27465851,-97.48129849,343.3,6.24,15.17,310,-0.271,1.054,9.58,0
246,35.27471242,-97.48131823,343.3,6.24,16.687,310,-0.221,0.622,9.674,0
247,35.27474317,-97.48133557,343,4.96,15.17,308,-0.228,0.131,9.794,0
248,35.27478595,-97.48135148,343,4.96,16.687,308,-0.243,0.451,9.724,0
249,35.27478597,-97.48137801,341,2.21,16.687,309,-0.235,1.038,9.581,0
250,35.27479568,-97.4813814,344.3,1.39,15.17,309,-0.247,1.214,9.534,0
251,35.27480856,-97.48138256,344.4,1.12,15.17,310,-0.274,1.03,9.575,1
252,35.27481834,-97.48138559,344.4,1.12,16.687,310,-0.265,1.254,9.529,1
253,35.27482704,-97.48135989,0,0,15.17,307,-0.259,1.519,9.461,1
254,35.27482704,-97.48135989,0,0,15.17,307,-0.259,1.579,9.448,1
255,35.27482704,-97.48135989,0,0,15.17,307,-0.26,1.594,9.449,1
256,35.27482704,-97.48135989,0,0,15.17,307,-0.254,1.597,9.445,1
257,35.27482704,-97.48135989,0,0,15.17,307,-0.253,1.598,9.445,1
258,35.27482704,-97.48135989,0,0,15.17,307,-0.258,1.597,9.446,1
259,35.27482316,-97.48138108,0,0,16.687,307,-0.255,1.597,9.445,1
260,35.27482316,-97.48138108,0,0,16.687,307,-0.252,1.596,9.445,1
261,35.27482316,-97.48138108,0,0,16.687,307,-0.261,1.597,9.446,1
262,35.27482316,-97.48138108,0,0,16.687,307,-0.254,1.598,9.445,1
263,35.27482316,-97.48138108,0,0,16.687,307,-0.256,1.598,9.445,1
264,35.27482316,-97.48138108,0,0,16.687,307,-0.259,1.596,9.445,1
265,35.27482316,-97.48138108,0,0,16.687,307,-0.254,1.596,9.442,1
266,35.27482316,-97.48138108,0,0,16.687,307,-0.257,1.598,9.442,1
267,35.27482316,-97.48138108,0,0,16.687,307,-0.259,1.598,9.442,1
268,35.27482316,-97.48138108,0,0,16.687,307,-0.256,1.598,9.442,1
269,35.27482316,-97.48138108,0,0,16.687,307,-0.258,1.629,9.43,1
270,35.27482316,-97.48138108,0,0,16.687,307,-0.249,1.826,9.388,1
271,35.27482316,-97.48138108,0,0,16.687,307,-0.233,2.376,9.248,1
272,35.27482316,-97.48138108,0,0,16.687,307,-0.205,3.053,9.092,1
273,35.2748502,-97.48139338,348.4,3.71,15.17,310,-0.196,3.214,9.024,1
274,35.27489537,-97.48141558,345.9,5.06,16.687,310,-0.202,3.075,9.068,1
275,35.27494533,-97.48144992,343.1,6.36,16.687,310,-0.254,2.973,9.101,1
277,35.27499701,-97.48147589,342.8,7.5,16.687,313,-0.311,2.955,9.11,1
278,35.27506608,-97.48150132,343.8,8.66,16.687,314,-0.311,2.91,9.097,1
279,35.27514693,-97.48154295,341.5,9.64,16.687,313,-0.317,2.922,9.093,1
280,35.27524597,-97.48158045,342.2,10.86,16.687,314,-0.327,2.81,9.143,1
281,35.27536763,-97.48159237,344.1,12.33,16.687,312,-0.356,2.817,9.148,1
282,35.27549588,-97.48157988,349.3,12.92,16.687,310,-0.325,2.764,9.142,1
283,35.27563,-97.48161236,348.4,13.95,16.687,310,-0.356,2.695,9.126,1
284,35.27577348,-97.48166075,346.8,15,16.687,312,-0.308,2.717,9.155,1
285,35.27593572,-97.48170674,346.5,16.13,16.687,312,-0.214,2.672,9.215,1
286,35.27608865,-97.48175073,346.3,16.89,16.687,310,-0.2,2.594,9.211,1
287,35.27623683,-97.4818079,345,17.59,16.687,312,-0.097,2.52,9.193,1
288,35.27640659,-97.48190591,342.8,19.36,15.17,313,0.161,2.438,9.109,1
289,35.27657722,-97.48196911,343.4,19.96,15.17,314,0.053,2.257,9.088,1
290,35.27675621,-97.48204628,343.2,20.72,15.17,314,0.032,2.11,9.15,1
291,35.27694001,-97.48212321,343.1,21.1,15.17,315,-0.08,2.066,9.284,1
292,35.27713252,-97.48220315,342.9,21.72,15.17,316,-0.172,1.992,9.362,1
293,35.27732433,-97.4822732,342.8,21.7,13.653,317,-0.253,2.121,9.349,1
294,35.2775248,-97.48233592,343,22.55,13.653,317,-0.22,2.102,9.245,1
295,35.27773306,-97.48239295,344.1,22.94,15.17,316,-0.171,2.072,9.208,1
296,35.27793715,-97.48246489,343.3,23.55,15.17,316,-0.207,2.052,9.279,1
297,35.27815168,-97.48254713,342.8,24.2,15.17,317,-0.117,1.815,9.377,1
298,35.27835524,-97.48262921,342.4,24.43,15.17,319,-0.063,1.373,9.464,1
299,35.27856587,-97.4827115,342.7,24.4,15.17,319,-0.225,1.306,9.474,1
300,35.27878402,-97.48277482,343.3,24.26,15.17,321,-0.159,1.54,9.443,1
301,35.27900681,-97.48284935,343.3,24.41,15.17,321,-0.093,1.81,9.382,1
302,35.279221,-97.48293005,342.7,24.5,15.17,322,-0.091,1.945,9.332,1
303,35.27942965,-97.48301902,342.4,25.04,15.17,322,0.049,1.917,9.378,1
304,35.2796499,-97.48310822,342.7,25.47,15.17,320,-0.031,1.774,9.445,1
305,35.27986954,-97.48319823,343.4,25.86,15.17,321,-0.1,1.501,9.48,1
306,35.28008681,-97.48329037,343.3,25.76,13.653,322,-0.186,1.697,9.419,1
307,35.28032508,-97.483356,343.8,26.07,13.653,322,-0.091,1.654,9.476,1
308,35.28055748,-97.48344668,343.5,26.36,15.17,322,-0.162,1.495,9.485,1
309,35.2807786,-97.48353847,343.4,26.23,15.17,323,-0.224,1.285,9.482,1
310,35.28100308,-97.48361525,343.7,26.01,15.17,322,-0.241,1.464,9.405,1
311,35.28122707,-97.48369268,343.6,25.85,15.17,324,-0.33,1.261,9.464,1
312,35.28145575,-97.48377548,343.3,25.8,13.653,326,-0.114,1.423,9.41,1
313,35.28167764,-97.48385767,343.3,25.77,15.17,326,-0.134,1.573,9.459,1
314,35.28190217,-97.48393136,343.7,25.81,15.17,327,-0.163,1.746,9.499,1
315,35.28213191,-97.48399186,344,26.06,15.17,327,-0.174,1.661,9.582,1
316,35.28236165,-97.48407823,343.7,26.26,13.653,329,-0.277,1.555,9.447,1
317,35.28259762,-97.48414874,343.9,26.31,13.653,328,-0.206,1.552,9.484,1
318,35.28282166,-97.48422926,343.5,26.31,13.653,329,-0.23,1.548,9.522,1
319,35.28305622,-97.48432061,343.3,26.48,15.17,327,-0.285,1.722,9.245,1
320,35.28327966,-97.48440576,343.6,26.29,13.653,327,-0.547,1.901,9.387,1
321,35.28351388,-97.48449502,343.1,26.89,15.17,329,-0.528,2.103,9.3,1
322,35.28375046,-97.48458254,342.3,27.26,15.17,329,-0.171,2.116,9.446,1
323,35.28399595,-97.48468595,341.3,28.18,13.653,329,0.069,2.053,9.273,1
324,35.28423545,-97.48479764,341.3,28.69,13.653,331,0.392,2.02,9.3,1
325,35.2844914,-97.48488274,342.3,29.25,13.653,330,0.001,2.017,9.33,1
326,35.28474348,-97.48498943,342.7,29.69,13.653,332,-0.231,2.011,9.341,1
327,35.28501006,-97.48509012,343,30.35,13.653,331,-0.238,1.983,9.353,1
328,35.28527173,-97.48518376,343.1,30.86,13.653,331,-0.148,1.976,9.39,1
329,35.28554064,-97.48529125,342.9,31.33,13.653,332,-0.17,1.974,9.342,1
330,35.28581288,-97.48538877,342.9,31.77,13.653,332,-0.208,2.241,9.32,1
331,35.28609991,-97.48548323,343,32.57,13.653,332,-0.522,2.207,9.326,1
332,35.28637928,-97.48560457,342.4,33.32,13.653,333,-0.557,2.244,9.323,1
333,35.28666439,-97.4857258,342.1,33.61,13.653,333,-0.052,2.219,9.343,1
334,35.28696917,-97.485854,341.4,34.77,13.653,334,0.246,2.142,9.273,1
335,35.28727085,-97.48597363,341.6,35.27,13.653,334,0.405,2.223,9.236,1
336,35.2878996,-97.48620115,342.9,36.65,13.653,333,0.246,1.448,9.533,1
337,35.2882099,-97.4863178,343.2,36.09,13.653,332,0.045,0.947,9.58,1
338,35.28851379,-97.48642394,343.6,35.5,13.653,334,-0.191,0.92,9.611,1
339,35.28881444,-97.48654362,343.2,34.82,13.653,334,-0.235,0.896,9.594,1
340,35.28911004,-97.48665856,343.5,34.61,13.653,335,-0.091,1.033,9.583,1
341,35.28940826,-97.48676263,343.5,34.04,13.653,334,-0.053,1.233,9.526,1
342,35.28970164,-97.48685468,343.6,33.69,13.653,334,-0.095,1.316,9.516,1
343,35.28998728,-97.48696752,343.1,33.65,13.653,335,-0.076,1.353,9.556,1
344,35.29027034,-97.48707903,343,33.4,13.653,336,-0.13,1.333,9.487,1
345,35.29056565,-97.48717006,343.4,33.29,13.653,335,-0.109,1.333,9.446,1
346,35.29084222,-97.48727148,343.1,33.07,13.653,335,-0.079,1.473,9.399,1
347,35.29112449,-97.48738347,343,33.19,13.653,335,-0.048,1.465,9.466,1
348,35.29140776,-97.48745975,343.7,32.44,13.653,334,-0.116,1.461,9.422,1
349,35.29170352,-97.48754985,343.8,33.15,13.653,332,-0.139,1.483,9.376,1
350,35.29199104,-97.48766368,343.4,33.23,13.653,331,-0.134,1.471,9.33,1
351,35.29228385,-97.48777057,343.2,33.28,13.653,331,-0.154,1.512,9.421,1
352,35.29256971,-97.4878916,343,33.43,13.653,329,-0.223,1.467,9.411,1
353,35.29285085,-97.48799674,342.9,33.36,13.653,329,-0.098,1.434,9.469,1
354,35.29313935,-97.48810676,342.9,33.45,13.653,329,-0.099,1.439,9.576,1
355,35.29343413,-97.48820524,343.2,33.52,13.653,328,-0.07,1.384,9.444,1
356,35.29373374,-97.48831231,343.2,33.87,13.653,329,-0.063,1.396,9.497,1
357,35.29402569,-97.48841833,343.2,33.66,13.653,329,-0.108,1.37,9.473,1
358,35.29431715,-97.48852307,343.2,33.66,13.653,329,-0.141,1.365,9.545,1
359,35.29460973,-97.48862361,343.3,33.68,13.653,328,-0.085,1.292,9.514,1
360,35.29489219,-97.4887328,343.2,33.63,13.653,328,0.035,1.225,9.627,1
361,35.29518213,-97.48883066,343.4,33.36,13.653,328,0.021,1.136,9.582,1
363,35.29546942,-97.48892848,343.6,33.09,13.653,329,0.025,1.136,9.549,1
364,35.29575663,-97.48903829,343.8,32.98,13.653,329,0.002,1.192,9.627,1
365,35.29603949,-97.4891345,344.3,32.8,13.653,329,0.121,1.199,9.564,1
366,35.29631618,-97.48923425,344.8,32.51,13.653,330,0.188,1.187,9.628,1
367,35.29659839,-97.48932526,345.8,32.34,13.653,330,0.363,1.172,9.665,1
368,35.29688168,-97.48941445,346.8,32.2,13.653,329,0.526,1.142,9.638,1
369,35.29715887,-97.48949256,348.3,31.61,13.653,330,0.629,1.22,9.695,1
370,35.29743105,-97.48956622,350.1,31.44,13.653,330,0.451,1.229,9.684,1
371,35.29770737,-97.48962807,351.1,30.91,13.653,331,0.288,1.318,9.609,1
372,35.29798113,-97.48967431,352.1,30.63,13.653,331,0.235,1.372,9.515,1
373,35.29825818,-97.48970294,353,30.4,13.653,330,0.165,1.417,9.43,1
374,35.29851965,-97.48973458,353.6,30.19,13.653,329,0.14,1.448,9.398,1
375,35.29879139,-97.48976814,354.3,30.12,13.653,330,0.319,1.47,9.508,1
376,35.29906046,-97.48979155,355.4,30.02,13.653,330,0.437,1.485,9.585,1
377,35.29933046,-97.48981078,356.8,29.89,13.653,330,0.269,1.468,9.488,1
378,35.29959356,-97.48982091,357.8,29.72,13.653,330,0.096,1.493,9.416,1
379,35.29986248,-97.48981657,358.5,29.71,13.653,330,0.163,1.562,9.468,1
380,35.30012882,-97.48981311,359.3,29.63,13.653,330,0.045,1.574,9.399,1
381,35.30039459,-97.48981504,359.9,29.64,13.653,330,-0.019,1.576,9.421,1
382,35.30065176,-97.4898235,0,29.46,13.653,330,-0.014,1.577,9.358,1
383,35.30091677,-97.48982489,0.2,29.54,13.653,331,-0.081,1.6,9.374,1
384,35.30118281,-97.48982001,0.4,29.63,13.653,331,-0.167,1.595,9.396,1
385,35.30144638,-97.48981288,0.2,29.65,13.653,330,-0.139,1.589,9.417,1
386,35.30170958,-97.48981932,359.9,29.67,13.653,330,-0.192,1.575,9.474,1
387,35.30199025,-97.48982252,359.8,29.86,13.653,328,-0.166,1.539,9.436,1
388,35.30225945,-97.48982341,359.8,29.86,13.653,329,-0.238,1.478,9.493,1
389,35.30253119,-97.48981718,359.8,29.83,13.653,329,-0.066,1.371,9.492,1
390,35.30280005,-97.48981814,359.8,29.82,15.17,329,0.06,1.206,9.469,1
391,35.30307129,-97.48982521,359.9,29.8,15.17,329,0.116,1.079,9.49,1
392,35.30332639,-97.48982049,0.7,29.2,13.653,329,-0.101,1.178,9.471,1
393,35.30357808,-97.4898104,0.9,28.84,13.653,330,-0.131,1.266,9.472,1
394,35.30383163,-97.48980721,0.9,28.66,13.653,330,-0.288,1.347,9.496,1
395,35.30408677,-97.48979938,0.7,28.59,13.653,329,-0.37,1.375,9.489,1
396,35.30434857,-97.48979034,0.1,28.79,13.653,329,-0.34,1.32,9.519,1
397,35.30460915,-97.48979084,0,28.56,13.653,329,-0.139,1.279,9.519,1
398,35.30486308,-97.48979911,0,28.28,13.653,328,-0.321,1.265,9.495,1
399,35.30510899,-97.48980628,0,28.08,13.653,329,-0.225,1.273,9.572,1
400,35.30536457,-97.48980674,359.9,27.81,13.653,329,-0.513,1.298,9.537,1
401,35.30561526,-97.48981121,359.5,28.02,13.653,329,-0.431,1.326,9.524,1
402,35.30586061,-97.48982066,359,27.59,13.653,329,-0.248,1.332,9.499,1
403,35.30611422,-97.48982103,358.5,27.57,13.653,329,0.006,1.358,9.512,1
404,35.30636879,-97.48982475,358.8,27.7,13.653,329,0.063,1.446,9.452,1
405,35.30661277,-97.48982566,359.3,27.64,13.653,329,0.136,1.44,9.478,1
406,35.30685673,-97.48982852,359.6,27.4,13.653,329,0.032,1.456,9.454,1
407,35.30710301,-97.48982555,359.6,27.38,13.653,330,0,1.492,9.525,1
408,35.30735346,-97.48982682,0.1,27.73,13.653,330,-0.059,1.494,9.448,1
409,35.30760561,-97.48982004,0.5,27.8,13.653,330,-0.167,1.524,9.499,1
410,35.30784987,-97.48982211,0.2,27.69,13.653,329,-0.09,1.52,9.471,1
411,35.30810459,-97.48982022,0,27.97,13.653,330,-0.071,1.491,9.497,1
412,35.30860469,-97.48982231,0.1,28.18,13.653,330,-0.143,1.533,9.471,1
413,35.30885727,-97.48981784,359.9,27.95,13.653,330,-0.163,1.561,9.467,1
414,35.30910736,-97.48981625,0,28.14,13.653,330,-0.102,1.56,9.443,1
415,35.30936233,-97.48981986,359.9,28.23,13.653,329,-0.019,1.532,9.458,1
416,35.3096164,-97.48981822,0.4,28.15,13.653,330,-0.107,1.555,9.548,1
417,35.30986504,-97.48982469,359.9,28.31,13.653,330,-0.002,1.525,9.442,1
418,35.31012453,-97.48982217,359.8,28.87,13.653,330,-0.029,1.737,9.46,1
419,35.31039226,-97.48982232,359.6,28.84,13.653,330,-0.034,1.807,9.372,1
420,35.31066415,-97.48982149,0,29.2,13.653,330,-0.043,1.865,9.366,1
421,35.31092108,-97.48981221,1.1,28.87,13.653,330,-0.011,1.836,9.383,1
422,35.31119772,-97.48981201,0.6,29.94,13.653,331,-0.228,1.917,9.467,1
423,35.31146781,-97.48981296,359.5,30.4,13.653,331,-0.236,1.882,9.405,1
424,35.31174151,-97.48980702,359.8,30.67,13.653,330,-0.097,1.872,9.431,1
425,35.31201688,-97.48980952,0.1,30.97,13.653,330,-0.161,1.858,9.39,1
426,35.31229762,-97.48981176,359.9,31.43,13.653,331,-0.182,1.842,9.405,1
427,35.31258472,-97.48980599,359.8,31.63,13.653,331,-0.212,1.84,9.441,1
428,35.31287347,-97.48980451,359.7,31.95,13.653,331,-0.051,1.796,9.361,1
429,35.3131655,-97.48980739,359.9,32.13,13.653,331,-0.083,1.535,9.423,1
430,35.31345435,-97.48981379,359.8,32.04,13.653,331,-0.079,1.336,9.549,1
432,35.31372965,-97.48981793,0,31.96,13.653,331,-0.086,1.231,9.512,1
433,35.31401289,-97.48982792,0,31.51,13.653,331,-0.105,1.284,9.482,1
434,35.31429673,-97.48983577,359.9,31.22,13.653,332,-0.039,1.353,9.518,1
435,35.31457685,-97.48983271,0,31.14,13.653,332,-0.029,1.441,9.37,1
436,35.31486122,-97.48982702,0.3,31.05,13.653,332,-0.105,1.574,9.43,1
437,35.31514002,-97.48982457,0.1,31.05,13.653,331,-0.133,1.613,9.403,1
438,35.31542075,-97.4898247,0.1,31.2,13.653,331,-0.105,1.656,9.468,1
439,35.31570422,-97.48981443,0,31.45,13.653,332,-0.126,1.648,9.446,1
440,35.31599009,-97.48980516,0.7,31.32,15.17,332,-0.118,1.672,9.408,1
441,35.31626933,-97.48982492,359.8,31.28,15.17,332,-0.087,1.715,9.505,1
442,35.31656106,-97.48983362,0.1,31.57,15.17,331,-0.116,1.704,9.449,1
443,35.31684317,-97.48982493,0.5,31.57,16.687,331,-0.204,1.697,9.395,1
444,35.31712765,-97.48982165,0.5,31.56,18.203999,331,-0.084,1.773,9.392,1
445,35.31743096,-97.48981451,0.3,32.19,15.17,331,-0.111,1.746,9.404,1
446,35.31771415,-97.48981506,0,32.39,15.17,332,-0.133,1.635,9.47,1
447,35.31800137,-97.48981347,359.9,32.4,15.17,332,-0.052,1.613,9.454,1
448,35.31828646,-97.48980783,0,32.55,13.653,333,-0.12,1.584,9.362,1
449,35.31857712,-97.48981369,359.8,32.65,13.653,333,-0.071,1.608,9.442,1
450,35.31887778,-97.48982312,359.9,32.48,13.653,333,-0.094,1.569,9.317,1
451,35.31917335,-97.48982676,359.9,32.72,13.653,334,-0.11,1.583,9.405,1
452,35.31946752,-97.48983229,359.9,32.75,13.653,334,-0.049,1.569,9.338,1
453,35.31976848,-97.4898282,0,32.84,13.653,335,-0.014,1.566,9.376,1
454,35.32006653,-97.48983423,359.8,32.99,13.653,335,-0.169,1.588,9.485,1
455,35.32036434,-97.48983365,359.7,33.28,13.653,336,-0.098,1.568,9.437,1
456,35.32066379,-97.48984048,359.7,33.23,13.653,337,-0.071,1.578,9.434,1
457,35.32096079,-97.48984488,359.8,33.43,13.653,336,-0.049,1.563,9.446,1
458,35.32126883,-97.48984573,359.9,33.68,13.653,336,-0.11,1.407,9.508,1
459,35.3215745,-97.48983822,359.9,33.58,13.653,335,-0.123,1.415,9.482,1
460,35.3218756,-97.48984222,359.8,33.45,13.653,336,-0.145,1.533,9.498,1
461,35.32218525,-97.48984233,359.7,33.78,13.653,336,-0.079,1.553,9.529,1
462,35.3224913,-97.48983343,0,33.57,13.653,335,-0.072,1.526,9.454,1
463,35.32279483,-97.48983562,0,33.71,13.653,336,-0.086,1.517,9.56,1
464,35.32309733,-97.48983641,0,33.73,13.653,336,-0.09,1.505,9.516,1
465,35.32340437,-97.48983402,0,33.87,13.653,336,-0.123,1.492,9.475,1
466,35.32371002,-97.48982797,0.1,33.63,13.653,336,-0.16,1.49,9.437,1
467,35.32401401,-97.48983273,359.9,33.72,13.653,337,-0.18,1.514,9.5,1
468,35.32431725,-97.48983487,359.8,33.58,13.653,337,-0.177,1.51,9.488,1
469,35.32462166,-97.48983499,359.9,33.62,13.653,337,-0.138,1.493,9.386,1
470,35.3249217,-97.48983754,359.8,33.63,13.653,338,-0.09,1.511,9.504,1
471,35.32522571,-97.48983985,359.7,33.68,13.653,338,0.019,1.492,9.421,1
472,35.32553286,-97.48984291,0,33.6,13.653,338,-0.199,1.524,9.475,1
473,35.32584084,-97.48983923,0.1,33.6,13.653,338,-0.093,1.534,9.491,1
474,35.32614138,-97.48984654,359.8,33.47,13.653,338,0.019,1.51,9.423,1
475,35.32643611,-97.48983636,0.1,33.48,13.653,337,0.01,1.527,9.515,1
476,35.32675027,-97.48981977,0.1,33.63,13.653,336,-0.104,1.509,9.454,1
477,35.32705107,-97.48981982,0,33.63,13.653,337,-0.111,1.515,9.49,1
478,35.32734798,-97.48981999,359.8,33.78,13.653,337,-0.107,1.505,9.425,1
479,35.32764835,-97.48982219,359.9,33.57,13.653,336,-0.102,1.517,9.455,1
480,35.32795377,-97.48983467,359.9,33.57,13.653,337,-0.096,1.502,9.403,1
481,35.32826414,-97.48982831,0,33.66,13.653,336,-0.075,1.494,9.419,1
482,35.32856776,-97.48983198,359.9,33.62,13.653,337,0.041,1.512,9.511,1
483,35.32887158,-97.48982345,0.4,33.47,13.653,336,-0.104,1.506,9.464,1
484,35.32917752,-97.48982118,0.2,33.59,13.653,337,-0.144,1.518,9.47,1
485,35.32946676,-97.48982661,0.1,33.64,13.653,337,-0.139,1.527,9.466,1
486,35.33005872,-97.48982632,359.9,33.64,13.653,338,-0.122,1.502,9.355,1
487,35.33035638,-97.48981965,359.9,33.55,13.653,337,-0.167,1.517,9.461,1
488,35.3306519,-97.48982561,0,33.62,13.653,337,-0.064,1.515,9.437,1
489,35.33095262,-97.48983058,359.8,33.75,13.653,337,-0.028,1.51,9.411,1
490,35.33125149,-97.48982677,359.8,33.58,13.653,338,-0.144,1.521,9.455,1
491,35.33155342,-97.48983233,359.9,33.7,13.653,338,-0.1,1.522,9.429,1
492,35.33186728,-97.48982152,359.7,33.5,13.653,337,-0.035,1.52,9.486,1
493,35.33218287,-97.48981697,359.9,33.6,13.653,336,0.008,1.526,9.536,1
494,35.3324856,-97.48982334,359.4,33.41,15.17,336,-0.292,1.527,9.493,1
495,35.33280403,-97.48983207,358.2,33.54,15.17,337,-0.391,1.512,9.372,1
496,35.33310363,-97.48984746,356.7,33.69,15.17,337,-0.432,1.504,9.467,1
497,35.33340435,-97.48987363,355.6,33.75,15.17,337,-0.207,1.503,9.532,1
498,35.33370557,-97.48991263,354.3,33.67,15.17,337,-0.344,1.502,9.488,1
499,35.3340076,-97.48994929,354.3,33.67,15.17,337,-0.732,1.537,9.602,1
500,35.33430784,-97.49001391,352.5,33.77,15.17,337,-0.772,1.522,9.528,1
501,35.33461946,-97.49008758,349.6,33.59,15.17,336,-0.517,1.521,9.466,1
502,35.33492028,-97.49017117,347.8,34.01,15.17,337,-0.241,1.531,9.522,1
503,35.33521503,-97.49025801,347.4,33.66,13.653,339,-0.354,1.551,9.5,1
505,35.33550878,-97.49035334,345.9,33.7,13.653,339,-0.745,1.558,9.589,1
506,35.33580003,-97.49045748,344,33.7,13.653,340,-0.605,1.552,9.551,1
507,35.33609469,-97.49057222,342.7,33.63,13.653,340,-0.174,1.548,9.647,1
508,35.33638084,-97.49068129,342.1,33.68,13.653,341,-0.1,1.565,9.64,1
509,35.33666966,-97.49080103,341.5,33.65,13.653,341,0.09,1.57,9.577,1
510,35.33696449,-97.49091197,341.7,33.48,13.653,341,0.158,1.588,9.446,1
511,35.33725098,-97.49102436,341.7,33.32,13.653,341,0.023,1.61,9.422,1
512,35.33753222,-97.49114434,341.5,33.12,13.653,342,-0.111,1.608,9.289,1
513,35.33782176,-97.49123647,342.4,33.23,13.653,342,-0.278,1.682,9.412,1
514,35.33810144,-97.49135944,342,33.12,13.653,342,-0.375,1.715,9.401,1
515,35.33838518,-97.49148102,341.5,33.25,13.653,343,-0.168,1.701,9.259,1
516,35.33866583,-97.49159493,341.4,33.3,13.653,343,-0.197,1.623,9.095,1
517,35.33894894,-97.49171596,341.2,33.35,13.653,344,0.003,1.59,9.298,1
518,35.33923422,-97.4918308,341.4,33.47,13.653,345,-0.062,1.51,9.374,1
519,35.33951448,-97.49195655,341.5,33.51,13.653,346,-0.055,1.455,9.531,1
520,35.33980409,-97.49207907,341.5,33.58,13.653,346,-0.216,1.312,9.431,1
521,35.3400963,-97.49218523,341.4,33.29,13.653,346,-0.212,1.327,9.468,1
522,35.34038011,-97.49230454,341.2,33.14,13.653,346,-0.119,1.314,9.551,1
523,35.34066109,-97.49241458,341.3,32.94,13.653,347,0.008,1.2,9.498,1
524,35.34094329,-97.4925296,341.5,32.76,13.653,347,-0.016,1.192,9.515,1
525,35.34121793,-97.49264459,341.6,32.38,13.653,348,-0.229,1.218,9.522,1
526,35.34149291,-97.49276266,341.3,32.16,13.653,347,-0.158,1.287,9.537,1
527,35.3417598,-97.492878,341.3,31.94,13.653,348,-0.205,1.257,9.495,1
528,35.34203097,-97.49299089,341.3,31.83,13.653,348,-0.062,1.176,9.515,1
529,35.34230561,-97.49309576,341.4,31.56,13.653,347,-0.114,1.126,9.613,1
530,35.3425726,-97.49320896,341.6,31.24,13.653,347,-0.096,1.074,9.685,1
531,35.34283945,-97.49331576,341.1,30.72,13.653,347,-0.017,0.917,9.565,1
532,35.34310997,-97.49342093,341.6,30.34,13.653,347,-0.055,0.88,9.822,1
533,35.34336168,-97.49352493,341.7,29.75,13.653,347,-0.082,0.795,9.608,1
534,35.34361446,-97.49362452,342,29.22,13.653,347,0.073,0.728,9.145,1
535,35.34386131,-97.49371928,342.2,28.64,13.653,347,0.318,0.875,9.569,1
536,35.34410595,-97.49380706,343.3,28.27,13.653,347,0.379,0.943,9.529,1
537,35.34434721,-97.49388174,344.6,28.03,13.653,347,0.277,1.1,9.603,1
538,35.34458785,-97.49395566,345.1,27.75,13.653,347,0.185,1.103,9.538,1
539,35.34483425,-97.4940221,346,27.63,13.653,347,0.2,1.127,9.62,1
540,35.3450711,-97.49410149,346.7,27.45,13.653,347,0.244,1.208,9.722,1
541,35.34530594,-97.49416872,348.1,27.29,13.653,347,0.194,1.339,9.695,1
542,35.34554659,-97.49423357,349.5,27.18,13.653,346,0.184,1.457,9.658,1
543,35.34578919,-97.49427326,349.9,27.52,13.653,345,0.237,1.562,9.567,1
544,35.34603542,-97.49431764,351.1,27.32,13.653,344,0.322,1.675,9.436,1
545,35.34628263,-97.49436434,351.7,27.34,13.653,344,0.307,1.788,9.393,1
546,35.34652042,-97.49441053,352.8,27.63,13.653,344,0.226,1.835,9.344,1
547,35.34677412,-97.49444957,353.8,28.01,13.653,345,0.189,1.884,9.338,1
548,35.34702787,-97.49448854,354.3,28.3,13.653,345,0.287,1.856,9.4,1
549,35.34728805,-97.49451264,355.3,28.65,13.653,345,0.33,1.802,9.347,1
550,35.34754576,-97.49452478,356.5,28.86,13.653,345,0.326,1.814,9.388,1
551,35.34780754,-97.49454078,357.5,29.24,13.653,345,0.181,1.805,9.44,1
552,35.34807683,-97.49454939,358.3,29.43,13.653,346,0.104,1.8,9.426,1
553,35.34835149,-97.49455207,358.7,29.87,13.653,346,0.139,1.776,9.448,1
554,35.34861325,-97.49455109,359.2,29.98,13.653,346,0.018,1.747,9.334,1
555,35.34888683,-97.49455552,359.5,30.24,13.653,346,-0.057,1.708,9.345,1
556,35.34915808,-97.4945589,359.5,30.42,13.653,347,-0.16,1.689,9.415,1
557,35.34942962,-97.49456244,359.7,30.34,13.653,348,-0.233,1.664,9.469,1
558,35.34970236,-97.49456529,359.7,30.51,13.653,348,-0.207,1.639,9.426,1
559,35.34997484,-97.49455586,359.8,30.59,13.653,349,-0.199,1.624,9.427,1
560,35.35024739,-97.49456001,359.6,30.7,13.653,349,-0.227,1.605,9.49,1
561,35.35052298,-97.49456554,359.6,30.95,13.653,349,-0.331,1.598,9.465,1
562,35.35079746,-97.49456705,359.6,30.96,13.653,349,-0.364,1.581,9.465,1
563,35.35107276,-97.4945646,359.7,30.72,13.653,350,-0.263,1.565,9.458,1
564,35.35135249,-97.49456666,359.6,30.92,13.653,350,-0.328,1.577,9.506,1
565,35.35163306,-97.49456897,359.6,30.88,13.653,350,-0.283,1.574,9.439,1
566,35.35191274,-97.49456868,359.3,31.05,13.653,351,-0.234,1.6,9.498,1
567,35.35219102,-97.49456981,359.7,30.89,13.653,351,-0.265,1.562,9.389,1
568,35.35246319,-97.49457177,359.5,30.69,13.653,351,-0.122,1.567,9.435,1
569,35.35273946,-97.49457746,359.4,30.9,13.653,352,-0.16,1.553,9.417,1
570,35.3532858,-97.49456946,359.8,30.8,13.653,353,-0.227,1.559,9.386,1
571,35.35357448,-97.49456988,359.7,31.14,13.653,353,-0.366,1.555,9.468,1
572,35.35384057,-97.49456592,1,29.95,13.653,353,-0.443,1.565,9.461,1
573,35.35412476,-97.49457121,359.5,31.03,13.653,353,-0.371,1.562,9.472,1
574,35.3544035,-97.49457538,359.4,30.92,13.653,353,-0.322,1.551,9.442,1
575,35.35468596,-97.49456292,359.7,30.95,13.653,352,-0.043,1.521,9.42,1
576,35.35496626,-97.49456746,359.7,30.96,13.653,352,-0.112,1.52,9.441,1
577,35.35524607,-97.49456621,359.8,31.02,15.17,352,-0.199,1.536,9.488,1
578,35.35552572,-97.49457127,359.6,30.99,15.17,350,-0.207,1.555,9.471,1
579,35.35579246,-97.49456294,359.5,31,15.17,351,-0.139,1.546,9.445,1
580,35.35606262,-97.49456432,359.6,31.13,15.17,351,-0.183,1.566,9.415,1
581,35.3563558,-97.49456865,359.4,31.1,15.17,351,-0.117,1.561,9.476,1
582,35.35663125,-97.49457507,359.6,30.9,13.653,352,-0.028,1.549,9.414,1
583,35.35692385,-97.49457421,359.5,31.05,13.653,353,-0.161,1.516,9.376,1
584,35.35720506,-97.49457479,359.4,31.13,13.653,354,-0.179,1.546,9.458,1
585,35.3574854,-97.49457047,359.4,30.93,13.653,354,-0.159,1.534,9.415,1
586,35.35776295,-97.49457021,359.2,30.94,13.653,355,-0.152,1.564,9.458,1
587,35.35804318,-97.49458086,359.3,30.77,13.653,355,-0.239,1.581,9.391,1
588,35.35831853,-97.49458826,359,31.07,13.653,354,-0.315,1.554,9.439,1
589,35.35858705,-97.49459915,359,31.12,6.068,355,-0.252,1.574,9.598,1
590,35.35886759,-97.49460981,358.6,31.05,6.068,355,-0.098,1.565,9.484,1
591,35.3591496,-97.49461774,359.1,31.17,6.068,355,0.165,1.551,9.544,1
592,35.35943144,-97.4946254,359.3,31.17,6.068,355,-0.028,1.514,9.381,1
593,35.35970976,-97.49462848,359.2,31.07,6.068,355,-0.03,1.507,9.439,1
594,35.35999679,-97.49462148,359.5,30.97,6.068,353,-0.005,1.53,9.49,1
595,35.36027532,-97.49462637,359.5,31,6.068,353,-0.047,1.532,9.511,1
596,35.36054122,-97.49463052,359.3,30.89,6.068,353,-0.103,1.584,9.615,1
597,35.36082831,-97.49463428,359.1,30.88,6.068,354,-0.043,1.551,9.48,1
598,35.36111464,-97.49463746,359.2,30.67,6.068,354,-0.015,1.583,9.536,1
600,35.36139589,-97.49464091,359.6,30.69,6.068,355,-0.142,1.629,9.567,1
