time,lat,lng,bearing,spd,acc,alt,accx,accy,accz,stable,
0,35.21,-97.44,187.5,0.27659,3,330,-2.727,-0.128,9.438,1
1,35.21,-97.44,187.5,0.27659,3,330,-2.679,-0.038,9.096,1
2,35.21,-97.44,187.5,0.27659,3,330,-2.708,-0.093,9.449,1
3,35.21,-97.44,187.5,0.27659,3,330,-2.73,-0.092,9.21,1
4,35.21,-97.44,187.5,0.27659,3,330,-2.715,-0.085,9.253,1
5,35.21,-97.44,187.5,0.27659,3,330,-2.688,-0.079,9.455,1
6,35.21,-97.44,187.5,0.27659,3,330,-2.76,-0.12,9.206,1
7,35.21,-97.44,187.5,0.27659,3,330,-2.675,-0.051,9.459,1
8,35.21,-97.44,187.5,0.27659,3,330,-2.601,-0.051,9.468,1
9,35.21,-97.44,187.5,0.27659,3,330,-2.467,-0.027,9.587,1
10,35.21,-97.44,187.5,0.27659,3,330,-2.649,-0.19,9.135,0
11,35.21,-97.44,187.5,0.27659,3,330,-2.492,-0.296,9.584,1
12,35.21,-97.44,348.3,0.71028,3,330,-2.946,-0.323,9.384,0
13,35.21,-97.44,348.3,0.71028,3,330,-3.034,-0.071,9.368,0
15,35.21,-97.44,339.1,0.91082,3,330,-2.595,-0.142,9.424,1
16,35.21,-97.44,339.1,0.91082,3,330,-2.733,0.153,9.244,1
17,35.211,-97.44,323.5,0.78638,3,329,-2.658,0.096,9.528,1
18,35.211,-97.44,312.3,0.77524,3,329,-2.806,0.042,9.306,1
19,35.211,-97.44,312.3,0.77524,3,329,-3.467,-0.046,8.977,1
20,35.211,-97.44,295.8,0.48,3,329,-3.511,-1.014,8.882,1
21,35.211,-97.44,295.8,0.48,3,329,-3.113,-2.027,9.026,1
22,35.211,-97.44,270.4,2.6802,3,329,-4.154,-0.226,8.497,0
23,35.211,-97.44,96.2,4.0703,3,327,-2.731,-0.314,9.424,1
24,35.211,-97.439,93,4.9712,3,327,-2.434,-0.413,8.975,0
25,35.211,-97.439,91.3,5.0702,3,326,-2.463,-0.075,8.88,0
26,35.211,-97.439,89.3,5.12,3,326,-2.646,-0.459,9.675,0
27,35.211,-97.439,89.7,5.09,3,326,-2.391,-0.293,9.908,0
28,35.211,-97.439,90.6,4.9858,3,325,-2.216,0.069,9.692,0
29,35.211,-97.439,92.4,4.5802,3,325,-2.036,0.04,9.505,1
30,35.211,-97.439,90.2,3.7303,3,323,-1.383,0.183,10.139,0
31,35.211,-97.439,90.5,2.5644,3,322,-2.643,-0.037,9.341,1
32,35.211,-97.439,89.7,2.0504,3,322,-2.401,0.08,9.204,0
33,35.211,-97.439,91.2,1.9038,3,322,-2.736,-0.564,9.297,0
34,35.211,-97.439,91.6,1.891,3,322,-2.781,-1.124,8.873,0
35,35.211,-97.439,87.9,2.68,3,322,-2.586,-1.909,8.913,0
36,35.211,-97.439,78.5,3.1908,3,322,-2.44,-2.155,9.208,0
37,35.211,-97.439,60.2,3.8852,3,321,-2.166,-1.91,8.82,0
38,35.211,-97.439,12.6,4.9936,3,320,-2.76,-2.268,9.168,1
39,35.211,-97.439,10.6,6.57,4,320,-2.954,-2.04,10.38,0
40,35.211,-97.439,0.7,8.3513,3,320,-2.366,-0.926,9.521,0
41,35.211,-97.439,356.5,8.4695,5,321,-1.823,-1.543,10.883,0
42,35.211,-97.439,359.9,6.5779,3,324,-1.167,-0.062,9.945,0
43,35.211,-97.439,359.8,6.1676,4,325,-0.611,0.268,9.406,0
44,35.211,-97.439,359.2,4.031,3,320,-2.089,-0.464,9.426,1
45,35.211,-97.439,358.2,2.63,3,320,-1.964,-0.213,9.267,1
46,35.211,-97.439,358,2.0815,3,321,-1.992,-0.449,9.793,0
47,35.211,-97.439,358.4,1.4401,3,321,-2.515,-0.383,9.224,0
48,35.211,-97.439,358.4,1.4401,3,321,-2.17,-0.309,8.98,0
50,35.211,-97.439,358.5,0.69007,3,322,-2.059,-0.096,9.672,1
51,35.211,-97.439,358.5,0.69007,3,322,-2.446,-0.328,9.308,1
52,35.211,-97.439,358.5,0.69007,3,322,-2.415,-0.267,9.258,1
53,35.211,-97.439,358.5,0.69007,3,322,-2.416,-0.25,9.227,1
54,35.211,-97.439,358.5,0.69007,3,322,-2.385,-0.321,9.369,1
55,35.211,-97.439,358.5,0.69007,3,322,-2.403,-0.293,9.426,1
56,35.211,-97.439,358.5,0.69007,3,322,-2.399,-0.275,9.387,1
57,35.211,-97.439,358.5,0.69007,3,322,-2.927,-0.59,9.183,1
58,35.211,-97.439,357.7,0.63127,3,324,-4.199,-1.292,8.333,1
59,35.211,-97.439,353.6,2.6102,3,324,-3.155,-2.182,8.527,1
60,35.211,-97.439,337,4.3209,3,324,-2.667,-2.435,8.397,0
61,35.211,-97.439,317.5,5.5304,3,324,-1.932,-3.715,9.073,1
62,35.211,-97.439,289.6,6.7521,3,324,-2.974,-1.879,8.764,0
63,35.211,-97.439,275.1,7.9411,3,324,-3.422,-2.094,8.86,1
64,35.211,-97.439,270.1,9.37,3,324,-3.779,-1.163,9.051,1
65,35.211,-97.439,269.2,10.81,3,324,-3.696,-0.772,8.879,0
66,35.211,-97.439,270.1,11.901,3,325,-3.636,-0.792,8.888,0
67,35.211,-97.44,271.1,13.2,3,325,-2.887,-0.783,9.431,0
68,35.211,-97.44,270.6,14.23,3,325,-2.246,-0.194,8.884,0
69,35.211,-97.44,271.1,14.81,3,324,-2.658,-0.561,9.437,0
70,35.211,-97.44,271.8,15.17,3,325,-2.373,-0.298,8.864,0
71,35.211,-97.44,272.1,15.17,3,324,-2.004,-0.328,8.995,0
72,35.211,-97.44,271.7,14.94,3,324,-2.117,-0.511,9.226,0
73,35.211,-97.441,271.2,14.58,3,325,-2.159,-0.691,8.379,0
74,35.211,-97.441,270.5,14.33,3,325,-2.472,-0.358,9.417,0
75,35.211,-97.441,269.8,14.35,3,326,-2.618,-0.634,9.963,0
76,35.211,-97.441,269.8,14.39,3,325,-2.442,-0.614,8.675,0
77,35.211,-97.441,269.9,14.44,3,326,-2.406,-0.825,9.202,0
78,35.211,-97.441,270,14.56,3,326,-2.491,-0.48,8.603,0
79,35.211,-97.442,269.7,14.68,3,326,-2.2,-0.265,9.293,0
80,35.211,-97.442,269.2,14.77,3,326,-2.672,-0.516,9.342,0
81,35.211,-97.442,268.9,14.88,3,326,-2.239,-0.483,9.245,0
82,35.211,-97.442,268.6,14.96,3,327,-2.143,-0.465,9.753,0
83,35.211,-97.442,268.3,15.03,3,327,-3.009,0.004,8.738,0
84,35.211,-97.442,268.4,15.03,3,327,-2.605,-0.162,9.205,0
85,35.211,-97.443,269.1,15.13,3,327,-2.276,-0.635,9.155,0
86,35.211,-97.443,269.9,15.22,3,326,-2.213,-0.654,8.685,0
88,35.211,-97.443,270.2,15.2,3,327,-2.469,-0.58,9.867,0
89,35.211,-97.443,270,15.17,3,327,-2.399,0.005,9.093,0
90,35.211,-97.443,270.1,15.2,3,327,-2.391,-0.437,8.977,0
91,35.211,-97.443,270.4,14.98,3,328,-2.262,-0.38,9.429,1
92,35.211,-97.444,270.2,15.08,3,329,-2.85,-1.772,11.678,0
93,35.211,-97.444,270.2,15.02,3,329,-1.527,-0.915,10.418,0
94,35.211,-97.444,270.2,15,3,329,-2.078,-0.843,9.528,0
95,35.211,-97.444,270.4,14.72,3,328,-2.406,-0.659,9.583,0
96,35.211,-97.444,270,14.72,3,327,-2.405,-0.488,9.73,0
97,35.211,-97.445,270.5,14.82,3,327,-2.178,-0.614,9.171,0
98,35.211,-97.445,270.5,14.62,3,326,-3.258,-0.815,9.692,0
99,35.211,-97.445,270.4,14.52,3,326,-1.903,-0.506,9.099,0
100,35.211,-97.445,270.3,14.34,3,327,-1.995,-0.179,9.402,1
101,35.211,-97.445,270.4,14.09,3,326,-1.855,-0.302,9.258,0
102,35.211,-97.445,270.6,13.67,3,326,-1.846,-0.449,9.476,0
103,35.211,-97.445,270.4,13.26,3,327,-2.222,-0.948,9.827,0
104,35.211,-97.446,270.2,13.13,3,326,-2.327,-0.696,9.522,0
105,35.211,-97.446,270.3,13.26,3,326,-2.372,-0.833,9.525,1
106,35.211,-97.446,270.2,13.52,3,327,-2.462,-0.425,9.817,0
107,35.211,-97.446,270.1,13.58,3,327,-2.129,-0.098,9.403,0
108,35.211,-97.446,270.2,13.44,3,326,-2.394,-0.662,9.38,0
109,35.211,-97.446,270.1,13.54,3,326,-2.109,-0.346,9.586,0
110,35.211,-97.446,269.6,13.47,3,326,-2.337,-0.616,9.609,0
111,35.211,-97.447,269.5,13.34,3,325,-2.607,-0.684,9.739,0
112,35.211,-97.447,269.7,13.46,3,326,-2.834,-0.798,9.403,0
113,35.211,-97.447,269.8,13.86,3,326,-2.67,-0.787,8.727,0
114,35.211,-97.447,269.5,14.372,3,326,-2.68,-0.609,9.071,0
115,35.211,-97.447,270.2,14.95,3,326,-0.275,0.866,10.783,0
116,35.211,-97.447,270.1,14.01,3,326,-0.028,0.997,9.881,0
117,35.211,-97.448,270,11.37,3,327,-0.167,0.875,10.035,0
118,35.211,-97.448,269.9,8.7001,3,327,0.158,0.919,10.281,0
119,35.211,-97.448,270.2,6.01,3,327,-0.383,0.663,10.249,0
120,35.211,-97.448,269.8,3.31,3,326,-0.825,0.497,9.741,0
121,35.211,-97.448,269.7,1.31,3,327,-2.066,-0.372,9.391,1
122,35.211,-97.448,269.7,1.31,3,327,-2.272,-0.463,9.407,1
123,35.211,-97.448,269.7,1.31,3,327,-2.27,-0.462,9.453,1
124,35.211,-97.448,269.7,1.31,3,327,-2.294,-0.449,9.425,1
125,35.211,-97.448,269.7,1.31,3,327,-2.278,-0.451,9.388,1
126,35.211,-97.448,0,0,3,328,-2.26,-0.467,9.383,1
128,35.211,-97.448,0,0,3,328,-2.25,-0.453,9.418,1
129,35.211,-97.448,0,0,3,328,-2.288,-0.461,9.387,1
130,35.211,-97.448,0,0,3,328,-2.281,-0.448,9.42,1
131,35.211,-97.448,0,0,3,328,-2.27,-0.454,9.423,1
132,35.211,-97.448,0,0,3,328,-2.27,-0.461,9.405,1
133,35.211,-97.448,0,0,3,328,-2.293,-0.436,9.343,1
134,35.211,-97.448,0,0,3,328,-2.288,-0.434,9.322,1
135,35.211,-97.448,0,0,3,328,-2.268,-0.457,9.313,1
136,35.211,-97.448,0,0,3,328,-2.275,-0.434,9.325,1
137,35.211,-97.448,0,0,3,328,-2.246,-0.491,9.41,1
138,35.211,-97.448,0,0,3,328,-4.794,-1.825,8.417,1
139,35.211,-97.448,269,2.19,3,328,-4.362,-2.041,8.489,0
140,35.211,-97.448,269.9,4.78,3,329,-3.991,-1.543,8.865,0
141,35.211,-97.448,269.9,7.05,3,328,-4.105,-1.934,8.279,0
142,35.211,-97.448,269.6,9.2004,3,329,-3.202,-1.196,8.903,0
143,35.211,-97.448,269.4,10.71,3,328,-3.203,-1.307,8.928,0
144,35.211,-97.448,269,11.97,3,328,-3.292,-0.97,9.148,0
145,35.211,-97.448,268.9,13.13,3,328,-3.177,-0.892,9.07,0
146,35.211,-97.449,269,14.2,3,328,-2.402,-0.345,9.315,0
147,35.211,-97.449,269.3,14.95,3,328,-2.296,-0.114,8.522,0
148,35.211,-97.449,269.7,15.31,3,328,-2.375,-0.226,8.819,0
149,35.211,-97.449,269.9,15.54,3,327,-2.477,-0.575,9.8,0
150,35.211,-97.449,270.3,15.89,3,327,-2.459,-0.422,9.094,0
151,35.211,-97.449,270.2,16.02,3,327,-2.787,-0.282,9.529,0
152,35.211,-97.45,270.2,16.351,3,327,-2.197,-0.298,9.451,0
153,35.211,-97.45,270.2,16.503,3,326,-2.156,-0.523,9.683,0
154,35.211,-97.45,270.1,16.613,3,326,-1.899,-0.288,9.188,0
155,35.211,-97.45,269.9,16.554,3,326,-1.982,-0.553,9.629,0
156,35.211,-97.45,269.9,16.414,3,325,-2.014,-0.666,9.005,0
157,35.211,-97.45,270.2,15.971,3,325,-1.969,-0.233,8.985,0
158,35.211,-97.451,270.5,15.5,3,325,-1.819,-0.131,9.084,0
159,35.211,-97.451,270.5,14.862,4,325,-1.458,-0.533,9.387,0
160,35.211,-97.451,270.1,14.383,4,326,-2.164,-0.697,9.619,0
161,35.211,-97.451,270.1,14.207,5,327,-1.816,-0.958,10.025,0
162,35.211,-97.451,269.9,14.543,8,329,-1.96,-0.31,9.544,0
163,35.211,-97.451,258.2,14.911,10,329,-1.439,-0.784,8.02,0
164,35.211,-97.452,256.4,15.234,12,330,-1.762,-0.554,9.367,0
165,35.211,-97.452,270.7,15.932,13,333,-1.725,-0.427,9.433,0
166,35.211,-97.452,270.2,16.291,3,326,-1.564,-0.222,9.109,1
167,35.211,-97.452,270.2,15.993,3,325,-1.368,-0.291,7.331,0
168,35.211,-97.452,270.3,15.981,3,325,-1.773,-0.613,9.191,0
169,35.211,-97.453,270.6,16.101,3,325,-1.75,-0.61,9.356,0
171,35.211,-97.453,270.9,16.531,3,325,-1.649,-0.359,9.56,0
172,35.211,-97.453,270.4,16.45,3,325,-1.237,-0.472,9.303,1
173,35.211,-97.453,270.1,16.14,3,325,-2.186,-0.6,10.282,0
174,35.211,-97.453,270,15.896,3,324,-1.663,-0.504,9.463,0
175,35.211,-97.454,270.2,16.182,3,324,-2.011,-0.641,9.766,0
176,35.211,-97.454,269.8,16.41,3,324,-1.882,-0.086,9.678,0
177,35.211,-97.454,269.7,16.54,3,325,-2.113,-0.807,10.283,0
178,35.211,-97.454,270.1,16.52,3,324,-1.754,-0.793,9.592,0
179,35.211,-97.454,270.1,16.73,3,324,-1.671,-0.697,9.336,0
180,35.211,-97.455,269.9,16.74,3,324,-1.817,-0.703,9.532,0
181,35.211,-97.455,270,16.84,3,323,-1.443,-1.109,9.6,0
182,35.211,-97.455,269.9,16.831,3,323,-1.689,-0.421,9.761,0
183,35.211,-97.455,269.8,16.602,3,324,-1.689,-0.329,9.357,0
184,35.211,-97.455,269.8,15.86,3,323,-1.937,-0.437,9.521,0
185,35.211,-97.455,270.2,15.57,3,323,-1.819,-0.468,9.497,0
186,35.211,-97.456,270.6,14.96,3,323,-1.959,-0.646,9.301,0
187,35.211,-97.456,270.6,14.701,3,323,-2.021,-0.573,9.904,0
188,35.211,-97.456,270.4,14.34,3,323,-1.791,-0.726,9.397,0
189,35.211,-97.456,270.1,14.04,3,323,-1.783,-0.838,9.168,0
190,35.211,-97.456,270.7,13.755,3,323,-1.793,-0.539,9.343,0
191,35.211,-97.456,270.3,13.473,3,323,-1.639,-0.346,9.44,0
192,35.211,-97.457,270.3,13.3,3,324,-1.753,-0.352,8.977,0
193,35.211,-97.457,270.2,13.18,3,324,-1.47,-0.682,8.977,0
194,35.211,-97.457,270.6,12.97,3,325,-1.009,0.144,9.589,0
195,35.211,-97.457,270.2,11.82,3,325,-1.677,-0.14,9.752,0
196,35.211,-97.457,270,10.961,3,325,-1.567,-0.256,9.486,0
197,35.211,-97.457,270.3,10.402,3,325,-1.981,-0.579,9.31,1
198,35.211,-97.457,270.9,10.22,3,325,-2.374,-0.882,9.796,0
199,35.211,-97.457,270.8,10.34,3,325,-2.082,-0.564,9.254,0
200,35.211,-97.458,270.4,10.341,3,325,-2.073,-0.514,9.082,0
201,35.211,-97.458,270.2,10.38,3,325,-2.251,-0.681,9.46,0
202,35.211,-97.458,269.9,10.53,3,326,-2.067,-0.83,9.11,0
203,35.211,-97.458,269.5,10.69,3,325,-1.529,-0.277,9.657,0
204,35.211,-97.458,268.6,10.69,3,325,-0.967,0.589,9.752,0
205,35.211,-97.458,268.7,10.15,3,324,-1.372,-0.482,9.471,0
206,35.211,-97.458,269.6,9.2124,3,325,-2.339,-1.316,9.159,1
207,35.211,-97.458,268.8,9.3904,3,326,-1.908,-0.446,9.079,0
208,35.211,-97.458,268.4,10.1,3,326,-1.66,-0.004,9.177,0
209,35.211,-97.459,269.1,10.24,3,326,-1.712,0.311,9.593,0
210,35.211,-97.459,269.6,9.61,3,326,-1.297,0.212,9.389,0
211,35.211,-97.459,271.3,8.8901,3,326,-0.694,-1.768,9.375,0
212,35.211,-97.459,269.7,7.8402,3,327,-0.204,-2.882,9.509,0
213,35.211,-97.459,253.6,7.3122,3,326,0.022,-3.395,9.002,0
214,35.211,-97.459,233.2,7.2028,3,326,-0.143,-3.996,9.03,0
215,35.211,-97.459,206,7.0415,3,325,-2.57,-1.782,9.011,1
216,35.211,-97.459,186,8.0676,3,325,-3.026,-1.019,9.192,0
217,35.211,-97.459,180.1,9.3745,3,325,-2.851,-1.067,8.82,0
218,35.211,-97.459,178.4,10.77,3,326,-2.702,-1.806,10.652,0
219,35.211,-97.459,177.2,11.731,3,325,-3.032,-0.601,9.223,0
221,35.211,-97.459,176.7,12.601,3,325,-2.952,-0.665,9.105,0
222,35.21,-97.459,178.5,13.47,3,324,-2.706,-0.753,8.92,0
223,35.21,-97.459,179.9,14.271,3,324,-2.577,-0.989,9.513,0
224,35.21,-97.459,180.3,15.16,3,325,-2.373,-1.065,9.024,0
225,35.21,-97.459,180.5,15.9,3,326,-1.926,-0.417,10.013,0
226,35.21,-97.459,179.9,16.51,3,325,-1.871,-0.255,9.366,0
227,35.21,-97.459,179.6,16.24,3,325,-1.676,-0.472,9.667,0
228,35.21,-97.459,179.6,15.871,3,326,-1.727,-0.407,9.113,0
229,35.209,-97.459,179.1,15.56,3,326,-1.887,-0.63,10.17,0
230,35.209,-97.459,179.2,15.21,3,326,-2.138,-0.887,9.415,0
231,35.209,-97.459,179.1,15.27,3,327,-2.216,-0.507,9.071,0
232,35.209,-97.459,179.3,15.65,3,325,-2.202,-0.686,9.028,0
233,35.209,-97.459,179.6,15.96,3,326,-2.14,-0.26,9.112,0
234,35.209,-97.459,180.3,16.06,3,326,-1.665,-0.51,10.501,0
235,35.208,-97.459,180.3,15.81,3,326,-2.099,-0.671,9.043,0
236,35.208,-97.459,180.4,15.851,3,326,-1.91,-0.64,9.399,0
237,35.208,-97.459,180,15.91,3,325,-1.859,-0.793,8.301,0
238,35.208,-97.459,180.2,16.11,3,325,-1.609,-0.642,9.764,0
239,35.208,-97.459,179.7,15.802,3,324,-1.643,-0.589,9.405,0
240,35.208,-97.459,179.7,15.81,3,323,-1.819,-0.565,9.496,0
241,35.208,-97.459,179.4,15.901,3,323,-1.897,-0.292,9.553,0
242,35.207,-97.459,179.5,15.842,3,324,-2.167,-0.79,9.198,0
243,35.207,-97.459,179.6,15.93,3,322,-2.094,-0.473,8.995,0
244,35.207,-97.459,179.6,15.96,3,324,-2.383,-0.439,9.346,0
245,35.207,-97.459,179.2,16.13,3,324,-2.253,-0.433,9.683,0
246,35.207,-97.459,179.3,16.29,3,323,-2.134,-0.212,8.912,0
247,35.207,-97.459,179.1,16.3,3,324,-1.738,-0.275,9.621,0
248,35.207,-97.459,179.1,15.573,3,324,-2.095,-0.611,9.462,0
249,35.206,-97.459,179.5,15.73,3,326,-1.665,-0.422,8.919,0
250,35.206,-97.459,179.4,15.72,3,327,-1.855,-0.098,9.557,0
251,35.206,-97.459,179.6,15.45,3,327,-2.055,-0.563,9.778,0
252,35.206,-97.459,179.7,15.29,3,328,-2.1,-0.602,10.169,0
253,35.206,-97.459,179.7,15.18,3,328,-1.323,-0.575,9.719,0
254,35.206,-97.459,179.2,14.95,3,329,-2.03,-0.134,8.547,0
255,35.206,-97.459,178.6,15.01,3,329,-2.004,-0.125,9.9,0
256,35.205,-97.459,178.4,14.751,3,326,-2.004,-0.096,9.478,0
257,35.205,-97.459,178.7,14.99,4,327,-1.401,-0.391,8.788,0
258,35.205,-97.459,179.1,15.3,4,327,-1.428,-0.388,8.923,0
259,35.205,-97.459,179.6,15.021,4,324,-2.044,0.533,9.27,0
260,35.205,-97.459,180.9,14.83,4,324,-2.22,0.091,9.276,0
261,35.205,-97.459,182.6,14.6,5,325,-1.804,-0.245,9.328,0
262,35.205,-97.459,183.5,14.72,4,324,-1.222,-0.395,8.596,0
263,35.205,-97.459,183.8,14.731,3,324,-1.115,-0.801,8.834,0
264,35.204,-97.459,182.2,14.44,3,324,0.749,0.852,10.743,0
265,35.204,-97.459,180.4,13.35,3,324,0.208,0.66,9.645,0
266,35.204,-97.459,180,11.1,3,323,-0.558,1.19,9.862,0
267,35.204,-97.459,180.2,9.0501,3,323,-3.365,3.321,10.256,0
268,35.204,-97.459,189.6,7.5811,3,323,-4.899,3.231,10.047,0
270,35.204,-97.459,219.4,6.7839,3,323,-4.582,0.289,9.083,0
271,35.204,-97.459,239.6,7.0326,3,323,-3.21,-1.78,9.124,0
272,35.204,-97.459,269.4,9.4804,3,323,-2.802,-1.74,8.622,0
273,35.204,-97.459,271.2,11.46,3,323,-2.652,-1.75,9.249,0
274,35.204,-97.46,270.6,13.22,3,323,-2.454,-1.209,9.582,0
275,35.204,-97.46,269.9,14.76,3,324,-2.276,-0.783,10.111,0
276,35.204,-97.46,269.8,15.7,3,323,-1.686,-0.752,9.023,0
277,35.204,-97.46,269.8,15.92,3,323,-2.239,-0.696,9.485,1
278,35.204,-97.46,270,16.18,3,323,-1.819,-0.832,9.041,1
279,35.204,-97.46,270.3,16.58,3,323,-1.885,-1.14,9.417,1
280,35.204,-97.461,270.3,17.06,3,323,-1.834,-0.871,9.371,0
281,35.204,-97.461,270.1,18.04,3,323,-1.618,-0.749,9.096,0
282,35.204,-97.461,270.4,18.33,3,323,-1.796,-0.944,9.672,0
283,35.204,-97.461,270.2,18.61,3,323,-1.858,-0.895,9.191,0
284,35.204,-97.462,270.3,18.97,3,323,-1.862,-0.984,9.616,0
285,35.204,-97.462,270.2,19.3,3,323,-1.699,-0.818,9.249,0
286,35.204,-97.462,270.2,19.58,3,323,-1.691,-0.949,9.248,0
287,35.204,-97.462,270.1,19.77,3,323,-1.113,-0.58,9.366,1
288,35.204,-97.462,270,19.54,3,323,-1.24,-0.302,9.545,0
289,35.204,-97.463,269.9,19.18,3,323,-1.143,-0.462,9.689,0
290,35.204,-97.463,269.9,18.87,3,323,-1.199,-0.529,9.251,0
291,35.204,-97.463,270,18.68,3,323,-1.527,-0.806,9.767,0
292,35.204,-97.463,269.7,18.552,3,322,-1.549,-0.584,9.515,0
293,35.204,-97.464,269.8,18.61,3,322,-1.302,-0.204,9.649,0
294,35.204,-97.464,270,18.34,3,322,-1.483,-0.354,10.155,0
295,35.204,-97.464,270.1,17.94,3,322,-1.25,-0.272,9.711,0
296,35.204,-97.464,270.3,17.53,3,322,-1.172,-0.594,10.083,0
297,35.204,-97.464,270.4,17.11,3,322,-1.228,-0.456,9.79,0
298,35.204,-97.464,270.4,16.73,3,321,-1.426,-0.655,9.445,0
299,35.204,-97.465,270.4,16.61,3,321,-1.242,-0.45,9.82,0
300,35.204,-97.465,270.2,16.39,3,321,-1.113,-0.455,9.358,1
301,35.204,-97.465,270,16.03,3,321,-1.121,-0.515,9.517,0
302,35.204,-97.465,269.8,15.71,3,321,-1.131,-0.445,9.542,0
303,35.204,-97.465,269.7,15.36,3,321,-1.127,-0.711,9.7,0
304,35.204,-97.466,269.7,14.99,3,321,-1.266,-0.342,9.549,0
305,35.204,-97.466,269.7,14.63,3,320,-1.066,-0.411,9.81,0
306,35.204,-97.466,269.8,14.21,3,320,-1.148,-0.646,9.717,0
307,35.204,-97.466,269.9,13.74,3,320,-1.22,-0.342,9.604,0
308,35.204,-97.466,269.9,13.37,3,321,-1.118,0.005,8.761,0
309,35.204,-97.466,270,12.92,3,321,-1.327,-0.209,8.927,0
310,35.204,-97.466,270,12.42,3,321,-0.992,-0.634,9.622,0
311,35.204,-97.467,270.1,12.03,3,321,-0.813,-0.254,9.967,0
312,35.204,-97.467,270.2,11.54,3,321,-0.418,0.232,10.335,0
313,35.204,-97.467,270.2,10.61,3,321,-0.443,0.106,9.737,0
314,35.204,-97.467,270.4,9.15,3,321,-0.476,0.131,9.69,0
315,35.204,-97.467,270.3,7.7901,3,321,-0.405,0.245,10.023,0
316,35.204,-97.467,270.3,6.36,3,321,-0.843,-0.332,9.437,0
317,35.204,-97.467,270.1,5.0602,3,321,-0.979,-0.293,9.414,1
318,35.204,-97.467,270,4.3,3,322,-1.005,-0.375,9.422,1
319,35.204,-97.467,270.1,3.6601,3,322,-1.114,-0.466,9.612,1
320,35.204,-97.467,270,3.1,3,322,-1.171,-0.367,9.694,1
321,35.204,-97.467,270,2.6602,3,322,-1.205,-0.467,9.477,1
322,35.204,-97.467,270,2.2401,3,322,-0.769,-0.06,9.791,0
323,35.204,-97.467,270.1,1.8,3,322,-0.866,-0.173,9.459,0
324,35.204,-97.467,270.1,0.93005,3,322,-1.391,-0.539,9.471,0
326,35.204,-97.467,270.1,0.93005,3,322,-1.481,-0.655,9.367,1
327,35.204,-97.467,270.1,0.93005,3,322,-1.515,-0.674,9.634,1
328,35.204,-97.467,270.1,0.93005,3,322,-1.542,-0.665,9.606,1
329,35.204,-97.467,270.1,0.93005,3,322,-1.484,-0.662,9.288,1
330,35.204,-97.467,270.1,0.93005,3,322,-1.537,-0.683,9.691,1
331,35.204,-97.467,270.1,0.93005,3,322,-1.523,-0.662,9.344,1
332,35.204,-97.467,270.1,0.93005,3,322,-1.49,-0.655,9.257,1
333,35.204,-97.467,270.1,0.93005,3,322,-1.484,-0.677,9.272,1
334,35.204,-97.467,270.1,0.93005,3,322,-1.509,-0.673,9.287,1
335,35.204,-97.467,270.1,0.93005,3,322,-1.537,-0.659,9.379,1
336,35.204,-97.467,270.1,0.93005,3,322,-1.494,-0.696,9.553,1
337,35.204,-97.467,270.1,0.93005,3,322,-1.524,-0.681,9.685,1
338,35.204,-97.467,270.1,0.93005,3,322,-1.517,-0.657,9.487,1
339,35.204,-97.467,270.1,0.93005,3,322,-1.464,-0.679,9.321,1
340,35.204,-97.467,270.1,0.93005,3,322,-1.536,-0.674,9.672,1
341,35.204,-97.467,270.1,0.93005,3,322,-1.483,-0.684,9.331,1
342,35.204,-97.467,270.1,0.93005,3,322,-1.53,-0.69,9.619,1
343,35.204,-97.467,270.1,0.93005,3,322,-1.494,-0.688,9.526,1
344,35.204,-97.467,270.1,0.93005,3,322,-1.522,-0.669,9.312,1
345,35.204,-97.467,270.1,0.93005,3,322,-1.505,-0.691,9.579,1
346,35.204,-97.467,270.1,0.93005,3,322,-1.513,-0.678,9.482,1
347,35.204,-97.467,270.1,0.93005,3,322,-1.501,-0.684,9.415,1
348,35.204,-97.467,270.1,0.93005,3,322,-1.528,-0.685,9.611,1
349,35.204,-97.467,270.1,0.93005,3,322,-1.484,-0.686,9.504,1
350,35.204,-97.467,270.1,0.93005,3,322,-1.517,-0.674,9.538,1
351,35.204,-97.467,270.1,0.93005,3,322,-1.469,-0.698,9.418,1
352,35.204,-97.467,270.1,0.93005,3,322,-2.23,-1.173,9.447,1
353,35.204,-97.467,270.2,0.58078,3,324,-1.818,-0.889,9.281,1
354,35.204,-97.467,270.2,1.6919,3,323,-1.216,-0.458,9.218,0
355,35.204,-97.467,270.3,1.6103,3,323,-0.992,-0.258,9.537,0
356,35.204,-97.467,270.3,1.6103,3,323,-0.924,-0.161,9.59,0
357,35.204,-97.467,270.3,1.6103,3,323,-1.512,-0.74,9.634,1
358,35.204,-97.467,270.3,1.6103,3,323,-1.926,-0.94,9.127,1
359,35.204,-97.467,270.3,1.6103,3,323,-3.243,-1.895,8.804,1
360,35.204,-97.467,270.3,1.3124,3,323,-2.84,-1.682,8.893,1
361,35.204,-97.467,270.3,3.0437,3,323,-2.74,-1.595,9.01,1
362,35.204,-97.467,270.2,4.4928,3,323,-2.24,-1.447,9.067,1
363,35.204,-97.468,270.1,5.7912,3,323,-2.428,-1.438,9.11,1
364,35.204,-97.468,270.2,7.0205,3,323,-2.372,-1.084,9.062,0
365,35.204,-97.468,270.4,8.24,3,322,-2.556,-1.189,9.365,0
366,35.204,-97.468,270.3,9.37,3,322,-2.425,-1.167,9.342,0
367,35.204,-97.468,270.1,10.28,3,323,-2.066,-1.217,8.979,0
368,35.204,-97.468,270,11.22,3,322,-2.147,-1.175,9.085,0
369,35.204,-97.468,270.1,12.14,3,322,-1.811,-1.189,9.429,0
370,35.204,-97.468,270.1,13.07,3,323,-1.876,-1.178,9.295,0
371,35.204,-97.469,270.1,13.62,3,324,-1.547,-0.607,9.466,0
372,35.204,-97.469,269.9,14.23,3,325,-0.66,-0.268,9.597,0
373,35.204,-97.469,269.9,14.13,3,325,-1.156,-0.338,9.744,0
374,35.204,-97.469,270.2,13.45,3,325,-1.105,-0.562,8.754,0
375,35.204,-97.469,270.1,13.08,3,326,-0.648,-0.046,10.037,0
376,35.204,-97.469,270,12.6,3,326,-0.852,-0.472,9.703,0
377,35.204,-97.469,270,11.34,3,326,-1.042,-0.61,9.369,0
378,35.204,-97.469,269.9,10.66,3,325,-1.352,-0.949,9.896,0
379,35.204,-97.47,269.9,10.3,3,325,-1.55,-0.9,9.354,1
380,35.204,-97.47,270,10.46,3,325,-1.66,-1.022,8.867,0
381,35.204,-97.47,270.1,10.79,3,325,-2.09,-1.089,9.373,0
382,35.204,-97.47,270.2,11.21,3,324,-2.238,-1.207,9.279,0
383,35.204,-97.47,270,11.71,3,324,-2.006,-1.116,9.043,0
384,35.204,-97.47,270.1,12.6,3,325,-2.004,-1.182,9.243,1
385,35.204,-97.47,270.2,13.39,3,324,-2.032,-1.202,9.345,1
386,35.204,-97.471,270.3,14.13,3,324,-1.375,-0.897,9.127,0
387,35.204,-97.471,270.2,14.86,3,324,-1.062,-0.857,10.09,0
389,35.204,-97.471,270.1,14.97,3,324,-1.074,-0.549,9.584,0
390,35.204,-97.471,269.9,14.68,3,324,-1.079,-0.57,9.729,0
391,35.204,-97.471,269.6,14.34,3,325,-1.171,-0.359,9.617,0
392,35.204,-97.471,269.6,13.97,3,324,-1.595,-0.751,9.476,0
393,35.204,-97.471,269.7,13.64,3,324,-1.495,-0.675,9.673,0
394,35.204,-97.472,269.8,13.6,3,324,-1.73,-0.786,9.795,0
395,35.204,-97.472,270,13.67,3,325,-1.425,-0.861,9.445,0
396,35.204,-97.472,270.2,13.71,3,324,-1.467,-0.763,9.547,1
397,35.204,-97.472,270,13.782,3,324,-1.378,-0.733,9.723,0
398,35.204,-97.472,270.4,13.79,3,324,-1.407,-0.742,9.468,1
399,35.204,-97.472,270.2,13.731,3,325,-1.472,-0.808,9.387,0
400,35.204,-97.473,270.1,13.8,3,325,-1.444,-0.87,9.452,0
401,35.204,-97.473,269.9,13.95,3,325,-1.412,-0.847,9.633,0
402,35.204,-97.473,269.7,14.1,3,325,-1.128,-0.763,9.353,0
403,35.204,-97.473,269.6,14.08,3,325,-1.231,-0.106,9.351,0
404,35.204,-97.473,269.8,13.76,3,324,-1.083,-0.412,9.323,0
405,35.204,-97.473,269.8,13.37,3,324,-0.979,-0.47,9.259,0
406,35.204,-97.474,269.9,13.01,3,325,-1.065,-0.548,9.901,0
407,35.204,-97.474,269.9,12.62,3,325,-1.653,-0.864,9.303,0
408,35.204,-97.474,270.2,12.63,3,325,-1.686,-1.093,9.603,0
409,35.204,-97.474,270.1,12.76,3,325,-1.58,-0.953,9.57,0
410,35.204,-97.474,270,13.02,3,325,-1.426,-0.723,9.47,0
411,35.204,-97.474,269.8,13.22,3,325,-1.128,-0.394,9.58,1
412,35.204,-97.474,269.9,12.94,3,325,-1.187,-0.507,9.51,0
413,35.204,-97.475,269.9,12.72,3,325,-1.657,-0.913,9.609,0
414,35.204,-97.475,269.9,12.73,3,325,-0.755,-0.115,9.865,0
415,35.204,-97.475,269.8,12.37,3,325,-0.848,-0.176,9.653,0
416,35.204,-97.475,269.9,11.52,3,325,-0.752,-0.125,9.438,0
417,35.204,-97.475,270.1,10.65,3,325,-0.56,-0.073,9.934,0
418,35.204,-97.475,270.1,9.73,3,325,-0.634,-0.046,10.279,0
419,35.204,-97.475,270.2,8.59,3,325,-0.92,-0.417,9.591,0
420,35.204,-97.475,270.1,7.63,3,325,-1.179,-0.623,9.521,0
421,35.204,-97.475,269.8,6.84,3,324,-1.161,-0.749,9.375,0
422,35.204,-97.476,269.7,6.7001,3,324,-1.872,-0.836,9.317,0
423,35.204,-97.476,270,6.9301,3,323,-2.143,-1.344,9.356,0
424,35.204,-97.476,270.7,7.54,3,323,-2.259,-1.089,8.964,0
425,35.204,-97.476,271.2,8.4801,3,323,-2.314,-0.983,9.346,0
426,35.204,-97.476,271.2,9.4303,3,323,-2.238,-0.946,9.188,0
427,35.204,-97.476,271.4,10.2,3,323,-0.455,0.11,9.628,0
428,35.204,-97.476,271.5,9.8401,3,323,-1.487,-0.486,9.58,0
429,35.204,-97.476,271.8,9.32,3,323,-1.71,-0.601,9.335,0
430,35.204,-97.476,272,9.49,3,322,-1.279,-0.848,9.584,0
431,35.204,-97.476,272.1,9.63,3,322,-1.505,-1.177,10.039,0
432,35.204,-97.476,271.5,9.75,3,321,-1.432,-0.676,8.187,0
433,35.204,-97.477,270.9,9.88,3,321,-1.959,-0.811,9.258,0
434,35.204,-97.477,270.5,10.19,3,322,-1.472,-0.589,10.803,0
435,35.204,-97.477,270.2,10.43,3,322,-2.081,-0.994,9.418,0
436,35.204,-97.477,270,10.53,3,322,-1.929,-1.061,9.061,0
437,35.204,-97.477,270.5,11.01,3,321,-1.97,-0.959,9.254,0
438,35.204,-97.477,270.3,11.72,3,321,-1.933,-1.145,9.699,0
439,35.204,-97.477,270.1,12.34,3,321,-1.561,-0.873,9.713,0
440,35.204,-97.477,270.3,12.58,3,321,-1.719,-0.84,9.414,0
441,35.204,-97.478,270.4,12.72,3,321,-1.855,-0.83,9.485,0
442,35.204,-97.478,270.5,12.791,3,321,-1.857,-0.893,9.835,0
443,35.204,-97.478,270.6,13.13,3,321,-1.515,-0.863,9.33,0
444,35.204,-97.478,270.6,13.56,3,322,-1.419,-0.821,9.629,0
445,35.204,-97.478,270.3,13.72,3,322,-1.177,-0.395,9.47,0
446,35.204,-97.478,270,13.64,3,323,-1.23,-0.043,9.676,0
447,35.204,-97.479,270.1,13.302,3,323,-1.781,0.585,9.936,0
448,35.204,-97.479,271.9,12.65,3,323,-1.933,0.883,9.388,0
450,35.204,-97.479,276.8,12.143,3,324,-2.429,1.369,9.549,0
451,35.204,-97.479,285.1,11.59,3,325,-2.271,1.703,9.035,0
452,35.204,-97.479,295.1,11.112,3,325,-2.402,1.52,9.771,0
453,35.204,-97.479,305.9,10.52,3,326,-2.494,1.151,9.45,0
454,35.204,-97.479,319.1,10.497,3,325,-2.357,0.07,9.45,0
455,35.204,-97.479,328.1,10.202,3,326,-2.187,-0.482,9.404,1
456,35.204,-97.479,338.8,10.57,3,325,-2.289,-0.097,9.404,0
457,35.205,-97.479,340.9,11.19,3,325,-1.379,-1.24,9.71,1
458,35.205,-97.479,344.6,11.943,3,323,-1.634,-1.112,9.612,0
459,35.205,-97.479,341.9,12.741,3,322,-1.513,-0.911,9.264,0
460,35.205,-97.479,341,13.511,3,322,-1.392,-1.239,9.044,0
461,35.205,-97.48,340.7,15.156,3,321,-1.639,-0.942,9.138,0
462,35.205,-97.48,340.4,16.036,3,320,-1.785,-1.072,9.629,0
463,35.205,-97.48,340.5,16.995,3,319,-2.06,-0.923,9.844,0
464,35.206,-97.48,340.5,17.892,3,318,-1.723,-0.955,9.299,0
465,35.206,-97.48,340.5,17.892,3,318,-2.205,-1.125,9.288,0
466,35.206,-97.48,340.9,19.771,3,316,-2.187,-1.244,9.021,0
467,35.206,-97.48,340.8,20.85,3,315,-2.812,-1.166,9.622,0
468,35.206,-97.48,340.7,22.07,3,315,-2.7,-1.169,9.719,0
469,35.206,-97.48,340.2,23.41,3,315,-2.522,-1.424,9.43,0
470,35.207,-97.48,339.6,24.78,3,315,-2.112,-1.255,9.131,0
471,35.207,-97.48,338.6,25.85,3,316,-1.981,-0.566,9.738,0
472,35.207,-97.48,338,26.27,3,316,-1.357,-0.892,9.795,0
473,35.207,-97.481,337.2,26.56,3,316,-1.717,-0.299,9.807,0
474,35.208,-97.481,336.3,26.74,3,316,-1.686,-0.384,9.402,0
475,35.208,-97.481,335.8,26.85,3,316,-1.686,-0.596,9.584,0
476,35.208,-97.481,335,26.981,3,317,-1.352,-1.34,9.555,0
477,35.208,-97.481,333,27.142,3,317,-1.774,-1.127,9.349,0
478,35.208,-97.481,331.2,27.41,3,317,-1.98,-0.741,9.796,0
479,35.209,-97.481,330.9,28.4,3,318,-2.246,-0.287,9.149,0
480,35.209,-97.481,330.6,28.531,3,318,-2.502,-0.854,9.056,0
481,35.209,-97.482,331.1,29.02,3,318,-2.533,-0.997,9.37,0
482,35.209,-97.482,332,30.01,3,317,-1.486,-1.953,9.266,0
483,35.21,-97.482,331.3,31.011,3,318,-1.549,-1.804,9.067,1
484,35.21,-97.482,330,31.911,3,318,-2.662,-0.594,9.216,0
485,35.21,-97.482,330.8,32.74,3,318,-2.041,-1.188,9.038,0
486,35.21,-97.482,331.7,33.81,3,318,-2.17,-1.601,9.947,0
487,35.211,-97.483,331.5,34.79,3,318,-0.987,-2.421,9.216,0
488,35.211,-97.483,330,35.64,3,318,-2.574,0.091,9.148,0
489,35.211,-97.483,329.8,36.301,3,318,-2.31,-0.444,9.484,0
490,35.211,-97.483,331.5,37.07,3,318,-1.345,-1.487,9.145,0
491,35.212,-97.483,331.6,37.76,3,318,-1.264,-1.766,9.781,0
492,35.212,-97.484,330.3,38.301,3,318,-2.858,0.202,9.238,0
493,35.212,-97.484,330.4,39.04,3,319,-1.269,0.433,9.569,0
494,35.213,-97.484,331.9,38.97,3,319,-1.918,0.95,9.919,0
495,35.213,-97.484,333.8,38.47,3,317,-1.777,0.754,9.787,0
496,35.213,-97.484,335.7,37.76,3,318,-1.688,0.743,9.628,0
497,35.214,-97.485,337.9,37.19,3,318,-1.495,0.423,9.835,0
498,35.214,-97.485,339.8,36.64,3,318,-1.544,0.311,9.515,0
499,35.214,-97.485,341.5,36.16,3,318,-1.684,0.806,9.107,0
500,35.215,-97.485,343.3,35.82,3,318,-1.32,0.225,9.414,0
501,35.215,-97.485,344.9,35.291,3,319,-1.392,0.144,9.845,0
502,35.215,-97.485,346.4,34.851,3,319,-1.728,0.243,9.855,0
503,35.215,-97.485,348,34.48,3,320,-1.968,0.016,9.349,1
504,35.216,-97.485,350.1,34.3,3,321,-1.965,-0.089,9.262,1
505,35.216,-97.485,351.8,34.35,3,321,-1.915,-0.028,9.453,0
506,35.216,-97.485,353.4,34.53,3,322,-1.751,-0.333,10.02,0
507,35.217,-97.485,354.5,34.63,3,322,-2.333,0.155,8.956,0
508,35.217,-97.485,356,34.81,3,322,-2.119,-0.076,8.966,0
510,35.217,-97.485,358.5,35.17,3,322,-1.665,-0.431,10.612,0
511,35.218,-97.485,0.1,35.54,3,323,-0.945,-0.117,9.403,0
512,35.218,-97.485,0.4,35.501,3,323,-1.682,-0.617,9.611,0
513,35.218,-97.485,359.7,35.82,3,323,-1.676,-0.224,9.612,0
514,35.219,-97.485,359.5,35.68,3,323,-1.254,-0.43,8.984,0
515,35.219,-97.485,359.4,35.27,3,323,-1.609,-0.317,9.356,0
516,35.219,-97.485,359.3,35.1,3,324,-1.644,-0.156,9.905,0
517,35.22,-97.485,359.5,34.68,3,324,-1.884,-0.224,10.332,0
518,35.22,-97.485,359.6,34.61,3,325,-1.711,-0.297,9.815,0
519,35.22,-97.485,359.9,34.56,3,326,-1.601,-0.341,9.592,0
520,35.22,-97.485,0.1,34.511,3,326,-1.794,-0.379,10.036,0
521,35.221,-97.485,0,34.41,3,327,-1.603,-0.319,9.448,0
522,35.221,-97.485,359.9,34.38,3,328,-1.573,-0.315,9.994,0
523,35.222,-97.485,359.9,34.32,3,328,-1.6,-0.403,9.759,0
524,35.222,-97.485,359.8,34.28,3,329,-1.7,-0.21,9.856,0
525,35.222,-97.485,359.9,34.28,3,329,-1.517,-0.421,9.522,0
526,35.223,-97.485,0,34.281,3,330,-1.571,-0.048,9.213,0
527,35.223,-97.485,0,34.25,3,330,-1.412,-0.049,9.507,0
528,35.223,-97.485,0.1,34.091,3,330,-1.353,0.022,9.576,0
529,35.224,-97.485,0.1,33.731,3,331,-1.162,-0.192,9.673,0
530,35.224,-97.485,359.8,33.34,3,331,-1.315,-0.133,9.497,0
531,35.224,-97.485,359.9,33.15,3,332,-1.517,-0.183,9.461,1
532,35.224,-97.485,0,33.1,3,331,-1.488,-0.343,9.472,1
533,35.225,-97.485,359.8,33.07,3,332,-1.498,-0.101,9.428,1
534,35.225,-97.485,359.7,33.06,3,332,-1.656,-0.132,9.468,1
535,35.225,-97.485,359.9,33.09,3,332,-1.723,-0.157,9.343,1
536,35.226,-97.485,359.9,33.4,3,332,-1.652,-0.584,9.842,0
537,35.226,-97.485,0.1,33.38,3,333,-1.674,-0.484,9.707,0
538,35.226,-97.485,359.9,33.52,3,333,-1.216,-0.141,9.723,0
539,35.227,-97.485,359.7,33.29,3,333,-1.564,-0.313,9.63,0
540,35.227,-97.485,359.6,33.33,3,334,-1.641,-0.364,9.915,0
541,35.227,-97.485,359.7,33.42,3,334,-1.68,-0.218,9.13,0
542,35.227,-97.485,0,33.52,3,334,-1.585,-0.479,9.814,0
543,35.228,-97.485,359.8,33.56,3,331,-1.575,-0.33,9.323,0
544,35.228,-97.485,359.7,33.57,3,332,-1.746,-0.25,9.389,0
545,35.228,-97.485,359.9,33.63,3,334,-1.669,-0.182,9.587,0
546,35.229,-97.485,359.9,33.66,3,331,-1.572,-0.31,9.569,0
547,35.229,-97.485,359.8,33.69,3,333,-1.691,-0.241,9.698,0
548,35.229,-97.485,359.9,33.68,3,334,-1.611,-0.28,9.252,0
549,35.23,-97.485,359.9,33.69,3,335,-1.663,-0.242,9.52,0
550,35.23,-97.485,0.1,33.69,3,335,-1.587,-0.273,9.429,0
551,35.23,-97.485,0.2,33.71,3,336,-1.648,-0.324,9.586,0
552,35.231,-97.485,0,33.69,3,336,-1.494,-0.233,9.3,0
553,35.231,-97.485,359.8,33.72,3,337,-1.702,-0.233,9.672,1
554,35.231,-97.485,359.9,33.7,3,337,-1.598,-0.279,9.284,0
555,35.231,-97.485,359.8,33.71,3,338,-1.573,-0.268,9.41,0
556,35.232,-97.485,359.9,33.622,3,338,-1.686,-0.183,9.643,0
557,35.232,-97.485,359.9,33.71,3,338,-1.629,-0.164,9.772,0
558,35.232,-97.485,0,33.71,3,339,-1.611,-0.225,9.42,0
559,35.233,-97.485,0.1,33.74,3,339,-1.494,-0.382,9.537,0
560,35.233,-97.485,1.1,34.163,3,339,-1.596,-0.281,9.611,0
561,35.233,-97.485,0.1,34.27,3,340,-1.5,-0.351,9.3,1
562,35.234,-97.485,359.7,33.73,3,340,-1.626,-0.104,9.554,1
563,35.234,-97.485,359.8,33.72,3,340,-1.645,-0.19,9.314,1
564,35.234,-97.485,359.9,33.73,3,340,-1.65,-0.199,9.675,1
565,35.234,-97.485,0,33.71,3,340,-1.684,-0.274,9.646,1
566,35.235,-97.485,359.9,33.68,3,339,-1.561,-0.292,9.543,1
567,35.235,-97.485,359.9,33.72,3,339,-1.518,-0.212,9.37,1
568,35.235,-97.485,359.8,33.71,3,339,-1.678,-0.233,9.552,1
569,35.236,-97.485,359.7,33.71,3,340,-1.751,0.013,9.674,1
570,35.236,-97.485,0,33.71,3,340,-1.482,-0.36,9.577,1
571,35.236,-97.485,0.1,33.7,3,340,-1.465,-0.31,9.401,1
572,35.237,-97.485,359.9,33.7,3,340,-1.589,-0.188,9.935,0
573,35.237,-97.485,0.1,33.72,3,340,-1.535,-0.338,9.589,0
574,35.237,-97.485,0.1,33.72,3,340,-1.411,-0.381,9.153,0
576,35.237,-97.485,359.7,33.72,3,340,-1.596,-0.236,9.365,0
577,35.238,-97.485,359.7,33.79,3,340,-1.588,-0.308,9.56,0
578,35.238,-97.485,359.8,33.79,3,340,-1.62,-0.355,9.614,0
579,35.238,-97.485,359.9,33.82,3,340,-1.523,-0.209,9.465,0
580,35.239,-97.485,359.9,33.84,3,340,-1.541,-0.182,9.294,0
581,35.239,-97.485,359.9,33.85,3,340,-1.518,-0.163,9.263,1
582,35.239,-97.485,0,33.82,3,339,-1.542,-0.195,9.953,0
583,35.24,-97.485,0.1,33.76,3,339,-1.402,-0.339,9.367,0
584,35.24,-97.485,0,33.73,3,339,-1.459,-0.221,9.467,0
585,35.24,-97.485,0,33.74,3,339,-1.448,-0.183,9.367,0
586,35.241,-97.485,0,33.74,3,339,-1.489,-0.196,9.63,0
587,35.241,-97.485,359.9,33.67,3,339,-1.394,-0.178,9.674,0
588,35.241,-97.485,359.9,33.52,3,339,-1.371,0.033,9.568,0
589,35.242,-97.485,359.8,32.9,3,339,-1.343,0.138,9.622,0
590,35.242,-97.485,0,32.54,3,339,-1.336,-0.044,9.467,1
591,35.242,-97.485,0.1,32.19,3,339,-1.278,-0.072,9.786,0
592,35.243,-97.485,0.1,31.78,3,339,-1.191,-0.043,9.586,0
593,35.243,-97.485,0,31.43,3,339,-1.412,-0.151,9.57,0
594,35.243,-97.485,359.8,31.15,3,339,-1.356,-0.094,9.88,0
595,35.243,-97.485,359.8,31,3,339,-1.391,-0.17,9.458,0
596,35.244,-97.485,359.8,30.89,3,339,-1.452,-0.225,9.823,0
597,35.244,-97.485,359.8,30.77,3,339,-1.438,-0.18,9.098,0
598,35.244,-97.485,0,30.72,3,340,-1.731,-0.343,9.575,0
599,35.245,-97.485,0.2,30.91,3,340,-1.742,-0.462,9.41,0
600,35.245,-97.485,0.1,31.25,3,339,-1.722,-0.611,9.433,0
601,35.245,-97.485,0,31.68,3,338,-1.818,-0.56,9.256,0
602,35.245,-97.485,359.9,32.11,3,338,-1.798,-0.514,9.217,1
603,35.246,-97.485,359.9,32.44,3,338,-1.788,-0.426,9.556,1
604,35.246,-97.485,359.8,32.61,3,338,-1.604,-0.435,9.61,1
605,35.246,-97.485,359.7,32.78,3,338,-1.751,-0.317,9.325,1
606,35.247,-97.485,0,32.99,3,339,-1.716,-0.248,9.309,1
607,35.247,-97.485,0.2,33.17,3,339,-1.529,-0.421,9.535,1
608,35.247,-97.485,0,33.25,3,339,-1.515,-0.402,9.602,1
609,35.247,-97.485,0,33.26,3,339,-1.526,-0.31,9.863,0
610,35.248,-97.485,0.1,33.161,3,340,-1.573,-0.367,9.556,0
611,35.248,-97.485,0.2,33.92,3,340,-1.616,-0.259,9.414,0
