time,lat,lng,bearing,spd,acc,alt,accx,accy,accz,stable,
0,35.211,-97.44,0,0.01,10,316,-3.004,0.214,8.905,1
1,35.211,-97.44,0,0.01,10,316,-2.976,0.2,8.883,1
2,35.211,-97.44,0,0.01,10,316,-3.043,0.163,9.417,1
3,35.211,-97.44,0,0.01,10,316,-3.035,0.119,9.361,1
4,35.211,-97.44,0,0.01,10,316,-3.02,0.122,9.474,1
5,35.211,-97.44,0,0.01,10,316,-2.918,0.206,8.957,0
7,35.211,-97.44,0,0.01,10,316,-2.97,0.186,8.845,1
8,35.211,-97.44,0,0.01,10,316,-2.955,0.183,9.177,1
9,35.211,-97.44,0,0.01,10,316,-2.787,0.236,8.92,1
10,35.211,-97.44,0,0.01,10,316,-2.621,0.302,8.92,0
11,35.211,-97.44,0,0.01,10,316,-2.974,0.106,9.078,0
12,35.211,-97.44,0,0.01,10,316,-2.633,0.232,9.388,1
13,35.211,-97.44,179.9,0.79404,10,316,-3.207,0.085,9.231,0
14,35.211,-97.44,172.4,0.82201,10,317,-3.34,0.123,9.342,0
15,35.211,-97.44,172.4,0.82201,10,317,-2.831,0.141,8.898,1
16,35.211,-97.44,155.5,0.74465,9,318,-3.143,0.418,9.141,0
17,35.211,-97.44,155.5,0.74465,9,318,-3.069,0.36,9.115,1
18,35.211,-97.44,134,0.60166,9,317,-3.146,0.223,9.31,1
19,35.211,-97.44,134,0.60166,9,317,-3.868,-0.113,8.875,1
20,35.211,-97.44,134,0.60166,9,317,-3.787,-1.156,8.685,1
21,35.211,-97.44,120.4,1.9865,9,318,-3.659,-1.623,8.527,1
22,35.211,-97.439,102,3.2937,9,319,-4.256,-0.668,8.911,0
23,35.211,-97.439,98.7,4.6104,9,319,-2.817,-0.253,9.194,0
24,35.211,-97.439,96.1,4.8564,9,319,-2.95,-0.45,9.887,0
25,35.211,-97.439,92.6,5.024,9,319,-2.865,0.207,9.059,0
26,35.211,-97.439,91.3,5.0935,9,319,-2.845,0.079,9.053,0
27,35.211,-97.439,91.5,5.0153,9,319,-3.195,0.154,9.97,0
28,35.211,-97.439,92.8,4.8337,9,319,-2.386,0.291,8.919,0
29,35.211,-97.439,94,4.3056,9,319,-2.399,0.206,9.694,0
30,35.211,-97.439,94.4,3.4264,9,319,-1.996,0.514,9.727,0
31,35.211,-97.439,93.8,2.2251,9,319,-2.919,0.206,9.628,0
32,35.211,-97.439,93.2,2.0729,9,319,-2.421,0.271,8.695,0
33,35.211,-97.439,92.5,1.8339,3,320,-3.091,-0.136,9.189,0
34,35.211,-97.439,91.7,1.9916,3,319,-2.817,-1.085,9.127,0
35,35.211,-97.439,84.6,2.8914,3,320,-2.374,-2.203,9.602,0
36,35.211,-97.439,67.6,3.8043,3,320,-2.676,-1.847,8.705,0
37,35.211,-97.439,44.4,4.4037,3,320,-2.778,-1.752,9.202,1
38,35.211,-97.439,21.8,5.0601,3,320,-3.097,-1.693,9.387,0
39,35.211,-97.439,7.4,5.8609,3,320,-3.004,-0.089,7.861,0
40,35.211,-97.439,1.8,6.63,4,319,-2.724,-0.429,8.792,0
41,35.211,-97.439,1.3,6.5601,4,319,-2.285,0.288,8.694,0
42,35.211,-97.439,1.1,6.1602,4,319,-1.41,0.152,9.716,0
43,35.211,-97.439,0.9,4.9501,4,319,-0.94,0.492,9.966,0
45,35.211,-97.439,0.9,3.1801,4,319,-2.585,-0.34,9.422,1
46,35.211,-97.439,0.8,2.4202,4,319,-2.273,0.091,9.093,0
47,35.211,-97.439,0.8,1.9007,3,319,-2.263,-0.048,9.263,0
48,35.211,-97.439,1.2,1.24,3,319,-2.572,0.047,9.2,0
49,35.211,-97.439,1.2,1.24,3,319,-2.74,0.095,8.961,0
50,35.211,-97.439,1.4,0.59,3,319,-2.518,0.182,9.623,1
51,35.211,-97.439,1.4,0.59,3,319,-2.815,0.057,9.057,1
52,35.211,-97.439,1.4,0.59,3,319,-2.809,0,9.184,1
53,35.211,-97.439,1.4,0.59,3,319,-2.861,0.028,9.353,1
54,35.211,-97.439,1.4,0.59,3,319,-2.804,0.014,9.087,1
55,35.211,-97.439,1.4,0.59,3,319,-2.836,0.028,9.112,1
56,35.211,-97.439,1.4,0.59,3,319,-2.84,0.024,9.31,1
57,35.211,-97.439,1.4,0.59,3,319,-3.63,-0.396,8.992,1
58,35.211,-97.439,1.3,1.6715,3,319,-4.688,-1.288,8.593,0
59,35.211,-97.439,356.5,3.7501,3,319,-3.774,-1.917,9.202,0
60,35.211,-97.439,341.6,4.803,3,319,-2.749,-2.692,8.02,0
61,35.211,-97.439,314.5,5.69,3,319,-2.371,-3.497,8.769,0
62,35.211,-97.439,287.8,6.6103,4,319,-3.691,-1.331,8.746,1
63,35.211,-97.439,276.1,7.7203,3,320,-4.053,-1.567,8.663,0
64,35.211,-97.439,272.1,9.6301,4,320,-4.174,-0.724,8.752,0
65,35.211,-97.439,271.8,11.13,5,320,-4.227,-0.482,8.489,0
66,35.211,-97.439,272.7,12.5,5,319,-4.058,-0.417,8.659,0
67,35.211,-97.44,271.6,13.74,5,319,-3.567,-0.736,8.711,0
68,35.211,-97.44,271,14.64,5,319,-3.416,-0.092,8.001,0
69,35.211,-97.44,271.6,15.12,4,320,-2.83,-0.032,9.609,0
70,35.211,-97.44,272.1,15.22,4,320,-2.691,-0.191,10.37,0
71,35.211,-97.44,272.3,15.13,4,320,-2.704,-0.154,9.952,0
72,35.211,-97.44,271.8,14.77,4,320,-2.456,-0.261,9.175,0
73,35.211,-97.441,271.1,14.36,4,320,-2.913,-0.578,9.069,0
74,35.211,-97.441,270.2,14.34,3,321,-2.836,-0.101,8.996,0
75,35.211,-97.441,269.6,14.38,4,321,-2.851,-0.273,8.728,0
76,35.211,-97.441,269.7,14.43,4,321,-2.935,-0.064,9.099,0
77,35.211,-97.441,269.7,14.55,4,321,-3.141,-0.19,9.093,0
78,35.211,-97.441,269.7,14.65,4,321,-3.146,-0.493,9.934,0
79,35.211,-97.441,269.4,14.79,4,321,-2.827,-0.31,9.016,0
80,35.211,-97.442,268.9,14.82,4,321,-3.145,-0.42,8.314,0
81,35.211,-97.442,268.6,14.95,4,321,-2.758,-0.457,9.4,0
82,35.211,-97.442,268.3,15.19,4,321,-2.669,-0.314,8.695,0
83,35.211,-97.442,267.9,15.02,4,321,-3.262,0.105,8.941,0
84,35.211,-97.442,268.3,15.06,4,321,-3.044,-0.043,8.798,0
86,35.211,-97.442,269.1,15.2,5,321,-3.171,-0.36,9.88,0
87,35.211,-97.443,269.8,15.3,5,321,-2.733,-0.295,8.912,0
88,35.211,-97.443,270,15.09,6,321,-2.881,-0.32,8.828,0
89,35.211,-97.443,269.7,15.21,6,320,-2.534,0.177,8.445,0
90,35.211,-97.443,270.2,14.952,5,321,-3.018,-0.153,8.801,0
91,35.211,-97.443,270.5,15.08,5,321,-2.852,-0.299,9.579,0
92,35.211,-97.443,270.2,15.09,5,322,-2.63,0.599,8.839,0
93,35.211,-97.444,274.2,14.96,5,321,-2.089,-0.806,10.699,0
94,35.211,-97.444,274,14.62,4,321,-3.003,-0.71,8.875,1
95,35.211,-97.444,272.9,14.6,4,321,-2.859,-0.629,9.032,0
96,35.211,-97.444,272.6,14.76,4,321,-2.825,-0.309,8.919,0
97,35.211,-97.444,272.7,14.7,4,321,-2.92,-0.293,9.049,0
98,35.211,-97.445,272.7,14.59,4,321,-2.398,-0.671,9.85,0
99,35.211,-97.445,272.5,14.46,4,321,-2.506,-0.399,9.334,0
100,35.211,-97.445,272.2,14.25,4,322,-2.704,-0.305,9.292,0
101,35.211,-97.445,272.2,13.82,4,322,-2.548,-0.286,9.318,0
102,35.211,-97.445,272.2,13.44,3,322,-2.382,-0.53,9.526,0
103,35.211,-97.445,271.8,13.23,3,321,-2.617,-0.678,8.05,0
104,35.211,-97.446,271.6,13.29,3,321,-2.874,-0.685,9.597,0
105,35.211,-97.446,271.4,13.49,4,321,-2.956,-0.81,9.432,1
106,35.211,-97.446,271.1,13.63,4,322,-2.887,-0.618,9.179,0
107,35.211,-97.446,270.9,13.62,4,321,-2.17,-0.397,8.956,0
108,35.211,-97.446,270.7,13.5,4,322,-2.725,-0.458,9.052,0
109,35.211,-97.446,270.3,13.6,4,321,-2.575,-0.328,9.382,0
110,35.211,-97.446,269.8,13.36,4,322,-2.797,-0.346,8.764,0
111,35.211,-97.447,269.7,13.34,3,321,-3.014,-0.615,8.836,0
112,35.211,-97.447,269.6,13.54,4,321,-3.203,-0.71,8.987,0
113,35.211,-97.447,269.6,14.04,4,321,-3.453,-0.836,8.803,0
114,35.211,-97.447,269.6,14.61,4,320,-3.411,-0.505,7.944,0
115,35.211,-97.447,269.6,15.14,4,321,-0.73,0.784,10.717,0
116,35.211,-97.447,269.6,12.79,5,320,-0.516,0.981,9.755,0
117,35.211,-97.447,269.4,10.17,4,320,-0.582,0.787,9.934,0
118,35.211,-97.448,269.5,7.571,4,318,-0.392,1.017,9.948,0
119,35.211,-97.448,269.6,4.7715,4,318,-0.856,0.864,9.597,0
120,35.211,-97.448,269.4,2.4659,4,317,-1.48,0.446,10.324,0
121,35.211,-97.448,269.2,0.59481,4,316,-2.959,-0.539,9.255,1
122,35.211,-97.448,269.2,0.59481,4,316,-2.832,-0.409,9.228,1
123,35.211,-97.448,269.2,0.59481,4,316,-2.866,-0.425,9.235,1
124,35.211,-97.448,269.2,0.59481,4,316,-2.842,-0.411,9.256,1
125,35.211,-97.448,269.2,0.59481,4,316,-2.818,-0.424,9.28,1
126,35.211,-97.448,268.7,0.88566,10,314,-2.823,-0.419,9.131,1
127,35.211,-97.448,268.7,0.88566,10,314,-2.82,-0.428,9.166,1
128,35.211,-97.448,268.7,0.88566,10,314,-2.845,-0.413,9.122,1
129,35.211,-97.448,268.7,0.88566,10,314,-2.824,-0.425,9.252,1
130,35.211,-97.448,268.7,0.88566,10,314,-2.849,-0.431,9.248,1
132,35.211,-97.448,268.7,0.88566,10,314,-2.885,-0.42,9.174,1
133,35.211,-97.448,268.7,0.88566,10,314,-2.854,-0.424,9.112,1
134,35.211,-97.448,268.7,0.88566,10,314,-2.836,-0.422,9.098,1
135,35.211,-97.448,268.7,0.88566,10,314,-2.855,-0.414,9.16,1
136,35.211,-97.448,268.7,0.88566,10,314,-2.844,-0.424,9.222,1
137,35.211,-97.448,268.7,0.88566,10,314,-2.872,-0.416,9.155,1
138,35.211,-97.448,268.7,0.88566,10,314,-5.319,-1.958,8.027,0
139,35.211,-97.448,267.8,2.8609,10,316,-5.162,-2.092,8.983,0
140,35.211,-97.448,267.7,2.9904,10,316,-4.723,-1.893,8.551,0
141,35.211,-97.448,267.5,8.2209,9,316,-4.784,-1.589,7.644,0
142,35.211,-97.448,267.2,10.141,9,317,-3.998,-1.216,9.06,0
143,35.211,-97.448,268,11.561,9,315,-4.037,-1.328,9.005,0
144,35.211,-97.448,267.6,12.761,9,316,-3.823,-1.186,8.56,0
145,35.211,-97.448,267.6,13.891,9,316,-3.6,-0.967,8.55,0
146,35.211,-97.448,267.9,14.89,9,316,-3.275,-0.671,9.274,0
147,35.211,-97.449,268.6,15.281,9,316,-3.16,-0.622,9.396,0
148,35.211,-97.449,269.2,15.591,9,316,-4.453,0.038,10.069,0
149,35.211,-97.449,269.3,15.681,9,316,-3.414,-0.209,8.825,0
150,35.211,-97.449,269.6,15.98,9,315,-2.884,-0.569,8.816,1
151,35.211,-97.449,269.8,16.24,9,316,-2.959,-0.623,9.698,0
152,35.211,-97.45,269.8,16.54,9,316,-3.057,-0.136,8.748,0
153,35.211,-97.45,269.7,16.591,9,317,-2.916,-0.431,9.029,0
154,35.211,-97.45,269.6,16.621,9,317,-2.873,-0.205,8.247,0
155,35.211,-97.45,269.6,16.681,9,318,-3.011,-0.327,8.802,0
156,35.211,-97.45,269.7,16.57,9,317,-3.063,-0.426,9.346,0
157,35.211,-97.45,269.9,16.71,9,317,-2.881,-0.463,9.235,0
158,35.211,-97.451,270.1,16.79,9,317,-2.523,-0.617,9.581,0
159,35.211,-97.451,269.9,16.56,9,316,-2.25,-1.155,10.038,0
160,35.211,-97.451,269.8,16.2,9,316,-2.881,-0.873,9.555,0
161,35.211,-97.451,269.6,16.36,9,316,-2.82,-0.573,9.673,0
162,35.211,-97.451,269.3,16.46,9,317,-2.807,-0.43,9.395,0
163,35.211,-97.452,269.5,16.36,9,317,-1.936,-0.822,10.214,0
164,35.211,-97.452,270.5,16.18,9,318,-2.638,-0.863,9.17,0
165,35.211,-97.452,270.6,16.26,9,318,-2.711,-0.499,9.187,0
166,35.211,-97.452,270.5,16.22,9,318,-2.464,-0.443,9.417,1
167,35.211,-97.452,270.4,16.041,9,318,-2.129,0.509,7.888,0
168,35.211,-97.452,270.7,16.052,9,318,-2.616,-0.625,8.924,0
169,35.211,-97.453,270.9,16.221,9,319,-2.572,-0.817,9.45,1
170,35.211,-97.453,270.7,16.392,9,318,-2.559,-0.415,9.389,0
171,35.211,-97.453,270.4,16.301,10,319,-1.94,-0.474,8.505,1
172,35.211,-97.453,270.3,16.082,10,319,-2.781,-1.076,10.758,0
173,35.211,-97.453,270.4,16.096,10,318,-2.605,-0.61,9.141,0
174,35.211,-97.453,270.4,16.324,10,318,-2.865,-0.667,9.416,0
175,35.211,-97.454,270.1,16.471,10,318,-2.29,-0.29,7.959,0
176,35.211,-97.454,270,16.362,10,317,-2.886,-0.711,9.716,0
178,35.211,-97.454,270.2,16.532,10,317,-2.722,-0.863,9.139,0
179,35.211,-97.454,270.3,16.751,9,317,-2.603,-0.745,9.538,0
180,35.211,-97.454,270.1,16.751,9,317,-2.468,-0.681,8.377,0
181,35.211,-97.455,269.9,16.85,9,316,-1.932,-0.909,8.151,0
182,35.211,-97.455,269.8,16.801,9,316,-2.771,-0.637,9.124,0
183,35.211,-97.455,269.6,16.761,9,316,-2.449,-0.396,9.118,0
184,35.211,-97.455,269.6,16.394,9,317,-2.971,-0.62,9.144,0
185,35.211,-97.455,269.8,15.858,9,318,-2.679,-0.439,9.246,0
186,35.211,-97.456,270.2,14.95,9,318,-2.808,-0.53,8.856,0
187,35.211,-97.456,270.2,14.518,9,319,-2.811,-0.832,9.463,0
188,35.211,-97.456,270,14.209,9,320,-2.557,-0.844,9.213,0
189,35.211,-97.456,269.8,13.723,9,320,-2.875,-0.657,9.086,0
190,35.211,-97.456,269.8,13.492,9,321,-2.696,-0.66,8.844,0
191,35.211,-97.456,269.7,13.16,9,320,-2.652,-0.462,9.092,0
192,35.211,-97.457,269.6,12.78,10,320,-2.923,-0.623,9.053,0
193,35.211,-97.457,269.8,12.83,10,319,-2.439,-0.479,8.84,0
194,35.211,-97.457,269.8,12.31,10,318,-1.549,0.324,9.639,0
195,35.211,-97.457,270,11.13,10,318,-2.532,-0.195,9.347,0
196,35.211,-97.457,269.9,10.8,10,319,-2.546,-0.169,9.029,0
197,35.211,-97.457,270.3,10.31,9,319,-2.969,-0.483,9.129,1
198,35.211,-97.457,270.7,10.25,9,318,-2.895,-0.824,9.065,0
199,35.211,-97.457,270.6,10.4,9,319,-2.631,-0.686,8.692,1
200,35.211,-97.458,270.3,10.34,9,319,-2.939,-0.681,9.413,0
201,35.211,-97.458,270,10.461,9,320,-2.944,-0.835,9.394,1
202,35.211,-97.458,269.8,10.68,9,320,-2.923,-0.854,8.951,1
203,35.211,-97.458,269.3,10.84,9,320,-2.745,-0.386,9.194,1
204,35.211,-97.458,268,10.47,9,320,-1.57,0.488,9.205,0
205,35.211,-97.458,268.9,9.8401,9,320,-2.238,-0.553,9.243,1
206,35.211,-97.458,269.5,9.3302,9,320,-3.16,-1.203,8.642,1
207,35.211,-97.458,268.3,9.8502,9,320,-3.176,-0.771,9.349,0
208,35.211,-97.458,268.4,10.35,9,319,-2.534,-0.196,9.109,0
209,35.211,-97.459,269.1,9.9003,9,319,-2.474,0.053,9.317,0
210,35.211,-97.459,270.3,9.4901,10,320,-2.324,0.047,9.575,0
211,35.211,-97.459,271.7,8.6003,10,320,-1.471,-1.591,8.986,0
212,35.211,-97.459,267.3,7.2516,10,319,-0.937,-2.673,9.721,0
213,35.211,-97.459,248.6,6.6073,10,320,-0.816,-3.175,9.089,0
214,35.211,-97.459,225.8,6.1929,4,319,-0.962,-3.997,9.155,0
215,35.211,-97.459,199.5,6.4949,4,318,-3.51,-1.823,8.973,1
216,35.211,-97.459,182.4,7.3869,4,318,-4.049,-1.108,9.003,0
217,35.211,-97.459,179.8,8.7055,4,317,-3.495,-1.216,8.484,0
218,35.211,-97.459,178.9,9.9646,4,317,-3.469,-1.052,8.125,0
219,35.211,-97.459,177.9,11.549,5,316,-4.002,-0.708,9.093,0
220,35.211,-97.459,177.6,12.859,5,316,-3.874,-0.518,8.713,0
221,35.211,-97.459,180.1,14.068,6,316,-3.563,-0.886,8.634,0
222,35.21,-97.459,181.4,15.222,5,315,-3.446,-1.246,9.124,0
223,35.21,-97.459,181.9,16.187,5,314,-3.176,-1.057,8.808,0
225,35.21,-97.459,181.9,17.226,4,314,-2.581,-0.439,9.747,0
226,35.21,-97.459,181.1,17.084,4,314,-2.734,-0.252,8.985,0
227,35.21,-97.459,180.7,16.543,4,314,-2.628,-0.603,9.645,0
228,35.21,-97.459,180.4,16.002,4,315,-2.296,-0.456,8.288,0
229,35.21,-97.459,179.3,15.502,4,314,-2.794,-0.704,9.862,0
230,35.209,-97.459,179.4,15.242,4,314,-2.94,-1.043,9.009,0
231,35.209,-97.459,179.6,15.311,4,315,-3.067,-0.601,8.203,0
232,35.209,-97.459,179.8,15.77,4,316,-2.937,-0.696,9.104,1
233,35.209,-97.459,180.2,16.06,4,316,-2.876,-0.341,8.486,0
234,35.209,-97.459,180.6,15.86,4,316,-2.62,-0.386,9.711,0
235,35.208,-97.459,180.4,15.71,4,317,-3.033,-0.585,9.305,0
236,35.208,-97.459,180.4,15.84,4,317,-2.739,-0.785,9.042,0
237,35.208,-97.459,180.3,15.95,4,318,-2.779,-0.748,8.53,0
238,35.208,-97.459,180.3,16.02,4,317,-2.64,-0.656,9.407,1
239,35.208,-97.459,180,15.79,5,317,-2.647,-0.664,8.848,0
240,35.208,-97.459,179.8,15.66,5,317,-2.742,-0.662,9.167,0
241,35.208,-97.459,180.1,15.73,6,317,-2.821,-0.323,8.999,0
242,35.207,-97.459,180.1,15.5,6,317,-3.177,-0.621,9.221,0
243,35.207,-97.459,180.2,15.56,6,317,-3.081,-0.442,9.108,0
244,35.207,-97.459,180.3,15.85,5,317,-2.799,-0.665,8.548,0
245,35.207,-97.459,180.2,16.02,6,317,-3.067,-0.677,9.254,0
246,35.207,-97.459,180.1,16.19,6,317,-2.839,-0.463,8.899,0
247,35.207,-97.459,180.1,16.26,6,317,-2.306,-0.499,8.909,0
248,35.207,-97.459,180,15.83,6,318,-3.095,-0.759,8.816,0
249,35.206,-97.459,179.7,15.66,6,317,-2.807,-0.555,9.732,0
250,35.206,-97.459,179.7,15.55,6,317,-2.594,-0.21,9.256,0
251,35.206,-97.459,179.9,15.251,5,317,-3.131,-0.472,8.972,0
252,35.206,-97.459,180.1,15.111,5,317,-2.886,-0.403,9.932,0
253,35.206,-97.459,180.2,14.842,5,316,-2.294,-0.775,9.65,0
254,35.206,-97.459,179.6,14.639,5,316,-3.124,-0.445,8.341,0
255,35.206,-97.459,178.9,14.792,5,314,-2.867,-0.122,9.557,0
256,35.206,-97.459,178.6,14.746,6,313,-2.74,-0.259,9.119,0
257,35.205,-97.459,179.1,14.728,7,313,-2.634,-0.267,9.716,0
258,35.205,-97.459,179.7,14.645,7,312,-2.502,0.019,9.168,0
259,35.205,-97.459,180.2,14.615,7,312,-2.647,0.323,8.868,0
260,35.205,-97.459,181.4,14.589,7,312,-3.129,-0.049,9.775,0
261,35.205,-97.459,183.5,14.562,7,311,-2.643,-0.761,9.305,0
262,35.205,-97.459,184.1,14.729,6,311,-2.173,-0.763,9.475,0
263,35.205,-97.459,183.3,14.454,5,312,-2.117,-0.931,9.332,0
264,35.204,-97.459,181.3,14.113,5,313,-0.959,0.635,9.773,0
265,35.204,-97.459,180.4,12.321,5,313,-0.496,0.54,9.769,0
266,35.204,-97.459,180.4,10.04,5,313,-1.666,1.186,9.563,0
267,35.204,-97.459,181.9,8.2412,5,312,-4.723,3.604,9.708,0
268,35.204,-97.459,197.8,7.89,4,313,-5.79,3.27,8.965,0
269,35.204,-97.459,232.4,7.7602,4,311,-5.502,0.116,8.622,0
270,35.204,-97.459,262.4,9.2,4,311,-4.166,-1.923,8.43,0
271,35.204,-97.459,272.9,10.891,4,310,-3.829,-1.955,8.666,0
273,35.204,-97.459,272.8,12.04,4,307,-3.671,-1.974,8.87,0
274,35.204,-97.46,271.9,13.447,4,309,-3.613,-1.367,9.367,0
275,35.204,-97.46,271.5,14.594,4,308,-3.361,-1.088,10.059,0
276,35.204,-97.46,271.6,14.722,4,309,-3.246,-0.84,8.715,0
277,35.204,-97.46,271.8,14.501,9,309,-2.952,-0.933,8.859,1
278,35.204,-97.46,271.9,15.581,9,306,-3.04,-1.005,9.111,1
279,35.204,-97.46,272.2,15.951,9,306,-3.033,-1.439,9.233,1
280,35.204,-97.461,272,16.432,9,305,-2.905,-1.212,8.752,0
281,35.204,-97.461,271.6,17.257,10,305,-2.856,-1.052,8.728,0
282,35.204,-97.461,271.5,17.841,10,305,-2.913,-1.032,9.408,0
283,35.204,-97.461,271.6,18.119,9,304,-2.687,-1.115,8.778,0
284,35.204,-97.462,270.9,18.815,9,305,-2.874,-1.198,9.119,0
285,35.204,-97.462,270.7,19.272,9,305,-2.881,-0.992,9.357,0
286,35.204,-97.462,270.6,19.641,9,305,-2.77,-1.205,8.966,0
287,35.204,-97.462,270.5,19.63,9,305,-2.266,-0.802,9.315,1
288,35.204,-97.462,270.1,19.35,9,305,-2.394,-0.683,9.199,0
289,35.204,-97.463,270,19.071,9,305,-2.337,-0.321,9.17,0
290,35.204,-97.463,270,18.761,9,305,-2.187,-0.813,9.339,0
291,35.204,-97.463,269.9,18.63,9,305,-2.732,-0.897,9.259,1
292,35.204,-97.463,269.6,18.7,9,306,-2.554,-0.855,9.062,0
293,35.204,-97.463,269.8,18.61,9,306,-2.113,-0.841,9.252,0
294,35.204,-97.464,270,18.3,9,306,-2.308,-0.757,9.572,0
295,35.204,-97.464,270.1,17.79,9,306,-2.308,-0.793,9.454,0
296,35.204,-97.464,270.3,17.37,10,306,-2.45,-0.805,9.661,1
297,35.204,-97.464,270.2,16.96,10,306,-2.436,-0.48,8.99,0
298,35.204,-97.464,270.2,16.63,10,307,-2.55,-0.837,8.863,0
299,35.204,-97.465,270.2,16.59,10,306,-2.23,-0.707,8.999,0
300,35.204,-97.465,270,16.23,10,307,-2.306,-0.729,9.468,1
301,35.204,-97.465,269.8,15.92,10,308,-2.379,-0.762,9.299,0
302,35.204,-97.465,269.6,15.57,10,307,-2.413,-0.74,9.401,0
303,35.204,-97.465,269.6,15.17,9,310,-2.364,-0.605,9.27,0
304,35.204,-97.465,269.5,14.82,9,310,-2.358,-0.701,9.014,0
305,35.204,-97.466,269.5,14.42,9,310,-2.392,-0.625,8.792,0
306,35.204,-97.466,269.6,14.01,9,310,-2.556,-0.801,9.098,0
307,35.204,-97.466,269.6,13.57,9,310,-2.248,-0.563,8.975,0
308,35.204,-97.466,269.7,13.14,9,309,-2.274,-0.538,8.996,0
309,35.204,-97.466,269.7,12.72,9,310,-2.442,-0.484,9.326,0
310,35.204,-97.466,269.9,12.22,9,310,-2.206,-0.823,9.173,0
311,35.204,-97.467,270,11.84,9,310,-1.979,-0.433,9.674,0
312,35.204,-97.467,270.1,11.21,9,310,-1.53,-0.064,9.704,0
313,35.204,-97.467,270.3,9.9502,10,312,-1.765,-0.089,9.364,1
314,35.204,-97.467,270.3,8.53,10,311,-1.617,-0.179,9.586,1
315,35.204,-97.467,270.3,7.1,9,311,-1.529,-0.063,9.409,1
316,35.204,-97.467,270.2,5.6401,9,311,-2.197,-0.46,9.121,1
317,35.204,-97.467,270,4.6301,9,312,-2.169,-0.488,9.424,1
318,35.204,-97.467,269.9,3.98,9,312,-2.256,-0.488,9.372,1
319,35.204,-97.467,269.9,3.35,9,312,-2.309,-0.662,9.275,1
320,35.204,-97.467,269.9,2.93,9,312,-2.371,-0.594,9.202,1
321,35.204,-97.467,269.9,2.4902,9,312,-2.431,-0.661,9.171,1
322,35.204,-97.467,269.9,2.1602,10,312,-1.915,-0.315,9.738,1
323,35.204,-97.467,270,1.3801,10,312,-2.006,-0.423,9.516,1
324,35.204,-97.467,270,1.3801,10,312,-2.567,-0.74,8.9,1
325,35.204,-97.467,0,0.01,10,312,-2.7,-0.873,9.254,1
326,35.204,-97.467,0,0.01,10,312,-2.693,-0.854,9.146,1
328,35.204,-97.467,0,0.01,10,312,-2.705,-0.848,8.975,1
329,35.204,-97.467,0,0.01,10,312,-2.675,-0.899,9.295,1
330,35.204,-97.467,0,0.01,10,312,-2.702,-0.873,9.053,1
331,35.204,-97.467,0,0.01,10,312,-2.694,-0.888,9.248,1
332,35.204,-97.467,0,0.01,10,312,-2.685,-0.872,9.091,1
333,35.204,-97.467,0,0.01,10,312,-2.675,-0.875,9.032,1
334,35.204,-97.467,0,0.01,10,312,-2.679,-0.881,9,1
335,35.204,-97.467,0,0.01,10,312,-2.695,-0.866,8.974,1
336,35.204,-97.467,0,0.01,10,312,-2.656,-0.889,9.123,1
337,35.204,-97.467,0,0.01,10,312,-2.674,-0.884,9.071,1
338,35.204,-97.467,0,0.01,10,312,-2.692,-0.864,9.054,1
339,35.204,-97.467,0,0.01,10,312,-2.656,-0.881,8.99,1
340,35.204,-97.467,0,0.01,10,312,-2.697,-0.879,9.227,1
341,35.204,-97.467,0,0.01,10,312,-2.673,-0.884,9.142,1
342,35.204,-97.467,0,0.01,10,312,-2.688,-0.884,9.172,1
343,35.204,-97.467,0,0.01,10,312,-2.673,-0.905,9.261,1
344,35.204,-97.467,0,0.01,10,312,-2.685,-0.882,9.119,1
345,35.204,-97.467,0,0.01,10,312,-2.671,-0.896,9.256,1
346,35.204,-97.467,0,0.01,10,312,-2.706,-0.869,9.005,1
347,35.204,-97.467,0,0.04,10,313,-2.668,-0.872,8.987,1
348,35.204,-97.467,0,0.04,10,313,-2.693,-0.88,9.224,1
349,35.204,-97.467,0,0.04,10,313,-2.684,-0.864,8.959,1
350,35.204,-97.467,0,0.04,10,313,-2.706,-0.865,9.099,1
351,35.204,-97.467,0,0.04,10,313,-2.654,-0.883,8.985,1
352,35.204,-97.467,0,0.04,10,313,-3.304,-1.367,8.908,1
353,35.204,-97.467,270.3,1.4109,10,314,-3.001,-1.102,8.965,1
354,35.204,-97.467,270.2,1.81,10,315,-2.428,-0.694,9.403,1
355,35.204,-97.467,270.3,1.4401,10,315,-2.164,-0.503,9.408,1
356,35.204,-97.467,270.5,0.76007,10,315,-2.098,-0.369,9.277,1
357,35.204,-97.467,270.5,0.76007,10,315,-2.705,-0.906,9.043,1
358,35.204,-97.467,270.8,0.27295,10,315,-2.983,-1.2,9.025,1
359,35.204,-97.467,270.8,0.27295,10,315,-4.385,-2.159,8.356,1
360,35.204,-97.467,271,2.32,10,315,-4.01,-1.884,8.503,1
361,35.204,-97.467,271.4,3.8,10,315,-3.801,-1.793,8.682,1
362,35.204,-97.467,271.8,5,10,315,-3.318,-1.572,8.837,1
363,35.204,-97.467,272,6.1,10,315,-3.573,-1.554,8.714,1
364,35.204,-97.468,272.3,7.23,10,314,-3.483,-1.152,8.535,0
365,35.204,-97.468,272.6,8.5102,10,315,-3.622,-1.362,8.584,0
366,35.204,-97.468,271.6,9.83,10,315,-3.523,-1.453,8.422,0
367,35.204,-97.468,270.8,10.77,10,316,-3.315,-1.454,9.132,0
368,35.204,-97.468,270.1,11.82,9,316,-3.307,-1.396,8.713,1
369,35.204,-97.468,270.1,12.73,9,317,-2.989,-1.31,8.914,0
370,35.204,-97.468,270,13.38,9,317,-3.011,-1.33,8.858,0
371,35.204,-97.468,269.8,13.98,9,317,-2.585,-1.058,9.088,1
372,35.204,-97.469,269.6,14.29,9,317,-2.078,-0.11,9.087,1
373,35.204,-97.469,270.2,13.781,9,317,-2.297,-0.69,9.184,0
374,35.204,-97.469,270.6,13.361,9,316,-1.983,-0.44,9.021,0
375,35.204,-97.469,270.6,12.98,9,316,-1.683,-0.328,9.591,1
376,35.204,-97.469,270.7,12.091,9,316,-2.235,-0.571,9.389,0
377,35.204,-97.469,270.7,11.07,9,316,-1.999,-0.614,8.366,0
378,35.204,-97.469,270.6,10.601,9,315,-2.838,-1.177,9.617,0
379,35.204,-97.47,270.4,10.341,9,316,-2.747,-1.139,9.055,1
380,35.204,-97.47,270.4,10.57,9,316,-2.96,-1.273,9.099,1
381,35.204,-97.47,270.5,10.92,9,316,-2.801,-1.274,8.767,0
382,35.204,-97.47,270.5,11.43,9,316,-3.319,-1.213,8.184,0
383,35.204,-97.47,270.3,12.13,9,316,-3.341,-1.458,8.871,1
384,35.204,-97.47,270.3,13,9,316,-3.181,-1.317,8.541,1
385,35.204,-97.47,270.6,13.69,9,317,-3.15,-1.423,8.866,1
386,35.204,-97.47,270.5,14.4,9,317,-2.8,-0.861,8.929,1
388,35.204,-97.471,270.5,15.03,9,316,-2.125,-0.84,9.928,0
389,35.204,-97.471,270.4,14.861,9,315,-2.264,-0.792,9.447,1
390,35.204,-97.471,270.1,14.51,9,315,-2.39,-0.759,9.539,1
391,35.204,-97.471,269.8,14.18,9,315,-2.328,-0.76,9.319,1
392,35.204,-97.471,269.8,13.84,9,315,-2.734,-1.079,9.117,0
393,35.204,-97.471,269.8,13.6,9,315,-2.729,-1.04,9.153,1
394,35.204,-97.472,269.9,13.55,9,316,-2.81,-0.891,9.042,1
395,35.204,-97.472,270.1,13.69,9,316,-2.773,-1.068,9.09,1
396,35.204,-97.472,270.2,13.68,9,316,-2.823,-0.945,9.16,1
397,35.204,-97.472,270.3,13.75,9,317,-2.59,-0.922,9.116,1
398,35.204,-97.472,270.2,13.66,9,317,-2.674,-0.993,9.245,1
399,35.204,-97.472,270.1,13.72,9,317,-2.693,-1.044,9.03,1
400,35.204,-97.473,269.9,13.84,9,317,-2.669,-1.03,8.709,0
401,35.204,-97.473,269.8,13.98,9,317,-2.618,-1.118,8.738,1
402,35.204,-97.473,269.6,14.11,9,317,-2.474,-0.904,9.533,1
403,35.204,-97.473,269.7,13.9,9,317,-2.227,-0.537,8.856,0
404,35.204,-97.473,269.8,13.59,9,317,-2.364,-0.66,9.452,0
405,35.204,-97.473,269.8,13.21,9,317,-2.319,-0.679,9.359,1
406,35.204,-97.474,269.9,12.84,9,317,-2.382,-0.724,9.234,1
407,35.204,-97.474,269.9,12.61,9,317,-3.038,-1.091,9.309,1
408,35.204,-97.474,270.1,12.7,9,317,-2.746,-1.282,9.421,0
409,35.204,-97.474,270.1,12.9,9,317,-2.988,-1.037,8.976,0
410,35.204,-97.474,270,13.14,9,317,-2.658,-0.982,9.103,1
411,35.204,-97.474,269.9,13.09,9,317,-2.389,-0.682,9.496,1
412,35.204,-97.474,270,12.81,9,317,-2.5,-0.754,9.175,1
413,35.204,-97.475,270,12.63,9,317,-2.807,-1.093,8.839,0
414,35.204,-97.475,270,12.64,9,317,-1.833,-0.354,9.355,1
415,35.204,-97.475,270,11.87,9,317,-1.97,-0.444,9.427,0
416,35.204,-97.475,270.1,11.011,9,317,-2.087,-0.393,9.489,0
417,35.204,-97.475,270.1,10.18,9,317,-1.773,-0.228,9.435,0
418,35.204,-97.475,270.3,9.1509,9,316,-1.668,-0.355,9.23,0
419,35.204,-97.475,270.4,8.0514,9,317,-2.05,-0.422,9.426,0
420,35.204,-97.475,270.1,6.9918,9,317,-2.374,-0.953,9.29,0
421,35.204,-97.475,270,6.7309,9,316,-2.645,-0.806,9.27,0
422,35.204,-97.475,270,6.6701,9,316,-2.872,-1.239,9.015,1
423,35.204,-97.476,270.2,7.0803,9,316,-3.526,-1.314,8.531,1
424,35.204,-97.476,270.7,7.7806,9,316,-3.19,-0.995,8.185,0
425,35.204,-97.476,271,8.7113,9,315,-3.216,-1.402,8.769,1
426,35.204,-97.476,271.1,9.4714,9,315,-3.184,-1.457,9.122,1
427,35.204,-97.476,272.4,10.43,9,316,-2.212,-0.437,8.677,0
428,35.204,-97.476,272.5,9.5,9,316,-2.723,-0.687,8.767,0
429,35.204,-97.476,272.9,9.3306,9,315,-2.521,-1.007,9.337,0
430,35.204,-97.476,273,9.5,9,316,-2.607,-1.277,9.172,0
431,35.204,-97.476,272.7,9.61,9,316,-2.982,-1.415,9.36,0
432,35.204,-97.476,271.8,9.79,9,316,-3.005,-1.209,9.557,0
433,35.204,-97.477,271.4,9.98,9,316,-2.875,-1.187,8.625,0
434,35.204,-97.477,271,10.37,9,316,-3.186,-0.591,8.639,0
435,35.204,-97.477,270.9,10.41,9,317,-3.431,-1.065,9.187,0
436,35.204,-97.477,270.9,10.71,9,316,-3.23,-1.471,9.136,0
437,35.204,-97.477,270.8,11.27,9,317,-3.196,-1.588,9.656,0
438,35.204,-97.477,270.7,11.95,9,317,-3.288,-1.521,9.641,0
439,35.204,-97.477,270.6,12.541,9,317,-2.813,-1.177,9.173,0
440,35.204,-97.477,270.6,12.621,9,317,-2.936,-1.087,8.899,1
441,35.204,-97.478,270.6,12.791,9,316,-2.776,-1.168,8.719,0
442,35.204,-97.478,270.7,13.041,10,317,-2.994,-1.176,9.129,0
443,35.204,-97.478,270.8,13.361,9,317,-2.712,-1.338,9.091,0
444,35.204,-97.478,270.5,13.681,9,318,-2.744,-1.113,9.133,0
445,35.204,-97.478,270.1,13.651,9,318,-2.459,-0.752,9.153,0
446,35.204,-97.478,269.8,13.451,9,318,-2.536,-0.278,9.373,0
448,35.204,-97.478,270.2,12.981,9,319,-3.135,0.18,8.971,1
449,35.204,-97.479,273.3,12.55,9,318,-3.26,0.669,9.142,0
450,35.204,-97.479,279.7,12.45,9,318,-3.507,1.07,8.907,0
451,35.204,-97.479,288.4,12.5,9,318,-3.999,1.56,9.218,0
452,35.204,-97.479,300.5,12.6,9,318,-3.734,1.159,9.265,0
453,35.204,-97.479,313,12.52,10,318,-4.057,0.829,9.218,0
454,35.204,-97.479,324.8,12.791,5,318,-3.467,-0.366,9.13,1
455,35.205,-97.479,339.6,12.973,5,318,-3.512,-0.646,8.781,1
456,35.205,-97.479,342.9,13.307,10,318,-3.409,-0.655,9.016,1
457,35.205,-97.479,343.5,13.933,9,317,-2.595,-1.651,8.504,1
458,35.205,-97.479,341.5,13.792,8,317,-2.778,-1.183,8.915,0
459,35.205,-97.479,341.6,13.793,3,316,-2.892,-1.151,9.287,0
460,35.205,-97.479,341,14.073,4,316,-2.729,-1.504,9.062,1
461,35.205,-97.48,340.3,14.402,4,316,-2.901,-1.295,9.013,0
462,35.205,-97.48,340.3,14.991,4,315,-3.06,-1.313,9.2,1
463,35.205,-97.48,340.3,14.991,4,315,-3.102,-1.293,9.007,0
464,35.206,-97.48,340.4,16.384,5,314,-3.019,-1.254,9.362,0
465,35.206,-97.48,340.4,17.252,5,313,-3.361,-1.409,8.743,0
466,35.206,-97.48,340.4,18.45,5,313,-3.659,-1.282,8.304,0
467,35.206,-97.48,340.2,19.65,6,314,-4.035,-1.701,9.17,0
468,35.206,-97.48,340.1,20.622,5,314,-3.849,-1.684,8.835,0
469,35.206,-97.48,339.7,21.744,4,315,-3.396,-2.146,9.443,0
470,35.207,-97.48,338.8,22.664,4,316,-3.175,-1.165,7.987,0
471,35.207,-97.48,338.3,23.417,4,317,-3.207,-0.773,9.177,0
472,35.207,-97.48,337.8,23.897,4,317,-2.93,-1.198,9.624,0
473,35.207,-97.481,335.9,25.014,4,318,-3.112,-0.606,9.092,0
474,35.208,-97.481,335.4,25.595,4,318,-3.113,-0.773,8.91,0
475,35.208,-97.481,334.9,25.986,3,319,-2.949,-1.008,8.355,0
476,35.208,-97.481,333.8,26.268,3,320,-2.755,-1.605,8.862,0
477,35.208,-97.481,331.8,26.808,3,321,-3.015,-1.442,9.084,0
478,35.208,-97.481,330.5,27.497,3,321,-3.328,-0.801,8.762,1
479,35.209,-97.481,330.1,28.356,3,321,-3.478,-0.673,8.67,0
480,35.209,-97.481,330.8,29.065,3,322,-3.94,-1.144,8.914,0
481,35.209,-97.482,331.5,30.134,3,322,-3.651,-1.402,8.742,0
482,35.209,-97.482,331.8,31.272,3,322,-2.692,-2.289,8.831,1
483,35.21,-97.482,330.3,31.882,4,322,-3.084,-2.017,9.084,0
484,35.21,-97.482,329.5,32.761,4,322,-4.037,-0.784,8.85,0
485,35.21,-97.482,331,33.831,4,322,-3.249,-1.708,8.592,0
486,35.21,-97.482,331.4,34.771,4,321,-3.074,-2.038,8.819,0
487,35.211,-97.483,331,35.5,4,321,-2.306,-2.702,9.289,0
488,35.211,-97.483,329.4,35.841,4,321,-3.992,-0.153,8.634,0
489,35.211,-97.483,331,36.88,4,321,-3.585,-0.904,8.827,0
490,35.212,-97.483,332.1,37.94,4,321,-2.399,-1.821,8.317,0
491,35.212,-97.483,331.1,38.42,5,321,-2.456,-1.996,8.34,0
492,35.212,-97.484,329.8,38.76,4,321,-3.908,-0.116,8.452,0
493,35.212,-97.484,331.5,39.51,5,321,-2.8,0.09,9.307,0
494,35.213,-97.484,332.7,39.18,5,321,-3.314,0.428,9.853,0
495,35.213,-97.484,334.9,39.151,5,322,-3.32,0.527,9.6,0
496,35.213,-97.484,336.8,38.452,4,326,-2.914,0.266,9.266,0
497,35.214,-97.485,339.1,38.133,4,327,-2.994,0.045,9.748,0
498,35.214,-97.485,340.8,37.291,3,326,-2.892,-0.083,8.887,0
499,35.214,-97.485,342.3,36.621,4,324,-3.35,0.246,8.96,0
500,35.215,-97.485,344.4,36.13,4,323,-2.663,-0.168,9.261,0
501,35.215,-97.485,345.6,35.43,4,323,-2.701,-0.032,8.995,0
502,35.215,-97.485,347.1,34.811,4,324,-3.251,-0.166,10.035,0
503,35.216,-97.485,349.2,34.37,4,323,-3.324,-0.345,9.108,0
504,35.216,-97.485,350.8,34.2,3,324,-3.339,-0.353,8.881,1
506,35.216,-97.485,352.5,34.22,4,324,-3.262,-0.343,9.151,0
507,35.216,-97.485,354.1,34.24,4,324,-3.072,-0.502,8.99,0
508,35.217,-97.485,355.5,34.672,3,324,-3.49,-0.097,8.328,0
509,35.217,-97.485,357.5,34.971,3,324,-3.455,-0.559,9.616,0
510,35.217,-97.485,359.6,35.331,3,324,-2.664,-0.715,9.425,0
511,35.218,-97.485,0.4,35.441,3,324,-2.269,-0.324,8.61,0
512,35.218,-97.485,0.2,34.811,3,325,-2.792,-0.854,9.315,0
513,35.218,-97.485,0.2,34.151,3,324,-2.723,-0.562,8.381,0
514,35.219,-97.485,359.8,33.282,5,325,-2.596,-0.822,8.823,0
515,35.219,-97.485,359.6,32.862,6,325,-3.015,-0.734,9.231,0
516,35.22,-97.485,359.6,32.61,4,324,-3.283,-0.638,9.729,0
517,35.22,-97.485,359.9,32.46,4,323,-3.4,-0.595,10.008,0
518,35.22,-97.485,0.2,32.39,4,323,-2.972,-0.534,9.374,0
519,35.22,-97.485,0.3,32.271,5,324,-2.945,-0.591,9.268,0
520,35.221,-97.485,0.2,32.25,9,323,-2.986,-0.637,9.948,0
521,35.221,-97.485,0,32.39,10,323,-3.015,-0.668,8.893,1
522,35.221,-97.485,0,32.74,4,322,-2.998,-0.713,8.765,0
523,35.222,-97.485,0,32.94,9,323,-2.81,-0.626,8.827,0
524,35.222,-97.485,0,33.13,9,323,-2.946,-0.561,9.016,0
525,35.222,-97.485,0.2,34.08,4,323,-2.75,-0.676,8.839,0
526,35.223,-97.485,0.1,34.33,4,322,-2.992,-0.578,9.027,1
527,35.223,-97.485,0,34.27,4,322,-2.793,-0.398,8.994,0
528,35.223,-97.485,0,34.21,5,321,-2.7,-0.475,9.163,0
529,35.224,-97.485,0,34.25,5,322,-2.559,-0.501,9.181,1
530,35.224,-97.485,359.9,33.41,4,317,-2.744,-0.417,8.96,1
531,35.224,-97.485,0,33.17,4,319,-2.873,-0.535,9.26,1
532,35.225,-97.485,0,33.12,4,319,-2.728,-0.647,9.911,0
533,35.225,-97.485,359.8,33.09,4,319,-2.905,-0.654,9.232,0
534,35.225,-97.485,359.8,33.03,4,318,-3.082,-0.54,9.04,0
535,35.225,-97.485,359.7,33.051,4,319,-3.148,-0.666,8.932,0
536,35.226,-97.485,0.1,33.17,4,319,-3.054,-0.907,9.305,0
537,35.226,-97.485,0,33.36,5,319,-3.079,-0.882,9.12,0
538,35.226,-97.485,359.9,33.51,4,319,-2.827,-0.581,9.102,0
539,35.227,-97.485,359.8,33.3,4,320,-2.936,-0.743,9.003,0
540,35.227,-97.485,359.6,33.3,4,320,-3.05,-0.566,9.176,1
541,35.227,-97.485,359.7,33.42,3,321,-3.137,-0.509,8.93,1
542,35.228,-97.485,359.9,33.491,3,322,-2.899,-0.731,8.764,1
543,35.228,-97.485,359.7,33.531,3,322,-2.887,-0.72,8.842,1
544,35.228,-97.485,359.5,33.56,4,322,-3.114,-0.525,9.129,1
545,35.228,-97.485,0,33.66,3,321,-2.995,-0.6,9.354,1
546,35.229,-97.485,359.9,33.68,4,321,-2.954,-0.688,9.035,1
547,35.229,-97.485,359.7,33.651,3,320,-3.036,-0.622,9.15,1
548,35.229,-97.485,0,33.72,3,320,-3.011,-0.601,8.924,1
549,35.23,-97.485,359.9,33.68,3,321,-3.105,-0.584,9.051,1
550,35.23,-97.485,0.1,33.7,3,320,-2.931,-0.664,8.897,1
551,35.23,-97.485,0.2,33.69,3,320,-3.002,-0.702,9.104,1
552,35.231,-97.485,0,33.68,4,320,-2.92,-0.689,8.906,1
553,35.231,-97.485,359.8,33.65,4,321,-3.021,-0.53,8.937,1
554,35.231,-97.485,359.9,33.67,4,322,-2.969,-0.581,8.901,1
555,35.231,-97.485,359.9,33.75,3,320,-2.995,-0.463,9.179,1
556,35.232,-97.485,359.9,33.76,4,319,-2.97,-0.594,9.151,1
557,35.232,-97.485,359.9,33.73,9,320,-3.019,-0.479,8.867,1
558,35.232,-97.485,0,33.72,9,320,-3.013,-0.559,8.879,1
559,35.233,-97.485,0.1,33.73,9,320,-3.037,-0.683,8.976,1
560,35.233,-97.485,359.5,33.51,9,320,-2.891,-0.718,9.24,1
561,35.233,-97.485,358.9,33.77,10,320,-2.892,-0.699,9.184,1
562,35.234,-97.485,359.7,33.72,10,319,-3.045,-0.627,8.693,1
564,35.234,-97.485,359.8,33.7,10,319,-3.082,-0.532,8.742,1
565,35.234,-97.485,0,33.76,10,319,-2.974,-0.788,9.192,1
566,35.235,-97.485,359.9,33.69,9,319,-2.95,-0.663,8.976,1
567,35.235,-97.485,359.9,33.69,9,318,-2.896,-0.631,8.913,1
568,35.235,-97.485,0,33.72,9,317,-2.911,-0.532,9.187,1
569,35.235,-97.485,359.8,33.72,9,317,-2.97,-0.553,9.042,1
570,35.236,-97.485,359.8,33.69,9,318,-3.081,-0.386,9.018,1
571,35.236,-97.485,359.9,33.75,9,318,-2.872,-0.804,9.219,1
572,35.236,-97.485,0.3,33.81,10,320,-2.896,-0.638,8.673,1
573,35.237,-97.485,359.9,33.73,9,319,-3.04,-0.668,9.33,1
574,35.237,-97.485,0.1,33.71,9,319,-2.848,-0.749,9.203,1
575,35.238,-97.485,359.8,33.73,9,321,-2.854,-0.84,9.345,1
576,35.238,-97.485,359.6,33.74,9,322,-2.927,-0.597,9.124,1
577,35.238,-97.485,359.9,33.77,9,322,-2.937,-0.537,8.897,1
578,35.238,-97.485,359.9,33.76,9,322,-2.952,-0.613,9.257,1
579,35.239,-97.485,359.7,33.77,9,324,-3.01,-0.618,9.057,1
580,35.239,-97.485,359.9,33.82,9,322,-2.895,-0.66,9.321,1
581,35.239,-97.485,359.9,33.79,9,322,-2.974,-0.486,8.911,1
582,35.24,-97.485,0,33.76,9,322,-2.941,-0.74,9.333,1
583,35.24,-97.485,0,33.71,9,321,-2.929,-0.45,9.063,1
584,35.24,-97.485,359.9,33.71,9,321,-3.02,-0.704,9.239,1
585,35.241,-97.485,359.9,33.72,9,320,-2.841,-0.595,9.168,1
586,35.241,-97.485,359.9,33.66,9,320,-2.804,-0.574,9.134,1
587,35.241,-97.485,359.8,33.48,9,319,-2.691,-0.54,9.096,1
588,35.242,-97.485,359.8,33.24,9,318,-2.665,-0.337,9.015,1
589,35.242,-97.485,359.8,32.88,9,318,-2.748,-0.201,9.161,1
590,35.242,-97.485,0,32.57,9,316,-2.741,-0.367,9.337,1
591,35.242,-97.485,0.1,32.18,9,316,-2.723,-0.343,8.958,1
592,35.243,-97.485,0.1,31.81,9,316,-2.586,-0.491,9.429,1
593,35.243,-97.485,0,31.45,9,316,-2.489,-0.521,9.492,1
594,35.243,-97.485,359.7,31.12,9,318,-2.789,-0.508,9.259,1
595,35.244,-97.485,359.7,30.97,9,318,-2.799,-0.552,8.824,1
596,35.244,-97.485,359.9,30.88,9,316,-2.8,-0.582,9.255,1
597,35.244,-97.485,359.7,30.76,9,316,-2.939,-0.6,8.948,1
598,35.244,-97.485,359.9,30.72,9,316,-3.09,-0.665,9.303,1
599,35.245,-97.485,0,30.87,9,318,-3.187,-1.007,9.228,1
600,35.245,-97.485,0,31.19,9,318,-3.186,-0.929,8.976,1
601,35.245,-97.485,0.1,31.6,9,318,-3.272,-0.952,9.058,1
602,35.245,-97.485,0,32.06,9,317,-3.15,-0.965,8.878,1
603,35.246,-97.485,359.8,32.35,9,318,-2.94,-0.843,8.987,1
604,35.246,-97.485,359.7,32.58,9,318,-3.049,-0.715,8.852,1
605,35.246,-97.485,359.7,32.76,9,318,-3.211,-0.779,9.224,1
606,35.247,-97.485,359.9,32.93,9,318,-3.113,-0.742,9.246,1
607,35.247,-97.485,0,33.12,9,319,-2.836,-0.794,9.034,1
608,35.247,-97.485,359.9,33.181,9,320,-2.949,-0.712,9.027,1
609,35.248,-97.485,0,33.24,9,320,-3.004,-0.753,9.087,1
610,35.248,-97.485,0,33.33,9,319,-2.931,-0.602,9.055,1
611,35.248,-97.485,0.5,33.682,9,319,-2.918,-0.737,9.056,1
